time,seconds_elapsed,z,y,x
1740247368778404400,0.031404296875,-0.6656951904296875,-0.61627197265625,0.041839599609375
1740247368788385300,0.04138525390625,-0.77294921875,-0.5352783203125,0.0235137939453125
1740247368798367200,0.0513671875,-0.91845703125,-0.4153900146484375,-0.0242919921875
1740247368808348200,0.06134814453125,-1.1226654052734375,-0.3062744140625,-0.0227203369140625
1740247368818329000,0.0713291015625,-1.2797088623046875,-0.298187255859375,0.108367919921875
1740247368828311300,0.081311279296875,-1.34063720703125,-0.3058319091796875,0.228790283203125
1740247368838292200,0.091292236328125,-1.370697021484375,-0.2940521240234375,0.3360595703125
1740247368848274200,0.101274169921875,-1.369598388671875,-0.2884979248046875,0.36419677734375
1740247368858255000,0.111255126953125,-1.3805694580078125,-0.2895355224609375,0.36279296875
1740247368868237300,0.1212373046875,-1.396087646484375,-0.3168182373046875,0.403076171875
1740247368878218200,0.13121826171875,-1.2830963134765625,-0.3544464111328125,0.3837127685546875
1740247368888199400,0.141199462890625,-0.9634246826171875,-0.3512420654296875,0.365142822265625
1740247368898181000,0.15118115234375,-0.8621826171875,-0.23175048828125,0.40008544921875
1740247368908162000,0.161162109375,-0.863494873046875,-0.282073974609375,0.4380950927734375
1740247368918144300,0.171144287109375,-0.9575347900390625,-0.5283355712890625,0.2674102783203125
1740247368928125200,0.181125244140625,-1.072540283203125,-0.5738983154296875,0.2396392822265625
1740247368938107100,0.191107177734375,-1.1007843017578125,-0.4489593505859375,0.2802886962890625
1740247368948088000,0.201088134765625,-1.06591796875,-0.3098602294921875,0.30230712890625
1740247368958069200,0.2110693359375,-1.0238800048828125,-0.2987060546875,0.302764892578125
1740247368968051200,0.22105126953125,-0.94683837890625,-0.28125,0.2648468017578125
1740247368978032000,0.2310322265625,-0.872528076171875,-0.2908935546875,0.248992919921875
1740247368988014300,0.241014404296875,-0.8007965087890625,-0.357208251953125,0.2722930908203125
1740247368997995300,0.250995361328125,-0.7410430908203125,-0.4232330322265625,0.3087310791015625
1740247369007977200,0.260977294921875,-0.715972900390625,-0.4449615478515625,0.3458251953125
1740247369017958100,0.270958251953125,-0.6976470947265625,-0.4102020263671875,0.3800811767578125
1740247369027940400,0.2809404296875,-0.6837615966796875,-0.3473968505859375,0.4054107666015625
1740247369037921300,0.29092138671875,-0.6574554443359375,-0.3153228759765625,0.3945159912109375
1740247369047902200,0.300902099609375,-0.6625823974609375,-0.3861083984375,0.289093017578125
1740247369057884200,0.31088427734375,-0.6633453369140625,-0.4416961669921875,0.22332763671875
1740247369067865000,0.320864990234375,-0.645172119140625,-0.378082275390625,0.2011260986328125
1740247369077847300,0.330847412109375,-0.6251983642578125,-0.3226470947265625,0.1541900634765625
1740247369087828200,0.340828125,-0.5867919921875,-0.3480224609375,0.07763671875
1740247369097810200,0.35081005859375,-0.550628662109375,-0.4326171875,0.0270843505859375
1740247369107791000,0.360791015625,-0.5297088623046875,-0.4879302978515625,0.014373779296875
1740247369117772000,0.37077197265625,-0.51422119140625,-0.512237548828125,0.0260009765625
1740247369127754200,0.380754150390625,-0.487274169921875,-0.51751708984375,0.0626983642578125
1740247369137735200,0.390735107421875,-0.442291259765625,-0.47930908203125,0.11639404296875
1740247369147717000,0.400717041015625,-0.3885650634765625,-0.4180908203125,0.161651611328125
1740247369157698000,0.410697998046875,-0.3353118896484375,-0.35528564453125,0.205963134765625
1740247369167680300,0.42068017578125,-0.3057708740234375,-0.3081207275390625,0.2297821044921875
1740247369177661200,0.4306611328125,-0.3047027587890625,-0.264404296875,0.2444000244140625
1740247369187642000,0.44064208984375,-0.30194091796875,-0.2335357666015625,0.2823333740234375
1740247369197624300,0.450624267578125,-0.29486083984375,-0.21148681640625,0.346466064453125
1740247369207605200,0.460605224609375,-0.2721710205078125,-0.219482421875,0.4032135009765625
1740247369217587200,0.470587158203125,-0.24310302734375,-0.2544097900390625,0.43609619140625
1740247369227568000,0.480568115234375,-0.215667724609375,-0.290435791015625,0.4540863037109375
1740247369237550300,0.49055029296875,-0.204071044921875,-0.288238525390625,0.453704833984375
1740247369247531300,0.50053125,-0.2157440185546875,-0.2181396484375,0.4697113037109375
1740247369257512200,0.51051220703125,-0.253936767578125,-0.0782012939453125,0.4923858642578125
1740247369267494100,0.520494140625,-0.31219482421875,0.055572509765625,0.4960479736328125
1740247369277475000,0.53047509765625,-0.397125244140625,0.1644134521484375,0.49810791015625
1740247369287457300,0.540457275390625,-0.44097900390625,0.20745849609375,0.506591796875
1740247369297438200,0.550438232421875,-0.4198150634765625,0.167236328125,0.4844207763671875
1740247369307420200,0.560420166015625,-0.3827362060546875,0.128021240234375,0.42547607421875
1740247369317401000,0.570401123046875,-0.37823486328125,0.1640167236328125,0.3764801025390625
1740247369327382300,0.58038232421875,-0.3910369873046875,0.275543212890625,0.3678741455078125
1740247369337364200,0.5903642578125,-0.3477935791015625,0.4239044189453125,0.306976318359375
1740247369347345200,0.60034521484375,-0.322265625,0.5352630615234375,0.3419342041015625
1740247369357327000,0.6103271484375,-0.39813232421875,0.6529998779296875,0.55908203125
1740247369367308000,0.62030810546875,-0.426239013671875,0.8175048828125,0.7616119384765625
1740247369377290200,0.630290283203125,-0.3426513671875,0.987030029296875,1.003265380859375
1740247369387271200,0.640271240234375,-0.208282470703125,1.1096649169921875,1.3004150390625
1740247369397253400,0.65025341796875,-0.0659637451171875,1.1455230712890625,1.49957275390625
1740247369407234300,0.660234375,0.018798828125,1.0910491943359375,1.5883941650390625
1740247369417215200,0.67021533203125,0.050628662109375,1.0266265869140625,1.62164306640625
1740247369427197200,0.680197265625,0.0522613525390625,1.0053253173828125,1.6160430908203125
1740247369437178000,0.69017822265625,0.07830810546875,1.0144500732421875,1.6053466796875
1740247369447160300,0.700160400390625,0.049896240234375,1.0443115234375,1.6486358642578125
1740247369457141200,0.710141357421875,0.0315093994140625,1.0627288818359375,1.7593841552734375
1740247369467123200,0.720123291015625,0.02001953125,1.1026458740234375,1.8572235107421875
1740247369477104000,0.730104248046875,-0.013580322265625,1.2032318115234375,1.849334716796875
1740247369487085000,0.7400849609375,-0.0495452880859375,1.2346038818359375,1.874267578125
1740247369497067300,0.7500673828125,-0.12200927734375,1.122283935546875,1.9504547119140625
1740247369507048200,0.760048095703125,-0.2351837158203125,1.0049591064453125,2.04351806640625
1740247369517030100,0.770030029296875,-0.3041534423828125,0.959808349609375,2.127593994140625
1740247369527011000,0.780010986328125,-0.30914306640625,0.9580841064453125,2.1773223876953125
1740247369536993300,0.7899931640625,-0.2942657470703125,0.9410247802734375,2.157470703125
1740247369546974200,0.79997412109375,-0.30096435546875,0.82501220703125,2.0557098388671875
1740247369556955100,0.809955078125,-0.343658447265625,0.6381072998046875,1.90008544921875
1740247369566937000,0.81993701171875,-0.4011077880859375,0.4805908203125,1.75390625
1740247369576918000,0.82991796875,-0.4297027587890625,0.3805389404296875,1.63140869140625
1740247369586900200,0.839900146484375,-0.4346771240234375,0.310089111328125,1.517059326171875
1740247369596881200,0.849881103515625,-0.440673828125,0.2541961669921875,1.4192657470703125
1740247369606863400,0.85986328125,-0.4410247802734375,0.1968841552734375,1.3288116455078125
1740247369616844300,0.86984423828125,-0.4309844970703125,0.1341094970703125,1.2491912841796875
1740247369626826200,0.879826171875,-0.434783935546875,0.07550048828125,1.172027587890625
1740247369636807200,0.88980712890625,-0.448455810546875,0.0381927490234375,1.120452880859375
1740247369646788000,0.8997880859375,-0.435272216796875,0.0376739501953125,1.1302032470703125
1740247369656770300,0.909770263671875,-0.4102783203125,0.069732666015625,1.2003173828125
1740247369666751200,0.919751220703125,-0.3854217529296875,0.094940185546875,1.2597198486328125
1740247369676733200,0.929733154296875,-0.3738555908203125,0.0928497314453125,1.3389129638671875
1740247369686714000,0.939714111328125,-0.37518310546875,0.061798095703125,1.3424835205078125
1740247369696696300,0.9496962890625,-0.341033935546875,0.0087738037109375,1.245819091796875
1740247369706676700,0.9596767578125,-0.284332275390625,-0.073516845703125,1.075408935546875
1740247369716657700,0.96965771484375,-0.2197113037109375,-0.16943359375,0.892974853515625
1740247369726639900,0.979639892578125,-0.162994384765625,-0.26995849609375,0.7036895751953125
1740247369736620500,0.98962060546875,-0.176788330078125,-0.3504180908203125,0.544830322265625
1740247369746602800,0.999602783203125,-0.183624267578125,-0.3692474365234375,0.4575042724609375
1740247369756583700,1.009583740234375,-0.2017364501953125,-0.368682861328125,0.457733154296875
1740247369766565600,1.019565673828125,-0.1778564453125,-0.3100433349609375,0.5861968994140625
1740247369776546800,1.029546875,-0.11029052734375,-0.21966552734375,0.8325042724609375
1740247369786527700,1.03952783203125,-0.073944091796875,-0.1935882568359375,1.1001129150390625
1740247369796509700,1.049509765625,-0.05841064453125,-0.230712890625,1.32928466796875
1740247369806490600,1.05949072265625,-0.0508575439453125,-0.2618560791015625,1.469390869140625
1740247369816472800,1.069472900390625,-0.0740203857421875,-0.2199554443359375,1.577301025390625
1740247369826453800,1.079453857421875,-0.0791778564453125,-0.2038726806640625,1.6593170166015625
1740247369836435500,1.089435546875,-0.1171722412109375,-0.2325286865234375,1.7079620361328125
1740247369846416600,1.099416748046875,-0.184783935546875,-0.2915496826171875,1.7747802734375
1740247369856398600,1.109398681640625,-0.2559967041015625,-0.3962249755859375,1.8854827880859375
1740247369866379800,1.1193798828125,-0.3388824462890625,-0.5202484130859375,1.956787109375
1740247369876360700,1.129360595703125,-0.4389495849609375,-0.62939453125,1.91741943359375
1740247369886342700,1.1393427734375,-0.5188446044921875,-0.7023162841796875,1.7585906982421875
1740247369896323600,1.149323486328125,-0.5348052978515625,-0.7760009765625,1.5064697265625
1740247369906305500,1.159305419921875,-0.4790496826171875,-0.8428192138671875,1.295562744140625
1740247369916286700,1.16928662109375,-0.283477783203125,-0.786224365234375,1.41357421875
1740247369926268700,1.1792685546875,-0.0299072265625,-0.6554718017578125,1.765106201171875
1740247369936249900,1.189249755859375,0.1043853759765625,-0.6324005126953125,1.99249267578125
1740247369946230500,1.19923046875,0.20025634765625,-0.634857177734375,2.12982177734375
1740247369956212700,1.209212646484375,0.287933349609375,-0.5594940185546875,2.186279296875
1740247369966193700,1.219193603515625,0.30267333984375,-0.42449951171875,2.1335601806640625
1740247369976175900,1.22917578125,0.174041748046875,-0.2840423583984375,2.0142974853515625
1740247369986156800,1.23915673828125,-0.0605621337890625,-0.1911468505859375,1.9383544921875
1740247369996138500,1.249138427734375,-0.32177734375,-0.115753173828125,1.9537353515625
1740247370006119700,1.25911962890625,-0.55389404296875,0.00872802734375,2.0860443115234375
1740247370016100600,1.2691005859375,-0.776885986328125,0.1649322509765625,2.2056427001953125
1740247370026082800,1.279082763671875,-0.9586944580078125,0.2597503662109375,2.27947998046875
1740247370036063700,1.289063720703125,-1.1031646728515625,0.331695556640625,2.3053436279296875
1740247370046045700,1.299045654296875,-1.193145751953125,0.4133148193359375,2.2561798095703125
1740247370056026600,1.309026611328125,-1.2366790771484375,0.515289306640625,2.136260986328125
1740247370066008600,1.319008544921875,-1.2629547119140625,0.5868377685546875,2.0140533447265625
1740247370075989800,1.32898974609375,-1.2628173828125,0.6014556884765625,1.96124267578125
1740247370085971700,1.3389716796875,-1.195220947265625,0.5875701904296875,1.955047607421875
1740247370095952600,1.34895263671875,-1.07861328125,0.6097869873046875,1.8824615478515625
1740247370105933600,1.35893359375,-0.94012451171875,0.6578216552734375,1.767181396484375
1740247370115915800,1.368915771484375,-0.7832794189453125,0.699676513671875,1.6522674560546875
1740247370125896700,1.378896728515625,-0.6146240234375,0.731689453125,1.5531768798828125
1740247370135878700,1.388878662109375,-0.4491729736328125,0.7473602294921875,1.489715576171875
1740247370145859800,1.39885986328125,-0.3371124267578125,0.73052978515625,1.420745849609375
1740247370155841500,1.408841552734375,-0.305084228515625,0.668548583984375,1.326141357421875
1740247370165822700,1.41882275390625,-0.293304443359375,0.600494384765625,1.2419586181640625
1740247370175803600,1.4288037109375,-0.256011962890625,0.5780792236328125,1.1962127685546875
1740247370185785900,1.438785888671875,-0.2080230712890625,0.5713653564453125,1.1598663330078125
1740247370195766800,1.448766845703125,-0.1611785888671875,0.5581512451171875,1.144012451171875
1740247370205748500,1.45874853515625,-0.11322021484375,0.5350494384765625,1.1320037841796875
1740247370215729700,1.468729736328125,-0.0656280517578125,0.5031585693359375,1.098114013671875
1740247370225711600,1.478711669921875,-0.039581298828125,0.4591827392578125,1.0756378173828125
1740247370235692800,1.48869287109375,-0.028839111328125,0.4183197021484375,1.0628204345703125
1740247370245674500,1.498674560546875,-0.033172607421875,0.393707275390625,1.0454254150390625
1740247370255655700,1.50865576171875,-0.0445404052734375,0.379058837890625,1.02685546875
1740247370265636600,1.51863671875,-0.063323974609375,0.3787689208984375,1.00634765625
1740247370275618600,1.52861865234375,-0.078704833984375,0.3898468017578125,0.9854888916015625
1740247370285599700,1.538599853515625,-0.092071533203125,0.4153289794921875,0.985992431640625
1740247370295581700,1.548581787109375,-0.1066741943359375,0.448486328125,0.9764862060546875
1740247370305562600,1.558562744140625,-0.1325531005859375,0.4757080078125,0.9396820068359375
1740247370315544600,1.568544677734375,-0.1661224365234375,0.469207763671875,0.9129638671875
1740247370325525800,1.57852587890625,-0.15911865234375,0.488922119140625,0.856536865234375
1740247370335506700,1.588506591796875,-0.087066650390625,0.563751220703125,0.7087554931640625
1740247370345489000,1.598489013671875,0.03875732421875,0.6817779541015625,0.4704437255859375
1740247370355469800,1.6084697265625,0.1732940673828125,0.8416290283203125,0.1605682373046875
1740247370365451500,1.618451416015625,0.2511138916015625,0.9742431640625,-0.18792724609375
1740247370375432700,1.6284326171875,0.2570037841796875,1.0428619384765625,-0.485595703125
1740247370385414700,1.63841455078125,0.2598724365234375,1.0814971923828125,-0.585693359375
1740247370395395800,1.648395751953125,0.1098175048828125,1.0714874267578125,-0.5340118408203125
1740247370405377500,1.65837744140625,-0.017486572265625,1.02679443359375,-0.268280029296875
1740247370415358700,1.668358642578125,0.0092315673828125,0.9703369140625,0.0298919677734375
1740247370425339600,1.678339599609375,-0.027740478515625,0.90411376953125,0.2816925048828125
1740247370435321600,1.688321533203125,-0.058837890625,0.829620361328125,0.5298309326171875
1740247370445302800,1.698302734375,-0.084075927734375,0.782928466796875,0.768310546875
1740247370455284500,1.708284423828125,-0.1165618896484375,0.7613525390625,1.001800537109375
1740247370465265700,1.718265625,-0.1563720703125,0.747467041015625,1.2091827392578125
1740247370475247600,1.72824755859375,-0.2029876708984375,0.7407073974609375,1.374359130859375
1740247370485228800,1.738228759765625,-0.2401275634765625,0.7675323486328125,1.528717041015625
1740247370495209700,1.748209716796875,-0.2679595947265625,0.79278564453125,1.6278839111328125
1740247370505191700,1.758191650390625,-0.2916717529296875,0.7760009765625,1.6303863525390625
1740247370515172600,1.768172607421875,-0.2825927734375,0.7310028076171875,1.538665771484375
1740247370525154600,1.778154541015625,-0.24969482421875,0.73504638671875,1.44354248046875
1740247370535135700,1.7881357421875,-0.2209014892578125,0.7563018798828125,1.3952789306640625
1740247370545117700,1.79811767578125,-0.2048492431640625,0.7685394287109375,1.38055419921875
1740247370555099000,1.808098876953125,-0.19775390625,0.783477783203125,1.3773651123046875
1740247370565080600,1.81808056640625,-0.210418701171875,0.7945556640625,1.3798828125
1740247370575061500,1.8280615234375,-0.25274658203125,0.7918548583984375,1.39892578125
1740247370585042700,1.838042724609375,-0.3029022216796875,0.7849884033203125,1.4206390380859375
1740247370595024600,1.848024658203125,-0.34442138671875,0.7668914794921875,1.4180450439453125
1740247370605005800,1.858005859375,-0.383453369140625,0.7473297119140625,1.413909912109375
1740247370614987500,1.867987548828125,-0.4089813232421875,0.73492431640625,1.41424560546875
1740247370624968700,1.87796875,-0.4177398681640625,0.7296600341796875,1.4156036376953125
1740247370634950700,1.88795068359375,-0.4205169677734375,0.7353363037109375,1.4316253662109375
1740247370644931600,1.897931640625,-0.4301910400390625,0.742828369140625,1.4561614990234375
1740247370654913500,1.90791357421875,-0.4443206787109375,0.744964599609375,1.5021820068359375
1740247370664894500,1.91789453125,-0.45440673828125,0.7372894287109375,1.5733795166015625
1740247370674875600,1.927875732421875,-0.4549713134765625,0.7272186279296875,1.66033935546875
1740247370684857600,1.937857666015625,-0.4389190673828125,0.721221923828125,1.764434814453125
1740247370694838800,1.9478388671875,-0.4128265380859375,0.7096710205078125,1.855133056640625
1740247370704821200,1.9578212890625,-0.39093017578125,0.6996612548828125,1.9420623779296875
1740247370714802200,1.96780224609375,-0.35443115234375,0.6735687255859375,2.018524169921875
1740247370724784400,1.977784423828125,-0.292266845703125,0.621795654296875,2.05450439453125
1740247370734765300,1.987765380859375,-0.235076904296875,0.5667724609375,2.058746337890625
1740247370744747500,1.99774755859375,-0.2061767578125,0.490142822265625,2.0407867431640625
1740247370754728200,2.007728271484375,-0.2047882080078125,0.4046783447265625,2.0191497802734375
1740247370764709000,2.017709228515625,-0.244537353515625,0.3317108154296875,2.0466461181640625
1740247370774691300,2.02769140625,-0.31402587890625,0.26263427734375,2.12982177734375
1740247370784672300,2.03767236328125,-0.370819091796875,0.190399169921875,2.2295379638671875
1740247370794654500,2.047654541015625,-0.4189910888671875,0.1233673095703125,2.32275390625
1740247370804635400,2.057635498046875,-0.448455810546875,0.0520172119140625,2.370758056640625
1740247370814617300,2.067617431640625,-0.44976806640625,-0.019317626953125,2.3688507080078125
1740247370824598300,2.077598388671875,-0.4253082275390625,-0.07989501953125,2.3192291259765625
1740247370834579200,2.0875791015625,-0.3850250244140625,-0.147216796875,2.26715087890625
1740247370844561400,2.0975615234375,-0.312347412109375,-0.217926025390625,2.228302001953125
1740247370854542300,2.107542236328125,-0.2191619873046875,-0.2634735107421875,2.169525146484375
1740247370864524300,2.117524169921875,-0.119293212890625,-0.28265380859375,2.1114044189453125
1740247370874505200,2.127505126953125,-0.028564453125,-0.27447509765625,2.050506591796875
1740247370884487400,2.1374873046875,0.0445404052734375,-0.263092041015625,1.985992431640625
1740247370894468400,2.14746826171875,0.0926971435546875,-0.2686920166015625,1.9394683837890625
1740247370904450300,2.1574501953125,0.108978271484375,-0.3091278076171875,1.8915863037109375
1740247370914431200,2.16743115234375,0.1133575439453125,-0.3715972900390625,1.7861175537109375
1740247370924412200,2.177412109375,0.108245849609375,-0.389801025390625,1.6419525146484375
1740247370934394400,2.187394287109375,0.1396484375,-0.4848785400390625,1.662078857421875
1740247370944375300,2.197375244140625,0.1214141845703125,-0.5296630859375,1.58245849609375
1740247370954357500,2.207357421875,0.1203460693359375,-0.4504852294921875,1.4716033935546875
1740247370964338200,2.217338134765625,0.1678009033203125,-0.324188232421875,1.499725341796875
1740247370974320400,2.2273203125,0.1341552734375,-0.1893768310546875,1.4680938720703125
1740247370984301300,2.23730126953125,0.0797882080078125,-0.0761871337890625,1.38848876953125
1740247370994283300,2.247283203125,-0.016571044921875,0.0344390869140625,1.325836181640625
1740247371004264400,2.257264404296875,-0.1488037109375,0.14666748046875,1.285186767578125
1740247371014245400,2.267245361328125,-0.2813262939453125,0.11529541015625,1.3600311279296875
1740247371024227300,2.277227294921875,-0.4447479248046875,0.037109375,1.42144775390625
1740247371034208300,2.287208251953125,-0.5801239013671875,0.0369873046875,1.4442138671875
1740247371044190500,2.2971904296875,-0.69000244140625,0.0567474365234375,1.5051422119140625
1740247371054171400,2.30717138671875,-0.770721435546875,0.0664520263671875,1.5830841064453125
1740247371064153000,2.317153076171875,-0.8019256591796875,0.126312255859375,1.6628875732421875
1740247371074134300,2.32713427734375,-0.751983642578125,0.186187744140625,1.7115936279296875
1740247371084116200,2.3371162109375,-0.6699676513671875,0.220672607421875,1.6968841552734375
1740247371094097400,2.347097412109375,-0.5833892822265625,0.2599334716796875,1.644439697265625
1740247371104078300,2.357078369140625,-0.5061798095703125,0.293792724609375,1.606658935546875
1740247371114060300,2.367060302734375,-0.444000244140625,0.316986083984375,1.5888519287109375
1740247371124041200,2.377041259765625,-0.405059814453125,0.34716796875,1.60302734375
1740247371134023200,2.387023193359375,-0.3804473876953125,0.394134521484375,1.646240234375
1740247371144004400,2.39700439453125,-0.350128173828125,0.432647705078125,1.6847076416015625
1740247371153986300,2.406986328125,-0.301177978515625,0.4649200439453125,1.6958770751953125
1740247371163967500,2.416967529296875,-0.2576446533203125,0.4932708740234375,1.6800537109375
1740247371173948200,2.4269482421875,-0.2269134521484375,0.524749755859375,1.6443023681640625
1740247371183930400,2.436930419921875,-0.2005157470703125,0.570037841796875,1.625
1740247371193911300,2.446911376953125,-0.2094879150390625,0.62847900390625,1.63067626953125
1740247371203893200,2.456893310546875,-0.21319580078125,0.6772308349609375,1.6442413330078125
1740247371213874400,2.46687451171875,-0.228118896484375,0.7034454345703125,1.647705078125
1740247371223856000,2.476856201171875,-0.2624053955078125,0.6937408447265625,1.588165283203125
1740247371233837300,2.48683740234375,-0.28851318359375,0.66021728515625,1.506317138671875
1740247371243819300,2.4968193359375,-0.300384521484375,0.64141845703125,1.434326171875
1740247371253800400,2.506800537109375,-0.31036376953125,0.6195220947265625,1.3477783203125
1740247371263781400,2.516781494140625,-0.3195037841796875,0.60791015625,1.30255126953125
1740247371273763000,2.52676318359375,-0.3103790283203125,0.6103057861328125,1.310791015625
1740247371283744300,2.536744140625,-0.2930755615234375,0.6198883056640625,1.3152008056640625
1740247371293726200,2.546726318359375,-0.2790985107421875,0.6268463134765625,1.2798919677734375
1740247371303707400,2.556707275390625,-0.26226806640625,0.62664794921875,1.21209716796875
1740247371313689300,2.566689453125,-0.234283447265625,0.6162872314453125,1.1165313720703125
1740247371323670300,2.576670166015625,-0.204620361328125,0.609100341796875,1.012420654296875
1740247371333652200,2.58665234375,-0.165679931640625,0.5975799560546875,0.910064697265625
1740247371343633200,2.596633056640625,-0.1144866943359375,0.5910797119140625,0.8180389404296875
1740247371353614300,2.6066142578125,-0.0500946044921875,0.594970703125,0.744415283203125
1740247371363596300,2.61659619140625,0.0346221923828125,0.6122589111328125,0.6890411376953125
1740247371373577500,2.626577392578125,0.1314544677734375,0.647979736328125,0.63848876953125
1740247371383559200,2.63655908203125,0.2362518310546875,0.66796875,0.5876007080078125
1740247371393540400,2.646540283203125,0.346588134765625,0.648956298828125,0.5252532958984375
1740247371403522300,2.656522216796875,0.4467926025390625,0.6099853515625,0.457550048828125
1740247371413503500,2.66650341796875,0.5014190673828125,0.5856170654296875,0.3644866943359375
1740247371423485200,2.676485107421875,0.480224609375,0.5764923095703125,0.2697906494140625
1740247371433466000,2.686466064453125,0.3717193603515625,0.574615478515625,0.19769287109375
1740247371443447300,2.696447265625,0.222259521484375,0.571075439453125,0.186004638671875
1740247371453429200,2.70642919921875,0.0655364990234375,0.58489990234375,0.2315521240234375
1740247371463410400,2.716410400390625,-0.0899200439453125,0.5849151611328125,0.3389129638671875
1740247371473392000,2.72639208984375,-0.215179443359375,0.592498779296875,0.4992218017578125
1740247371483373300,2.736373291015625,-0.2972564697265625,0.60321044921875,0.7017364501953125
1740247371493355300,2.746355224609375,-0.3696136474609375,0.5828094482421875,0.8561859130859375
1740247371503336200,2.756336181640625,-0.4481048583984375,0.5706634521484375,0.9561614990234375
1740247371513318400,2.766318359375,-0.5144805908203125,0.5813140869140625,1.027618408203125
1740247371523299300,2.77629931640625,-0.553436279296875,0.5924224853515625,1.055145263671875
1740247371533280300,2.7862802734375,-0.5627288818359375,0.5792999267578125,1.0453643798828125
1740247371543262200,2.79626220703125,-0.5390167236328125,0.5496826171875,1.0093841552734375
1740247371553243400,2.806243408203125,-0.4839324951171875,0.5152435302734375,0.9726104736328125
1740247371563225300,2.816225341796875,-0.4088134765625,0.4849090576171875,0.95550537109375
1740247371573206300,2.826206298828125,-0.325836181640625,0.4496612548828125,0.9503936767578125
1740247371583188200,2.836188232421875,-0.2461090087890625,0.4174957275390625,0.9317626953125
1740247371593169200,2.846169189453125,-0.183258056640625,0.40411376953125,0.9058685302734375
1740247371603151400,2.8561513671875,-0.1371612548828125,0.408721923828125,0.875457763671875
1740247371613132300,2.86613232421875,-0.103424072265625,0.421722412109375,0.8401641845703125
1740247371623113500,2.876113525390625,-0.0805511474609375,0.423004150390625,0.8144073486328125
1740247371633095200,2.88609521484375,-0.0731353759765625,0.40594482421875,0.8051605224609375
1740247371643076000,2.896076171875,-0.0797119140625,0.3863677978515625,0.810333251953125
1740247371653058300,2.906058349609375,-0.090850830078125,0.3886871337890625,0.843505859375
1740247371663039200,2.916039306640625,-0.105865478515625,0.4111328125,0.9021148681640625
1740247371673021400,2.926021484375,-0.118621826171875,0.4409942626953125,0.9716796875
1740247371683002000,2.936002197265625,-0.13690185546875,0.473419189453125,1.0577850341796875
1740247371692984300,2.945984375,-0.1654205322265625,0.4987030029296875,1.180633544921875
1740247371702965200,2.95596533203125,-0.190582275390625,0.508636474609375,1.3047943115234375
1740247371712946200,2.9659462890625,-0.2032623291015625,0.506011962890625,1.3900909423828125
1740247371722928000,2.97592822265625,-0.20086669921875,0.5125885009765625,1.4631195068359375
1740247371732909300,2.985909423828125,-0.1888275146484375,0.53485107421875,1.511993408203125
1740247371742891000,2.99589111328125,-0.193603515625,0.5717620849609375,1.570953369140625
1740247371752872000,3.005871826171875,-0.2108154296875,0.600616455078125,1.6810302734375
1740247371762854100,3.015854248046875,-0.221099853515625,0.592437744140625,1.7913818359375
1740247371772835000,3.0258349609375,-0.228271484375,0.5753173828125,1.8668060302734375
1740247371782817000,3.035817138671875,-0.255706787109375,0.585052490234375,1.9241180419921875
1740247371792798000,3.0457978515625,-0.3270416259765625,0.5992431640625,1.9928436279296875
1740247371802779100,3.055779052734375,-0.439117431640625,0.5709991455078125,2.1198883056640625
1740247371812761000,3.065760986328125,-0.554840087890625,0.4880218505859375,2.3393707275390625
1740247371822742000,3.075741943359375,-0.65972900390625,0.317291259765625,2.570587158203125
1740247371832724000,3.085723876953125,-0.7475128173828125,0.0749664306640625,2.7034454345703125
1740247371842705000,3.095704833984375,-0.8173828125,-0.18780517578125,2.70166015625
1740247371852687000,3.10568701171875,-0.87738037109375,-0.4240875244140625,2.5944976806640625
1740247371862668000,3.11566796875,-0.94403076171875,-0.591094970703125,2.525390625
1740247371872650200,3.125650146484375,-0.93365478515625,-0.6474761962890625,2.5623321533203125
1740247371882631200,3.135631103515625,-0.7861328125,-0.582122802734375,2.542205810546875
1740247371892612000,3.145612060546875,-0.5590362548828125,-0.4353790283203125,2.4097900390625
1740247371902594000,3.155593994140625,-0.3313446044921875,-0.3273468017578125,2.1787261962890625
1740247371912575000,3.165574951171875,-0.145355224609375,-0.30474853515625,1.897125244140625
1740247371922557200,3.17555712890625,0.0149688720703125,-0.3448638916015625,1.641754150390625
1740247371932538000,3.1855380859375,0.15777587890625,-0.37115478515625,1.4362945556640625
1740247371942520000,3.19552001953125,0.2635040283203125,-0.3412322998046875,1.2833709716796875
1740247371952501000,3.2055009765625,0.33160400390625,-0.282470703125,1.1828765869140625
1740247371962483200,3.215483154296875,0.364776611328125,-0.230072021484375,1.125701904296875
1740247371972464000,3.225464111328125,0.3497467041015625,-0.194732666015625,1.1145477294921875
1740247371982445000,3.235445068359375,0.302520751953125,-0.1948089599609375,1.177886962890625
1740247371992427000,3.245427001953125,0.2655487060546875,-0.19647216796875,1.281280517578125
1740247372002408000,3.255407958984375,0.253570556640625,-0.166473388671875,1.392852783203125
1740247372012390100,3.26539013671875,0.276580810546875,-0.1276092529296875,1.4751739501953125
1740247372022371000,3.27537109375,0.3058319091796875,-0.08038330078125,1.479217529296875
1740247372032353300,3.285353271484375,0.2846221923828125,-0.0203704833984375,1.4146881103515625
1740247372042334000,3.295333984375,0.225189208984375,0.03228759765625,1.3568267822265625
1740247372052316200,3.305316162109375,0.156982421875,0.0626220703125,1.371673583984375
1740247372062297000,3.315297119140625,0.0772705078125,0.0858306884765625,1.415557861328125
1740247372072278000,3.325278076171875,-0.011077880859375,0.105316162109375,1.5105743408203125
1740247372082260200,3.33526025390625,-0.1083221435546875,0.112335205078125,1.675079345703125
1740247372092241200,3.3452412109375,-0.201263427734375,0.0998077392578125,1.7854461669921875
1740247372102223000,3.35522314453125,-0.2658233642578125,0.109710693359375,1.795562744140625
1740247372112204000,3.3652041015625,-0.2616424560546875,0.1780548095703125,1.7313232421875
1740247372122186200,3.375186279296875,-0.172821044921875,0.28948974609375,1.6287689208984375
1740247372132167200,3.385167236328125,-0.074462890625,0.382415771484375,1.5004425048828125
1740247372142148900,3.39514892578125,-0.02142333984375,0.4248809814453125,1.370880126953125
1740247372152130000,3.405130126953125,0.0000762939453125,0.429229736328125,1.2728271484375
1740247372162111000,3.415111083984375,0.01019287109375,0.4297332763671875,1.2444305419921875
1740247372172093200,3.42509326171875,0.0171661376953125,0.441802978515625,1.2642974853515625
1740247372182074000,3.43507421875,0.0209197998046875,0.464141845703125,1.2987060546875
1740247372192056000,3.44505615234375,0.0249176025390625,0.4854888916015625,1.3406524658203125
1740247372202037000,3.455037109375,0.0276336669921875,0.5083465576171875,1.3838043212890625
1740247372212019000,3.46501904296875,0.028167724609375,0.5356597900390625,1.4118194580078125
1740247372222000000,3.475000244140625,0.0337677001953125,0.55731201171875,1.4122161865234375
1740247372231982000,3.484982177734375,0.0417022705078125,0.5812225341796875,1.40753173828125
1740247372241963300,3.49496337890625,0.0377197265625,0.609039306640625,1.419189453125
1740247372251945000,3.504945068359375,0.03851318359375,0.6360626220703125,1.4552764892578125
1740247372261926100,3.514926025390625,0.0561676025390625,0.6663360595703125,1.4963531494140625
1740247372271907000,3.524906982421875,0.08209228515625,0.6868743896484375,1.503082275390625
1740247372281889300,3.53488916015625,0.099761962890625,0.6918487548828125,1.4781646728515625
1740247372291870200,3.5448701171875,0.10369873046875,0.695465087890625,1.4345550537109375
1740247372301852000,3.554851806640625,0.0887451171875,0.70111083984375,1.3764190673828125
1740247372311833000,3.5648330078125,0.061309814453125,0.710784912109375,1.302703857421875
1740247372321815000,3.57481494140625,0.03759765625,0.71697998046875,1.2236175537109375
1740247372331796200,3.584796142578125,0.015838623046875,0.7149810791015625,1.148834228515625
1740247372341778000,3.59477783203125,0.0078887939453125,0.707763671875,1.0639495849609375
1740247372351759000,3.604759033203125,0.0204925537109375,0.7154388427734375,0.986297607421875
1740247372361740000,3.614739990234375,0.0482940673828125,0.7540740966796875,0.9213409423828125
1740247372371722000,3.624721923828125,0.07550048828125,0.811798095703125,0.86126708984375
1740247372381703200,3.634703125,0.0863037109375,0.8521881103515625,0.7879180908203125
1740247372391685000,3.64468505859375,0.070648193359375,0.8436431884765625,0.6817169189453125
1740247372401666000,3.654666015625,0.03729248046875,0.791717529296875,0.567169189453125
1740247372411648000,3.66464794921875,-0.0037841796875,0.73040771484375,0.47381591796875
1740247372421629200,3.674629150390625,-0.0511016845703125,0.6720123291015625,0.4100799560546875
1740247372431611100,3.684611083984375,-0.096588134765625,0.62921142578125,0.3891754150390625
1740247372441592000,3.694592041015625,-0.13482666015625,0.605743408203125,0.404693603515625
1740247372451574000,3.704573974609375,-0.149810791015625,0.59619140625,0.4641265869140625
1740247372461555000,3.714554931640625,-0.134490966796875,0.6116485595703125,0.5543212890625
1740247372471536000,3.7245361328125,-0.1067047119140625,0.64935302734375,0.6417388916015625
1740247372481518000,3.73451806640625,-0.0908203125,0.6816253662109375,0.715728759765625
1740247372491499300,3.744499267578125,-0.1065521240234375,0.6925048828125,0.82952880859375
1740247372501481000,3.75448095703125,-0.1441192626953125,0.6936798095703125,0.9918365478515625
1740247372511462000,3.7644619140625,-0.176788330078125,0.6396942138671875,1.134857177734375
1740247372521444000,3.774444091796875,-0.1751251220703125,0.5348358154296875,1.1901702880859375
1740247372531425000,3.784425048828125,-0.1311798095703125,0.4449920654296875,1.149505615234375
1740247372541407200,3.7944072265625,-0.0426788330078125,0.3728485107421875,1.0704498291015625
1740247372551388000,3.804387939453125,0.0458221435546875,0.3377532958984375,0.9650726318359375
1740247372561369000,3.814369140625,0.1179962158203125,0.343475341796875,0.846435546875
1740247372571351000,3.82435107421875,0.1795654296875,0.366485595703125,0.7806854248046875
1740247372581332000,3.83433203125,0.2054901123046875,0.38140869140625,0.7552032470703125
1740247372591314200,3.844314208984375,0.1730804443359375,0.376922607421875,0.721954345703125
1740247372601295000,3.854295166015625,0.105194091796875,0.3726043701171875,0.710845947265625
1740247372611278000,3.864278076171875,0.0267486572265625,0.3823089599609375,0.722076416015625
1740247372621259000,3.874259033203125,-0.051422119140625,0.386627197265625,0.7537689208984375
1740247372631241000,3.884240966796875,-0.1096649169921875,0.386016845703125,0.779998779296875
1740247372641222000,3.894221923828125,-0.1361083984375,0.39068603515625,0.79296875
1740247372651203000,3.904203125,-0.150238037109375,0.407470703125,0.81695556640625
1740247372661185000,3.91418505859375,-0.161834716796875,0.4366607666015625,0.8628692626953125
1740247372671166200,3.924166259765625,-0.1807708740234375,0.4607391357421875,0.9329376220703125
1740247372681148200,3.934148193359375,-0.2183837890625,0.4870758056640625,1.0201568603515625
1740247372691129000,3.944129150390625,-0.272918701171875,0.5148773193359375,1.094573974609375
1740247372701111000,3.954111083984375,-0.3289947509765625,0.521209716796875,1.1677703857421875
1740247372711093200,3.96409326171875,-0.3630523681640625,0.5258026123046875,1.2668304443359375
1740247372721075000,3.974074951171875,-0.3773193359375,0.53851318359375,1.376556396484375
1740247372731055900,3.984055908203125,-0.39056396484375,0.5386810302734375,1.4825439453125
1740247372741038000,3.9940380859375,-0.3963623046875,0.5305023193359375,1.58538818359375
1740247372751019000,4.00401904296875,-0.3968505859375,0.5149993896484375,1.7043914794921875
1740247372761000200,4.014000244140625,-0.404876708984375,0.4803009033203125,1.8348541259765625
1740247372770982100,4.023982177734375,-0.405029296875,0.4307098388671875,1.95428466796875
1740247372780963000,4.033963134765625,-0.399932861328125,0.379638671875,2.0542449951171875
1740247372790945000,4.043945068359375,-0.4033660888671875,0.318267822265625,2.1467132568359375
1740247372800926000,4.053926025390625,-0.405517578125,0.2441253662109375,2.2313232421875
1740247372810908200,4.063908203125,-0.4068450927734375,0.1519622802734375,2.317779541015625
1740247372820889000,4.07388916015625,-0.4032135009765625,-0.00762939453125,2.4404296875
1740247372830871000,4.08387109375,-0.3863372802734375,-0.2213897705078125,2.5736236572265625
1740247372840852000,4.09385205078125,-0.2978515625,-0.417449951171875,2.638671875
1740247372850833200,4.103833251953125,-0.18756103515625,-0.5846405029296875,2.5892791748046875
1740247372860815000,4.113815185546875,-0.1028594970703125,-0.7070770263671875,2.4266510009765625
1740247372870796300,4.12379638671875,-0.03289794921875,-0.7191314697265625,2.2250823974609375
1740247372880778000,4.133778076171875,0.0393524169921875,-0.6086273193359375,2.077484130859375
1740247372890759000,4.143759033203125,0.077911376953125,-0.4625244140625,1.987548828125
1740247372900741000,4.1537412109375,0.0551300048828125,-0.3579254150390625,1.9066925048828125
1740247372910722000,4.16372216796875,-0.015777587890625,-0.3040924072265625,1.8472900390625
1740247372920704000,4.1737041015625,-0.08209228515625,-0.286834716796875,1.7497406005859375
1740247372930685000,4.183684814453125,-0.1204986572265625,-0.288238525390625,1.5910491943359375
1740247372940667100,4.193667236328125,-0.1214447021484375,-0.26904296875,1.460205078125
1740247372950648000,4.20364794921875,-0.12213134765625,-0.2294921875,1.3779296875
1740247372960629000,4.21362890625,-0.12347412109375,-0.2017059326171875,1.3415985107421875
1740247372970611200,4.223611083984375,-0.1292266845703125,-0.1730499267578125,1.335784912109375
1740247372980591000,4.233591064453125,-0.1472320556640625,-0.1272125244140625,1.3638458251953125
1740247372990573000,4.243572998046875,-0.16534423828125,-0.0616607666015625,1.4326934814453125
1740247373000554000,4.253553955078125,-0.17608642578125,0.0115814208984375,1.5152435302734375
1740247373010536200,4.2635361328125,-0.166839599609375,0.083343505859375,1.5807342529296875
1740247373020517000,4.27351708984375,-0.15606689453125,0.1449737548828125,1.6409912109375
1740247373030499000,4.2834990234375,-0.1497039794921875,0.1953277587890625,1.6794586181640625
1740247373040480300,4.293480224609375,-0.131103515625,0.2347564697265625,1.685089111328125
1740247373050461000,4.3034609375,-0.1207427978515625,0.2586669921875,1.668548583984375
1740247373060443100,4.313443115234375,-0.124176025390625,0.271331787109375,1.646331787109375
1740247373070424000,4.323424072265625,-0.1341552734375,0.2796478271484375,1.6287078857421875
1740247373080406300,4.33340625,-0.1389923095703125,0.297119140625,1.62408447265625
1740247373090387200,4.34338720703125,-0.1383056640625,0.322418212890625,1.6072540283203125
1740247373100369000,4.353368896484375,-0.1358795166015625,0.337554931640625,1.5731353759765625
1740247373110350000,4.36335009765625,-0.127227783203125,0.346649169921875,1.548126220703125
1740247373120332000,4.37333203125,-0.108123779296875,0.3662567138671875,1.532958984375
1740247373130313200,4.383313232421875,-0.0896148681640625,0.382720947265625,1.5038604736328125
1740247373140295000,4.393294921875,-0.056671142578125,0.394683837890625,1.462005615234375
1740247373150276000,4.403276123046875,-0.0165557861328125,0.401885986328125,1.408905029296875
1740247373160258000,4.413258056640625,0.010772705078125,0.407745361328125,1.3661346435546875
1740247373170239000,4.423239013671875,0.0211639404296875,0.4199371337890625,1.3573760986328125
1740247373180220200,4.43322021484375,0.027862548828125,0.434844970703125,1.3617706298828125
1740247373190202000,4.4432021484375,0.0349273681640625,0.448577880859375,1.359527587890625
1740247373200183000,4.45318310546875,0.0341949462890625,0.4621124267578125,1.3778076171875
1740247373210165000,4.4631650390625,0.022125244140625,0.481353759765625,1.4058837890625
1740247373220146200,4.473146240234375,0.011383056640625,0.502197265625,1.4217987060546875
1740247373230128000,4.483128173828125,0.003448486328125,0.5259552001953125,1.419281005859375
1740247373240109000,4.493109130859375,-0.0050811767578125,0.5490570068359375,1.4104156494140625
1740247373250091000,4.503091064453125,-0.0037078857421875,0.569427490234375,1.4057769775390625
1740247373260072000,4.513072021484375,0.00286865234375,0.5849456787109375,1.3941802978515625
1740247373270054100,4.52305419921875,0.0144805908203125,0.5939483642578125,1.373565673828125
1740247373280035000,4.53303515625,0.029083251953125,0.5987701416015625,1.34625244140625
1740247373290016300,4.543016357421875,0.0450439453125,0.5917510986328125,1.2952728271484375
1740247373299998000,4.552998046875,0.0615234375,0.5710296630859375,1.2291259765625
1740247373309979100,4.562979248046875,0.07476806640625,0.554962158203125,1.1683349609375
1740247373319961000,4.572961181640625,0.0748138427734375,0.5470733642578125,1.140716552734375
1740247373329942000,4.58294189453125,0.0605010986328125,0.54058837890625,1.15625
1740247373339924200,4.59292431640625,0.0526580810546875,0.53399658203125,1.1563720703125
1740247373349905000,4.60290478515625,0.048919677734375,0.529815673828125,1.1311492919921875
1740247373359887000,4.61288720703125,0.04608154296875,0.53094482421875,1.0877227783203125
1740247373369868000,4.622867919921875,0.0572662353515625,0.5374603271484375,1.0260162353515625
1740247373379850200,4.632850341796875,0.0738067626953125,0.55865478515625,0.965118408203125
1740247373389831200,4.6428310546875,0.083648681640625,0.58953857421875,0.9008941650390625
1740247373399812000,4.65281201171875,0.0718536376953125,0.6087493896484375,0.840179443359375
1740247373409794000,4.6627939453125,0.045379638671875,0.6049957275390625,0.781463623046875
1740247373419775000,4.67277490234375,0.0136566162109375,0.5882720947265625,0.7243499755859375
1740247373429757200,4.682757080078125,-0.023162841796875,0.560791015625,0.6593475341796875
1740247373439738000,4.692738037109375,-0.058685302734375,0.5248870849609375,0.5974273681640625
1740247373449720000,4.702719970703125,-0.0847015380859375,0.4813690185546875,0.542938232421875
1740247373459701000,4.712700927734375,-0.091156005859375,0.4336700439453125,0.5079498291015625
1740247373469683200,4.72268310546875,-0.0738677978515625,0.3957061767578125,0.4783935546875
1740247373479664000,4.7326640625,-0.0392303466796875,0.372467041015625,0.465576171875
1740247373489646000,4.74264599609375,0.0030517578125,0.3694915771484375,0.47845458984375
1740247373499627000,4.752626953125,0.0484466552734375,0.386993408203125,0.5040283203125
1740247373509608000,4.76260791015625,0.0839691162109375,0.4093475341796875,0.5185699462890625
1740247373519590100,4.772590087890625,0.1109161376953125,0.4163818359375,0.525421142578125
1740247373529571000,4.782571044921875,0.1459197998046875,0.40911865234375,0.5485687255859375
1740247373539553300,4.79255322265625,0.1905059814453125,0.4150390625,0.590606689453125
1740247373549534200,4.8025341796875,0.2349700927734375,0.437744140625,0.6392669677734375
1740247373559516200,4.81251611328125,0.274169921875,0.45611572265625,0.6771087646484375
1740247373569497000,4.8224970703125,0.3051910400390625,0.455780029296875,0.6927947998046875
1740247373579479000,4.83247900390625,0.325103759765625,0.435394287109375,0.688018798828125
1740247373589460200,4.842460205078125,0.330230712890625,0.4101104736328125,0.681121826171875
1740247373599442000,4.85244189453125,0.328704833984375,0.395904541015625,0.683868408203125
1740247373609423000,4.862423095703125,0.329345703125,0.3976593017578125,0.6912841796875
1740247373619404000,4.872404052734375,0.31781005859375,0.4231719970703125,0.705352783203125
1740247373629386200,4.88238623046875,0.2807159423828125,0.472625732421875,0.73663330078125
1740247373639367200,4.8923671875,0.2298583984375,0.53607177734375,0.7748260498046875
1740247373649348900,4.902348876953125,0.16455078125,0.58929443359375,0.8273162841796875
1740247373659330000,4.912330078125,0.10272216796875,0.6280517578125,0.873077392578125
1740247373669312000,4.92231201171875,0.0571441650390625,0.6481475830078125,0.917877197265625
1740247373679293200,4.932293212890625,0.027099609375,0.6605987548828125,0.97906494140625
1740247373689275100,4.942275146484375,0.0092315673828125,0.6690216064453125,1.0486602783203125
1740247373699256000,4.952256103515625,0.0101470947265625,0.67279052734375,1.1147003173828125
1740247373709236700,4.96223681640625,0.027435302734375,0.67724609375,1.17950439453125
1740247373719217700,4.9722177734375,0.0577850341796875,0.6802520751953125,1.243194580078125
1740247373729198600,4.982198486328125,0.0997161865234375,0.6950531005859375,1.3190765380859375
1740247373739180800,4.992180908203125,0.139923095703125,0.717864990234375,1.4079132080078125
1740247373749161700,5.00216162109375,0.1809539794921875,0.7472076416015625,1.5214385986328125
1740247373759144000,5.01214404296875,0.2187652587890625,0.7940673828125,1.658447265625
1740247373769124900,5.022124755859375,0.2393646240234375,0.8477325439453125,1.76849365234375
1740247373779106600,5.0321064453125,0.2486724853515625,0.889984130859375,1.8423309326171875
1740247373789087700,5.042087646484375,0.256988525390625,0.9122314453125,1.902679443359375
1740247373799069700,5.052069580078125,0.2707977294921875,0.9077606201171875,1.960205078125
1740247373809051000,5.06205078125,0.275604248046875,0.8964691162109375,1.993560791015625
1740247373819032600,5.072032470703125,0.2780303955078125,0.893463134765625,2.0401611328125
1740247373829013800,5.082013671875,0.2656097412109375,0.89227294921875,2.1335906982421875
1740247373838995700,5.09199560546875,0.2251739501953125,0.8685455322265625,2.248779296875
1740247373848976600,5.1019765625,0.1708984375,0.7858428955078125,2.350555419921875
1740247373858957800,5.111957763671875,0.12298583984375,0.621490478515625,2.419647216796875
1740247373868939500,5.121939453125,0.105804443359375,0.41253662109375,2.464202880859375
1740247373878920700,5.131920654296875,0.1325836181640625,0.2155303955078125,2.53656005859375
1740247373888902700,5.141902587890625,0.206207275390625,0.1157684326171875,2.5864715576171875
1740247373898883800,5.1518837890625,0.3124847412109375,0.12322998046875,2.5940399169921875
1740247373908865800,5.16186572265625,0.41937255859375,0.184356689453125,2.523651123046875
1740247373918846700,5.1718466796875,0.491363525390625,0.2481231689453125,2.3843994140625
1740247373928828700,5.18182861328125,0.5242462158203125,0.310211181640625,2.1862030029296875
1740247373938809600,5.1918095703125,0.51141357421875,0.3632965087890625,1.9572296142578125
1740247373948791800,5.201791748046875,0.49139404296875,0.3744049072265625,1.7358856201171875
1740247373958772700,5.211772705078125,0.48834228515625,0.35296630859375,1.5434722900390625
1740247373968754000,5.22175390625,0.4959716796875,0.316864013671875,1.4019622802734375
1740247373978735600,5.231735595703125,0.4914093017578125,0.265869140625,1.315155029296875
1740247373988716500,5.241716552734375,0.4741973876953125,0.2111663818359375,1.2602996826171875
1740247373998698800,5.25169873046875,0.4576568603515625,0.1688995361328125,1.238311767578125
1740247374008679700,5.2616796875,0.4253997802734375,0.1542816162109375,1.2239837646484375
1740247374018661600,5.27166162109375,0.3759613037109375,0.1543731689453125,1.21942138671875
1740247374028642600,5.281642578125,0.3023223876953125,0.1623992919921875,1.2429046630859375
1740247374038624800,5.291624755859375,0.2214202880859375,0.1838836669921875,1.2806243896484375
1740247374048605700,5.301605712890625,0.188995361328125,0.2164459228515625,1.3295440673828125
1740247374058588000,5.311587890625,0.191497802734375,0.2505340576171875,1.36224365234375
1740247374068568800,5.32156884765625,0.1936492919921875,0.266693115234375,1.370574951171875
1740247374078550800,5.33155078125,0.1898345947265625,0.2722320556640625,1.364349365234375
1740247374088531700,5.34153173828125,0.1905364990234375,0.2891082763671875,1.3023223876953125
1740247374098512600,5.3515126953125,0.1897430419921875,0.33148193359375,1.217254638671875
1740247374108494800,5.361494873046875,0.2095184326171875,0.405853271484375,1.143035888671875
1740247374118475800,5.371475830078125,0.2409515380859375,0.4990386962890625,1.0960693359375
1740247374128457700,5.381457763671875,0.3011932373046875,0.607025146484375,1.0784454345703125
1740247374138438700,5.391438720703125,0.3761138916015625,0.701263427734375,1.053009033203125
1740247374148420900,5.4014208984375,0.4539947509765625,0.771881103515625,1.0266265869140625
1740247374158401800,5.41140185546875,0.4882965087890625,0.859893798828125,0.93310546875
1740247374168383500,5.421383544921875,0.5134735107421875,0.8470916748046875,0.8763427734375
1740247374178364700,5.43136474609375,0.4931182861328125,0.8017578125,0.81170654296875
1740247374188346600,5.4413466796875,0.45306396484375,0.8390655517578125,0.8199615478515625
1740247374198327800,5.451327880859375,0.3721923828125,0.862396240234375,0.948760986328125
1740247374208308700,5.461308837890625,0.2761383056640625,0.851806640625,1.108551025390625
1740247374218290700,5.471290771484375,0.230865478515625,0.842010498046875,1.2401885986328125
1740247374228271600,5.481271728515625,0.2245941162109375,0.8819122314453125,1.369720458984375
1740247374238253600,5.491253662109375,0.22918701171875,0.9301300048828125,1.459320068359375
1740247374248234800,5.50123486328125,0.2202301025390625,0.9540863037109375,1.499359130859375
1740247374258216700,5.511216796875,0.1851806640625,0.971099853515625,1.5192108154296875
1740247374268198000,5.521197998046875,0.141021728515625,0.984466552734375,1.54083251953125
1740247374278179600,5.5311796875,0.1145782470703125,0.990081787109375,1.5414276123046875
1740247374288160800,5.541160888671875,0.117828369140625,1.0057373046875,1.521026611328125
1740247374298142700,5.551142822265625,0.14447021484375,1.037750244140625,1.4920501708984375
1740247374308124000,5.5611240234375,0.1673431396484375,1.0668487548828125,1.445098876953125
1740247374318105600,5.571105712890625,0.182525634765625,1.0752410888671875,1.3851318359375
1740247374328086500,5.58108642578125,0.202972412109375,1.1245269775390625,1.374603271484375
1740247374338067700,5.591067626953125,0.216522216796875,1.2318572998046875,1.4163665771484375
1740247374348049700,5.601049560546875,0.188812255859375,1.3356475830078125,1.414215087890625
1740247374358030800,5.61103076171875,0.1257781982421875,1.3622894287109375,1.30792236328125
1740247374368012500,5.621012451171875,0.0503387451171875,1.3265228271484375,1.1345977783203125
1740247374377993700,5.63099365234375,-0.026214599609375,1.254547119140625,0.9626922607421875
1740247374387975700,5.6409755859375,-0.0938262939453125,1.17352294921875,0.832763671875
1740247374397956600,5.65095654296875,-0.1317138671875,1.111907958984375,0.76092529296875
1740247374407938800,5.660938720703125,-0.1610260009765625,1.0626678466796875,0.7296142578125
1740247374417919700,5.670919677734375,-0.1844024658203125,0.99957275390625,0.6870880126953125
1740247374427901700,5.680901611328125,-0.205047607421875,0.9127197265625,0.6339569091796875
1740247374437882600,5.690882568359375,-0.216796875,0.8141021728515625,0.58856201171875
1740247374447864800,5.70086474609375,-0.2167510986328125,0.7382659912109375,0.553680419921875
1740247374457845800,5.710845703125,-0.218475341796875,0.670013427734375,0.517364501953125
1740247374467826700,5.72082666015625,-0.2032318115234375,0.6190032958984375,0.4906768798828125
1740247374477808600,5.73080859375,-0.1773529052734375,0.585693359375,0.4760589599609375
1740247374487789600,5.74078955078125,-0.1611785888671875,0.5583648681640625,0.4562835693359375
1740247374497771800,5.750771728515625,-0.1268768310546875,0.54656982421875,0.4638519287109375
1740247374507752700,5.760752685546875,-0.084564208984375,0.5530548095703125,0.4868316650390625
1740247374517734700,5.770734619140625,-0.0298309326171875,0.561553955078125,0.509246826171875
1740247374527715600,5.780715576171875,0.0268402099609375,0.567230224609375,0.5233306884765625
1740247374537697800,5.79069775390625,0.0841827392578125,0.5628204345703125,0.5060882568359375
1740247374547678700,5.8006787109375,0.13958740234375,0.55316162109375,0.47802734375
1740247374557661000,5.810660888671875,0.1866302490234375,0.5680694580078125,0.47369384765625
1740247374567641900,5.820641845703125,0.2265472412109375,0.624359130859375,0.505889892578125
1740247374577623600,5.83062353515625,0.252288818359375,0.6943817138671875,0.552154541015625
1740247374587604700,5.840604736328125,0.260528564453125,0.73577880859375,0.575469970703125
1740247374597585700,5.850585693359375,0.26702880859375,0.72833251953125,0.560943603515625
1740247374607568000,5.86056787109375,0.2740936279296875,0.7039642333984375,0.5587921142578125
1740247374617548800,5.870548828125,0.286224365234375,0.6962890625,0.5451202392578125
1740247374627530800,5.88053076171875,0.2936859130859375,0.721832275390625,0.51025390625
1740247374637511700,5.89051171875,0.2868804931640625,0.76361083984375,0.467498779296875
1740247374647493600,5.90049365234375,0.256134033203125,0.8065338134765625,0.43768310546875
1740247374657474800,5.910474853515625,0.2054901123046875,0.8470611572265625,0.4456787109375
1740247374667456500,5.92045654296875,0.145355224609375,0.8857421875,0.49383544921875
1740247374677437700,5.930437744140625,0.0949249267578125,0.93487548828125,0.599517822265625
1740247374687419600,5.940419677734375,0.057342529296875,0.9830169677734375,0.76708984375
1740247374697400800,5.95040087890625,0.03826904296875,0.99822998046875,0.9724884033203125
1740247374707382800,5.9603828125,0.0539703369140625,0.9906768798828125,1.213714599609375
1740247374717363700,5.97036376953125,0.0790252685546875,0.9612884521484375,1.454071044921875
1740247374727345700,5.980345703125,0.1043701171875,0.9290618896484375,1.6440582275390625
1740247374737326800,5.990326904296875,0.13055419921875,0.8858184814453125,1.7514801025390625
1740247374747307800,6.000307861328125,0.1261138916015625,0.821990966796875,1.789703369140625
1740247374757290000,6.0102900390625,0.1133270263671875,0.759124755859375,1.785919189453125
1740247374767271000,6.02027099609375,0.130615234375,0.7331695556640625,1.802734375
1740247374777252900,6.0302529296875,0.17230224609375,0.736724853515625,1.823822021484375
1740247374787233800,6.04023388671875,0.2352142333984375,0.731964111328125,1.8206329345703125
1740247374797215700,6.0502158203125,0.2921600341796875,0.711273193359375,1.7786865234375
1740247374807197000,6.060197021484375,0.342620849609375,0.675323486328125,1.746795654296875
1740247374817178600,6.0701787109375,0.3855438232421875,0.6410980224609375,1.7413787841796875
1740247374827159800,6.080159912109375,0.417999267578125,0.61187744140625,1.7465057373046875
1740247374837141800,6.090141845703125,0.452301025390625,0.583343505859375,1.76312255859375
1740247374847123000,6.100123046875,0.4899444580078125,0.5548095703125,1.7904205322265625
1740247374857105000,6.11010498046875,0.5326995849609375,0.5452728271484375,1.8195037841796875
1740247374867085600,6.12008544921875,0.56707763671875,0.5478057861328125,1.81646728515625
1740247374877066800,6.130066650390625,0.588653564453125,0.544189453125,1.7679443359375
1740247374887048700,6.140048583984375,0.5887298583984375,0.5313262939453125,1.68280029296875
1740247374897030000,6.15002978515625,0.5982818603515625,0.5416107177734375,1.646148681640625
1740247374907011800,6.16001171875,0.6025390625,0.5469207763671875,1.61309814453125
1740247374916993000,6.169992919921875,0.6008453369140625,0.5515289306640625,1.5914459228515625
1740247374926974700,6.179974609375,0.6007537841796875,0.560577392578125,1.593780517578125
1740247374936955600,6.18995556640625,0.6071319580078125,0.5601348876953125,1.6038360595703125
1740247374946937900,6.199937744140625,0.6163482666015625,0.53460693359375,1.601715087890625
1740247374956918800,6.209918701171875,0.62860107421875,0.4937896728515625,1.59173583984375
1740247374966900700,6.219900634765625,0.6236419677734375,0.44683837890625,1.567596435546875
1740247374976881700,6.229881591796875,0.6140594482421875,0.3867034912109375,1.5219879150390625
1740247374986863900,6.23986376953125,0.6046142578125,0.30950927734375,1.45086669921875
1740247374996844800,6.2498447265625,0.5970611572265625,0.2424774169921875,1.379913330078125
1740247375006826800,6.25982666015625,0.58673095703125,0.2083740234375,1.313873291015625
1740247375016807700,6.2698076171875,0.5664520263671875,0.20562744140625,1.2769012451171875
1740247375026788600,6.27978857421875,0.5450897216796875,0.2396697998046875,1.27752685546875
1740247375036770800,6.289770751953125,0.534759521484375,0.300140380859375,1.30535888671875
1740247375046751700,6.299751708984375,0.525726318359375,0.3712005615234375,1.336700439453125
1740247375056734000,6.30973388671875,0.508575439453125,0.4386138916015625,1.35662841796875
1740247375066715000,6.31971484375,0.4735260009765625,0.495941162109375,1.3551177978515625
1740247375076696800,6.32969677734375,0.4221343994140625,0.534820556640625,1.336181640625
1740247375086677800,6.339677734375,0.367523193359375,0.5526885986328125,1.3159332275390625
1740247375096660000,6.349659912109375,0.318756103515625,0.564117431640625,1.298980712890625
1740247375106641000,6.359640869140625,0.276397705078125,0.5704345703125,1.28814697265625
1740247375116622600,6.36962255859375,0.23358154296875,0.56793212890625,1.2909393310546875
1740247375126603800,6.379603759765625,0.1993865966796875,0.5706787109375,1.3056640625
1740247375136585700,6.389585693359375,0.167144775390625,0.5781097412109375,1.3258514404296875
1740247375146567000,6.39956689453125,0.1429443359375,0.58697509765625,1.3455657958984375
1740247375156548900,6.409548828125,0.126708984375,0.5971221923828125,1.3704986572265625
1740247375166529800,6.41952978515625,0.1204986572265625,0.60986328125,1.3896636962890625
1740247375176510700,6.4295107421875,0.12481689453125,0.6233367919921875,1.3831634521484375
1740247375186492700,6.43949267578125,0.1275634765625,0.63043212890625,1.3581695556640625
1740247375196473900,6.449473876953125,0.1259307861328125,0.638336181640625,1.3311767578125
1740247375206455800,6.459455810546875,0.1254730224609375,0.656341552734375,1.3160400390625
1740247375216436700,6.469436767578125,0.1280670166015625,0.6837615966796875,1.295440673828125
1740247375226418700,6.479418701171875,0.1333160400390625,0.71282958984375,1.2738800048828125
1740247375236399900,6.48939990234375,0.1415863037109375,0.7490081787109375,1.263214111328125
1740247375246381800,6.4993818359375,0.1540985107421875,0.7840118408203125,1.2549285888671875
1740247375256362800,6.50936279296875,0.1679229736328125,0.8149871826171875,1.242095947265625
1740247375266344700,6.5193447265625,0.178375244140625,0.844482421875,1.225128173828125
1740247375276325600,6.52932568359375,0.1855926513671875,0.8729705810546875,1.2227935791015625
1740247375286307800,6.539307861328125,0.19647216796875,0.9194793701171875,1.2403564453125
1740247375296288800,6.549288818359375,0.1999053955078125,0.9783935546875,1.2598114013671875
1740247375306270700,6.559270751953125,0.1892242431640625,1.0268402099609375,1.270751953125
1740247375316251600,6.569251708984375,0.17120361328125,1.04644775390625,1.251251220703125
1740247375326232800,6.57923291015625,0.141204833984375,1.0378570556640625,1.203857421875
1740247375336214800,6.58921484375,0.1170806884765625,1.0268707275390625,1.1817779541015625
1740247375346195700,6.59919580078125,0.0938568115234375,1.034454345703125,1.1838226318359375
1740247375356178000,6.609177978515625,0.0791473388671875,1.0597381591796875,1.199920654296875
1740247375366158800,6.619158935546875,0.065673828125,1.0902862548828125,1.2143707275390625
1740247375376140800,6.629140869140625,0.049652099609375,1.0963897705078125,1.1926422119140625
1740247375386121700,6.639121826171875,0.04071044921875,1.0859222412109375,1.1589508056640625
1740247375396104000,6.64910400390625,0.0413818359375,1.0706024169921875,1.1097259521484375
1740247375406084900,6.6590849609375,0.0594329833984375,1.0422821044921875,1.0273895263671875
1740247375416066800,6.66906689453125,0.1089630126953125,1.025421142578125,0.9448394775390625
1740247375426047700,6.6790478515625,0.1949310302734375,1.072021484375,0.874298095703125
1740247375436030000,6.689030029296875,0.31158447265625,1.20684814453125,0.7911834716796875
1740247375446011000,6.699010986328125,0.412841796875,1.37445068359375,0.6758270263671875
1740247375455991800,6.70899169921875,0.4522857666015625,1.4725799560546875,0.4349822998046875
1740247375465973800,6.718973876953125,0.4436492919921875,1.4712371826171875,0.0572357177734375
1740247375475954700,6.72895458984375,0.3751678466796875,1.3390960693359375,-0.354644775390625
1740247375485937000,6.73893701171875,0.2390594482421875,1.12579345703125,-0.645599365234375
1740247375495917800,6.748917724609375,0.109222412109375,0.933929443359375,-0.763031005859375
1740247375505900000,6.758900146484375,0.0039215087890625,0.8358001708984375,-0.615966796875
1740247375515880700,6.768880615234375,-0.060821533203125,0.8344268798828125,-0.2276611328125
1740247375525862700,6.778862548828125,-0.07208251953125,0.924713134765625,0.1900634765625
1740247375535843800,6.78884375,-0.0604248046875,1.032501220703125,0.526702880859375
1740247375545825800,6.79882568359375,-0.0457611083984375,1.0850677490234375,0.8064727783203125
1740247375555807000,6.808806884765625,-0.03741455078125,1.096588134765625,1.079803466796875
1740247375565788700,6.81878857421875,-0.04193115234375,1.085906982421875,1.3627471923828125
1740247375575769900,6.828769775390625,-0.0637359619140625,1.0397491455078125,1.561004638671875
1740247375585751800,6.838751708984375,-0.0672607421875,0.9568939208984375,1.59588623046875
1740247375595732700,6.848732666015625,-0.0799407958984375,0.858673095703125,1.522674560546875
1740247375605714700,6.858714599609375,-0.097320556640625,0.7890625,1.42218017578125
1740247375615695600,6.868695556640625,-0.083984375,0.7615814208984375,1.3394775390625
1740247375625676800,6.8786767578125,-0.040496826171875,0.768157958984375,1.273162841796875
1740247375635658800,6.88865869140625,0.0017852783203125,0.7705841064453125,1.1937713623046875
1740247375645640000,6.898639892578125,0.03143310546875,0.75408935546875,1.1110687255859375
1740247375655622000,6.908621826171875,0.0477752685546875,0.7261505126953125,1.040771484375
1740247375665602600,6.9186025390625,0.05902099609375,0.6965179443359375,0.99169921875
1740247375675584800,6.928584716796875,0.0660400390625,0.6634063720703125,0.977813720703125
1740247375685565700,6.938565673828125,0.0746917724609375,0.6341705322265625,0.998077392578125
1740247375695548000,6.9485478515625,0.0948486328125,0.606201171875,1.0375518798828125
1740247375705528800,6.95852880859375,0.1204833984375,0.5796661376953125,1.0821685791015625
1740247375715510800,6.9685107421875,0.144866943359375,0.5579376220703125,1.12554931640625
1740247375725491700,6.97849169921875,0.1521148681640625,0.5454864501953125,1.16424560546875
1740247375735474000,6.988473876953125,0.1515655517578125,0.537109375,1.2008209228515625
1740247375745454800,6.998454833984375,0.1484222412109375,0.529327392578125,1.221435546875
1740247375755436800,7.008436767578125,0.1454315185546875,0.514892578125,1.219451904296875
1740247375765417700,7.018417724609375,0.1546478271484375,0.50909423828125,1.2135162353515625
1740247375775399700,7.028399658203125,0.170257568359375,0.5187225341796875,1.2262420654296875
1740247375785380900,7.038380859375,0.1820831298828125,0.5434112548828125,1.261962890625
1740247375795361800,7.04836181640625,0.194732666015625,0.581268310546875,1.3158111572265625
1740247375805343700,7.05834375,0.2100067138671875,0.607940673828125,1.364044189453125
1740247375815324700,7.06832470703125,0.2317047119140625,0.624908447265625,1.41790771484375
1740247375825307000,7.078306884765625,0.26220703125,0.6452484130859375,1.4864349365234375
1740247375835287800,7.088287841796875,0.28814697265625,0.6620025634765625,1.542083740234375
1740247375845269800,7.098269775390625,0.302734375,0.6666107177734375,1.581756591796875
1740247375855251000,7.1082509765625,0.3112030029296875,0.66375732421875,1.611236572265625
1740247375865232600,7.118232666015625,0.3033294677734375,0.662384033203125,1.64654541015625
1740247375875213800,7.1282138671875,0.2935333251953125,0.6490478515625,1.6899261474609375
1740247375885195800,7.13819580078125,0.2934417724609375,0.611846923828125,1.746856689453125
1740247375895177000,7.148177001953125,0.302337646484375,0.5557098388671875,1.81170654296875
1740247375905158700,7.15815869140625,0.317291259765625,0.4946441650390625,1.8649444580078125
1740247375915139600,7.1681396484375,0.33251953125,0.4318389892578125,1.903106689453125
1740247375925121800,7.178121826171875,0.3466339111328125,0.3660125732421875,1.929595947265625
1740247375935102700,7.188102783203125,0.3639068603515625,0.3006439208984375,1.9369964599609375
1740247375945085000,7.1980849609375,0.3927764892578125,0.276275634765625,1.9395294189453125
1740247375955065600,7.208065673828125,0.4166259765625,0.29107666015625,1.9429168701171875
1740247375965047800,7.2180478515625,0.4305419921875,0.3319549560546875,1.9458465576171875
1740247375975028700,7.22802880859375,0.4407958984375,0.3786468505859375,1.9140625
1740247375985010000,7.238010009765625,0.444244384765625,0.408538818359375,1.834716796875
1740247375994991900,7.247991943359375,0.4351348876953125,0.4077911376953125,1.720062255859375
1740247376004972800,7.257972900390625,0.413818359375,0.374114990234375,1.6016693115234375
1740247376014954800,7.267954833984375,0.4119415283203125,0.315704345703125,1.503387451171875
1740247376024935700,7.277935791015625,0.435089111328125,0.2670745849609375,1.4261322021484375
1740247376034918000,7.28791796875,0.465850830078125,0.251190185546875,1.379180908203125
1740247376044898800,7.29789892578125,0.48345947265625,0.274688720703125,1.3572235107421875
1740247376054880800,7.307880859375,0.4813995361328125,0.329437255859375,1.3603668212890625
1740247376064861700,7.31786181640625,0.4606781005859375,0.392669677734375,1.38397216796875
1740247376074844000,7.327843994140625,0.4347991943359375,0.44317626953125,1.421966552734375
1740247376084824800,7.337824951171875,0.421051025390625,0.4735870361328125,1.4479522705078125
1740247376094806800,7.347806884765625,0.4105224609375,0.49346923828125,1.4502410888671875
1740247376104787700,7.35778759765625,0.39031982421875,0.515716552734375,1.4419403076171875
1740247376114769700,7.367769775390625,0.35546875,0.5480499267578125,1.439117431640625
1740247376124750800,7.377750732421875,0.3105316162109375,0.58319091796875,1.4496917724609375
1740247376134731800,7.387731689453125,0.2499847412109375,0.6216888427734375,1.47589111328125
1740247376144714000,7.3977138671875,0.195831298828125,0.6548614501953125,1.4902191162109375
1740247376154695000,7.40769482421875,0.1445770263671875,0.676116943359375,1.492279052734375
1740247376164676900,7.4176767578125,0.095947265625,0.6880950927734375,1.480621337890625
1740247376174657800,7.42765771484375,0.052581787109375,0.6932525634765625,1.46478271484375
1740247376184639700,7.4376396484375,0.0179290771484375,0.6903533935546875,1.463134765625
1740247376194621000,7.447620849609375,0.008575439453125,0.6913604736328125,1.459747314453125
1740247376204602600,7.4576025390625,0.014556884765625,0.7037811279296875,1.446441650390625
1740247376214583800,7.467583740234375,0.033233642578125,0.7215576171875,1.415740966796875
1740247376224565800,7.477565673828125,0.052947998046875,0.734344482421875,1.3723602294921875
1740247376234547000,7.487546875,0.0707550048828125,0.7440338134765625,1.33074951171875
1740247376244529000,7.49752880859375,0.08514404296875,0.76123046875,1.3045806884765625
1740247376254509600,7.507509521484375,0.09881591796875,0.7827301025390625,1.3007049560546875
1740247376264491800,7.51749169921875,0.112823486328125,0.8007049560546875,1.3094940185546875
1740247376274472700,7.52747265625,0.1292877197265625,0.811065673828125,1.3191070556640625
1740247376284455000,7.537454833984375,0.1569061279296875,0.820465087890625,1.326904296875
1740247376294435800,7.547435791015625,0.1820068359375,0.8244781494140625,1.3183746337890625
1740247376304417800,7.557417724609375,0.203094482421875,0.8242645263671875,1.3111419677734375
1740247376314398700,7.567398681640625,0.21807861328125,0.844879150390625,1.3018341064453125
1740247376324379600,7.577379638671875,0.2239227294921875,0.8655548095703125,1.2785797119140625
1740247376334361900,7.58736181640625,0.224456787109375,0.8783721923828125,1.26190185546875
1740247376344342800,7.5973427734375,0.2153472900390625,0.898590087890625,1.2649078369140625
1740247376354324700,7.60732470703125,0.1978607177734375,0.914581298828125,1.259521484375
1740247376364305700,7.6173056640625,0.1802825927734375,0.909210205078125,1.2220611572265625
1740247376374288000,7.627287841796875,0.16790771484375,0.8964996337890625,1.174224853515625
1740247376384268800,7.637268798828125,0.1523284912109375,0.8939666748046875,1.133758544921875
1740247376394250800,7.647250732421875,0.13427734375,0.897125244140625,1.08502197265625
1740247376404231700,7.657231689453125,0.1131591796875,0.8877410888671875,1.028076171875
1740247376414214000,7.6672138671875,0.094146728515625,0.8744049072265625,0.9722442626953125
1740247376424194800,7.67719482421875,0.0858306884765625,0.8597869873046875,0.914642333984375
1740247376434176800,7.6871767578125,0.0915679931640625,0.8572845458984375,0.857635498046875
1740247376444158000,7.697157958984375,0.1121673583984375,0.8856201171875,0.8172760009765625
1740247376454139600,7.7071396484375,0.13970947265625,0.940155029296875,0.7939910888671875
1740247376464120800,7.717120849609375,0.1580047607421875,0.9863128662109375,0.745635986328125
1740247376474102800,7.727102783203125,0.1591339111328125,0.9813690185546875,0.6502532958984375
1740247376484084000,7.737083984375,0.1346893310546875,0.919403076171875,0.5219879150390625
1740247376494065700,7.747065673828125,0.0978546142578125,0.8471527099609375,0.3497314453125
1740247376504046600,7.757046630859375,0.05084228515625,0.7672576904296875,0.18414306640625
1740247376514027800,7.76702783203125,-0.0018768310546875,0.675506591796875,0.0540771484375
1740247376524009700,7.777009765625,-0.0484619140625,0.5915985107421875,-0.0511932373046875
1740247376533991000,7.786990966796875,-0.06744384765625,0.55877685546875,-0.120147705078125
1740247376543972600,7.79697265625,-0.0593109130859375,0.542327880859375,-0.072540283203125
1740247376553953800,7.806953857421875,-0.03387451171875,0.5400390625,0.12957763671875
1740247376563935700,7.816935791015625,0.035675048828125,0.5402984619140625,0.4228057861328125
1740247376573917000,7.8269169921875,0.133148193359375,0.5735931396484375,0.7145233154296875
1740247376583899000,7.83689892578125,0.1939697265625,0.6436309814453125,0.94482421875
1740247376593879800,7.8468798828125,0.1835479736328125,0.713836669921875,1.091064453125
1740247376603861800,7.85686181640625,0.153961181640625,0.7549591064453125,1.144500732421875
1740247376613843700,7.86684375,0.139617919921875,0.7637481689453125,1.1119232177734375
1740247376623825700,7.87682568359375,0.1373443603515625,0.7445220947265625,1.0513763427734375
1740247376633806600,7.886806640625,0.158843994140625,0.73040771484375,1.031402587890625
1740247376643788800,7.896788818359375,0.1948699951171875,0.7121734619140625,1.0528411865234375
1740247376653769700,7.906769775390625,0.233367919921875,0.6763916015625,1.08172607421875
1740247376663752000,7.916751953125,0.25830078125,0.6187286376953125,1.09222412109375
1740247376673732900,7.92673291015625,0.2628021240234375,0.560638427734375,1.0863494873046875
1740247376683714800,7.93671484375,0.2610015869140625,0.5235443115234375,1.0641937255859375
1740247376693695700,7.94669580078125,0.2598419189453125,0.5177154541015625,1.0288238525390625
1740247376703676700,7.9566767578125,0.247161865234375,0.5299224853515625,1.00433349609375
1740247376713659000,7.966658935546875,0.22845458984375,0.545379638671875,0.99334716796875
1740247376723639800,7.976639892578125,0.1949005126953125,0.5554962158203125,1.001068115234375
1740247376733621800,7.986621826171875,0.1537628173828125,0.558990478515625,1.043853759765625
1740247376743602700,7.996602783203125,0.1175537109375,0.559906005859375,1.1163787841796875
1740247376753585000,8.0065849609375,0.0883331298828125,0.54962158203125,1.1846923828125
1740247376763565800,8.01656591796875,0.071563720703125,0.5342254638671875,1.2494049072265625
1740247376773547800,8.0265478515625,0.07110595703125,0.5270538330078125,1.3019561767578125
1740247376783528700,8.03652880859375,0.071441650390625,0.52423095703125,1.3409881591796875
1740247376793511000,8.046510986328125,0.0693206787109375,0.5010223388671875,1.3770294189453125
1740247376803491800,8.056491943359376,0.0842132568359375,0.457550048828125,1.4246673583984375
1740247376813474000,8.06647412109375,0.123199462890625,0.4201507568359375,1.479278564453125
1740247376823455000,8.076455078125,0.1711883544921875,0.4033203125,1.5386810302734375
1740247376833436700,8.086436767578125,0.213470458984375,0.3984527587890625,1.5993804931640625
1740247376843417900,8.09641796875,0.2372283935546875,0.403656005859375,1.6534271240234375
1740247376853399800,8.10639990234375,0.239501953125,0.4098968505859375,1.7183380126953125
1740247376863381000,8.116381103515625,0.245758056640625,0.4066162109375,1.8317108154296875
1740247376873362700,8.12636279296875,0.27972412109375,0.4027862548828125,1.941680908203125
1740247376883344000,8.13634375,0.329254150390625,0.392852783203125,2.0037689208984375
1740247376893324800,8.14632470703125,0.367645263671875,0.37432861328125,2.0195465087890625
1740247376903306800,8.156306640625,0.3802947998046875,0.3482513427734375,2.0011138916015625
1740247376913288000,8.166287841796875,0.3704833984375,0.3212432861328125,1.9615936279296875
1740247376923269600,8.17626953125,0.352508544921875,0.28802490234375,1.914947509765625
1740247376933250800,8.186250732421875,0.334564208984375,0.2580413818359375,1.8787689208984375
1740247376943232800,8.196232666015625,0.3349456787109375,0.247711181640625,1.877227783203125
1740247376953214000,8.2062138671875,0.358062744140625,0.265777587890625,1.925262451171875
1740247376963196000,8.21619580078125,0.40093994140625,0.29498291015625,1.992095947265625
1740247376973176800,8.2261767578125,0.4664764404296875,0.3182373046875,2.01702880859375
1740247376983158800,8.23615869140625,0.5324554443359375,0.3181610107421875,1.9509735107421875
1740247376993139700,8.2461396484375,0.565521240234375,0.290802001953125,1.817901611328125
1740247377003122000,8.256121826171874,0.5582733154296875,0.2396087646484375,1.66119384765625
1740247377013102800,8.266102783203126,0.5262908935546875,0.1707916259765625,1.51318359375
1740247377023084800,8.276084716796875,0.486602783203125,0.098052978515625,1.3885345458984375
1740247377033065700,8.286065673828125,0.4510955810546875,0.0404510498046875,1.3136138916015625
1740247377043048000,8.2960478515625,0.4138641357421875,0.0160064697265625,1.295501708984375
1740247377053028900,8.30602880859375,0.3963470458984375,0.031982421875,1.328887939453125
1740247377063010800,8.3160107421875,0.4164581298828125,0.087890625,1.383514404296875
1740247377072991700,8.32599169921875,0.445404052734375,0.161773681640625,1.4365081787109375
1740247377082973700,8.3359736328125,0.459564208984375,0.230621337890625,1.4671478271484375
1740247377092955000,8.345954833984376,0.463043212890625,0.281524658203125,1.4723968505859375
1740247377102935800,8.355935791015625,0.4663848876953125,0.325103759765625,1.4341888427734375
1740247377112918000,8.36591796875,0.4548492431640625,0.364410400390625,1.3712310791015625
1740247377122899000,8.37589892578125,0.417877197265625,0.402679443359375,1.310516357421875
1740247377132881000,8.385880859375,0.361236572265625,0.427764892578125,1.256195068359375
1740247377142861800,8.39586181640625,0.2935638427734375,0.437408447265625,1.2194671630859375
1740247377152844000,8.405843994140625,0.2196502685546875,0.43896484375,1.20556640625
1740247377162825000,8.415824951171874,0.1521453857421875,0.44189453125,1.22021484375
1740247377172806700,8.425806640625,0.0893096923828125,0.442138671875,1.2494964599609375
1740247377182787800,8.435787841796875,0.0359344482421875,0.4433746337890625,1.2772979736328125
1740247377192769800,8.445769775390625,-0.0098724365234375,0.441131591796875,1.2852325439453125
1740247377202751000,8.4557509765625,-0.0436859130859375,0.4382171630859375,1.27520751953125
1740247377212732700,8.465732666015626,-0.0711517333984375,0.44366455078125,1.2580413818359375
1740247377222713900,8.4757138671875,-0.0834197998046875,0.4480133056640625,1.238555908203125
1740247377232695800,8.48569580078125,-0.07763671875,0.4527435302734375,1.225433349609375
1740247377242676700,8.4956767578125,-0.040924072265625,0.471588134765625,1.208221435546875
1740247377252659000,8.505658935546874,0.0147552490234375,0.5023651123046875,1.178985595703125
1740247377262639900,8.515639892578125,0.059844970703125,0.5377655029296875,1.1428985595703125
1740247377272621800,8.525621826171875,0.0900726318359375,0.5678558349609375,1.1122589111328125
1740247377282602800,8.535602783203124,0.1084747314453125,0.5930328369140625,1.097564697265625
1740247377292585000,8.5455849609375,0.120697021484375,0.6205291748046875,1.1081390380859375
1740247377302566000,8.55556591796875,0.1266632080078125,0.647064208984375,1.134674072265625
1740247377312547800,8.5655478515625,0.1353759765625,0.6710205078125,1.16827392578125
1740247377322528800,8.57552880859375,0.1450042724609375,0.6884918212890625,1.2005462646484375
1740247377332511000,8.585510986328124,0.16595458984375,0.704498291015625,1.2222900390625
1740247377342492000,8.595491943359375,0.18597412109375,0.7274932861328125,1.2332305908203125
1740247377352472800,8.605472900390625,0.1970977783203125,0.7509765625,1.2372589111328125
1740247377362454800,8.615454833984375,0.1939697265625,0.7707061767578125,1.232635498046875
1740247377372435700,8.625435791015626,0.1786956787109375,0.7811279296875,1.2216644287109375
1740247377382418000,8.63541796875,0.1668701171875,0.7984619140625,1.217132568359375
1740247377392398800,8.64539892578125,0.1576080322265625,0.8264312744140625,1.2262420654296875
1740247377402381000,8.655381103515625,0.1459197998046875,0.8460693359375,1.2262725830078125
1740247377412362000,8.665362060546874,0.1395263671875,0.8525390625,1.20037841796875
1740247377422343700,8.67534375,0.12713623046875,0.850250244140625,1.1454010009765625
1740247377432324900,8.685324951171875,0.105224609375,0.8339691162109375,1.073974609375
1740247377442306800,8.695306884765625,0.0844268798828125,0.8095703125,0.9948577880859375
1740247377452288000,8.7052880859375,0.0695648193359375,0.7907257080078125,0.9266357421875
1740247377462269700,8.715269775390626,0.069854736328125,0.797515869140625,0.8828277587890625
1740247377472251000,8.7252509765625,0.0808563232421875,0.829925537109375,0.8463134765625
1740247377482232800,8.73523291015625,0.0881805419921875,0.8522491455078125,0.773406982421875
1740247377492213800,8.7452138671875,0.081024169921875,0.847747802734375,0.64849853515625
1740247377502195700,8.75519580078125,0.066436767578125,0.85089111328125,0.438629150390625
1740247377512176600,8.7651767578125,0.0586700439453125,0.8532562255859375,0.1531982421875
1740247377522158800,8.775158935546875,0.0601348876953125,0.8134613037109375,-0.137603759765625
1740247377532139800,8.785139892578124,0.066314697265625,0.743255615234375,-0.3511962890625
1740247377542122000,8.7951220703125,0.050323486328125,0.6716766357421875,-0.42352294921875
1740247377552103000,8.80510302734375,0.0038604736328125,0.63275146484375,-0.3150482177734375
1740247377562084900,8.8150849609375,-0.04571533203125,0.6517181396484375,-0.0689239501953125
1740247377572065800,8.825065673828124,-0.0681304931640625,0.7089996337890625,0.21405029296875
1740247377582048000,8.835048095703126,-0.040802001953125,0.77996826171875,0.4516143798828125
1740247377592029000,8.84502880859375,0.0098419189453125,0.8429718017578125,0.6514434814453125
1740247377602009900,8.855009765625,0.0507354736328125,0.888916015625,0.8449859619140625
1740247377611991800,8.86499169921875,0.0774078369140625,0.91448974609375,1.01617431640625
1740247377621972700,8.87497265625,0.089111328125,0.9011077880859375,1.1417388916015625
1740247377631955000,8.884954833984375,0.0844268798828125,0.8420867919921875,1.2043304443359375
1740247377641936000,8.894935791015625,0.0699310302734375,0.760894775390625,1.22784423828125
1740247377651917800,8.904917724609374,0.059112548828125,0.6849365234375,1.241973876953125
1740247377661898800,8.914898681640626,0.05474853515625,0.620513916015625,1.2474212646484375
1740247377671880700,8.924880615234375,0.0550689697265625,0.5712432861328125,1.2283782958984375
1740247377681862000,8.93486181640625,0.0649566650390625,0.54296875,1.1983489990234375
1740247377691843800,8.94484375,0.083404541015625,0.53619384765625,1.1646881103515625
1740247377701825000,8.954824951171876,0.1014404296875,0.5442657470703125,1.1326141357421875
1740247377711806700,8.964806640625,0.116851806640625,0.5458831787109375,1.0896453857421875
1740247377721788400,8.974788330078125,0.1230926513671875,0.5156097412109375,1.0318450927734375
1740247377731770400,8.984770263671875,0.1265869140625,0.466033935546875,0.984039306640625
1740247377741751600,8.99475146484375,0.12701416015625,0.41839599609375,0.9565582275390625
1740247377751733200,9.004733154296876,0.1289520263671875,0.3774871826171875,0.9480743408203125
1740247377761714200,9.014714111328125,0.1326751708984375,0.3487396240234375,0.954254150390625
1740247377771696400,9.0246962890625,0.1375274658203125,0.33673095703125,0.97027587890625
1740247377781677300,9.03467724609375,0.1395263671875,0.3427886962890625,0.98846435546875
1740247377791659300,9.0446591796875,0.1315765380859375,0.3607635498046875,1.0182647705078125
1740247377801640200,9.05464013671875,0.1203460693359375,0.39239501953125,1.05267333984375
1740247377811622400,9.064622314453125,0.1023101806640625,0.4205474853515625,1.0757293701171875
1740247377821603300,9.074603271484374,0.088958740234375,0.4388275146484375,1.0897979736328125
1740247377831585300,9.084585205078126,0.0858612060546875,0.447265625,1.1143646240234375
1740247377841566200,9.094566162109375,0.107177734375,0.4469146728515625,1.161590576171875
1740247377851548400,9.10454833984375,0.158111572265625,0.4499664306640625,1.21417236328125
1740247377861529300,9.114529296875,0.2253570556640625,0.4590911865234375,1.2614288330078125
1740247377871511300,9.12451123046875,0.296142578125,0.465057373046875,1.2861175537109375
1740247377881492500,9.134492431640625,0.347320556640625,0.4671173095703125,1.2886199951171875
1740247377891473400,9.144473388671875,0.378326416015625,0.476776123046875,1.29290771484375
1740247377901455400,9.154455322265624,0.39471435546875,0.500213623046875,1.3167724609375
1740247377911436300,9.164436279296876,0.4028472900390625,0.527435302734375,1.372589111328125
1740247377921418500,9.17441845703125,0.4167022705078125,0.546722412109375,1.4438018798828125
1740247377931399400,9.1843994140625,0.431396484375,0.552734375,1.5259857177734375
1740247377941381400,9.19438134765625,0.4368438720703125,0.536895751953125,1.6082000732421875
1740247377951362300,9.2043623046875,0.4256134033203125,0.4925994873046875,1.65020751953125
1740247377961344300,9.21434423828125,0.4014892578125,0.427093505859375,1.653167724609375
1740247377971325400,9.224325439453125,0.37774658203125,0.3849334716796875,1.6792144775390625
1740247377981307400,9.234307373046875,0.3598480224609375,0.38897705078125,1.7530059814453125
1740247377991288300,9.244288330078126,0.3465576171875,0.414398193359375,1.84600830078125
1740247378001270300,9.254270263671875,0.35028076171875,0.4296875,1.92449951171875
1740247378011251500,9.26425146484375,0.37310791015625,0.4201202392578125,1.9494781494140625
1740247378021233400,9.2742333984375,0.4045867919921875,0.367095947265625,1.908447265625
1740247378031214300,9.28421435546875,0.4176025390625,0.2811126708984375,1.8287200927734375
1740247378041196300,9.2941962890625,0.4097900390625,0.190338134765625,1.726959228515625
1740247378051177200,9.30417724609375,0.396881103515625,0.1210784912109375,1.627838134765625
1740247378061159400,9.314159423828125,0.3911590576171875,0.0929107666015625,1.552001953125
1740247378071140400,9.324140380859374,0.3815765380859375,0.11175537109375,1.5053253173828125
1740247378081122300,9.334122314453126,0.3724517822265625,0.17333984375,1.4999237060546875
1740247378091103200,9.344103271484375,0.36968994140625,0.2732391357421875,1.5066375732421875
1740247378101085400,9.35408544921875,0.35870361328125,0.376739501953125,1.4992218017578125
1740247378111066400,9.36406640625,0.3400726318359375,0.455474853515625,1.47161865234375
1740247378121048600,9.374048583984376,0.314788818359375,0.5016632080078125,1.4275054931640625
1740247378131029200,9.384029296875,0.2838592529296875,0.5248565673828125,1.3732147216796875
1740247378141011200,9.39401123046875,0.2464141845703125,0.5355224609375,1.329498291015625
1740247378150992400,9.403992431640624,0.2059173583984375,0.5392608642578125,1.3043212890625
1740247378160974300,9.413974365234376,0.163726806640625,0.5303192138671875,1.28643798828125
1740247378170955500,9.42395556640625,0.1207733154296875,0.5167083740234375,1.2637786865234375
1740247378180936400,9.4339365234375,0.074920654296875,0.4962615966796875,1.2278594970703125
1740247378190918400,9.44391845703125,0.036865234375,0.4738311767578125,1.1851959228515625
1740247378200899300,9.4538994140625,0.008087158203125,0.459320068359375,1.1494293212890625
1740247378210881300,9.46388134765625,-0.0085296630859375,0.457000732421875,1.117767333984375
1740247378220862500,9.473862548828125,-0.0191497802734375,0.46026611328125,1.090728759765625
1740247378230844200,9.48384423828125,-0.0169677734375,0.4633636474609375,1.0699005126953125
1740247378240825300,9.493825439453126,-0.0043182373046875,0.466705322265625,1.0606689453125
1740247378250807300,9.503807373046875,0.013336181640625,0.4730682373046875,1.05181884765625
1740247378260788500,9.51378857421875,0.034881591796875,0.478515625,1.037750244140625
1740247378270770400,9.5237705078125,0.057220458984375,0.4817962646484375,1.0184783935546875
1740247378280751000,9.533751220703126,0.07598876953125,0.4849395751953125,0.9947662353515625
1740247378290733300,9.5437333984375,0.0889892578125,0.4916229248046875,0.9735870361328125
1740247378300714200,9.55371435546875,0.0968170166015625,0.5091705322265625,0.9648895263671875
1740247378310696400,9.563696533203125,0.101776123046875,0.5345306396484375,0.9601898193359375
1740247378320677400,9.573677490234376,0.1067657470703125,0.554901123046875,0.960113525390625
1740247378330659300,9.583659423828125,0.11114501953125,0.576385498046875,0.96978759765625
1740247378340640300,9.59364013671875,0.1130523681640625,0.59954833984375,0.9913787841796875
1740247378350622500,9.60362255859375,0.1151885986328125,0.621490478515625,1.0051727294921875
1740247378360603400,9.613603271484376,0.1113128662109375,0.63653564453125,1.009796142578125
1740247378370585300,9.62358544921875,0.1065826416015625,0.654693603515625,1.0187530517578125
1740247378380566300,9.633566162109375,0.09844970703125,0.6801605224609375,1.0223388671875
1740247378390548200,9.64354833984375,0.087890625,0.6996002197265625,1.0099334716796875
1740247378400529400,9.653529296875,0.0796051025390625,0.7168426513671875,0.9860687255859375
1740247378410511400,9.663511474609376,0.07452392578125,0.7403564453125,0.9550628662109375
1740247378420492300,9.6734921875,0.07275390625,0.7703399658203125,0.9158477783203125
1740247378430474200,9.68347412109375,0.0682373046875,0.8088226318359375,0.85235595703125
1740247378440455400,9.693455322265624,0.061737060546875,0.8502044677734375,0.746124267578125
1740247378450437400,9.703437255859376,0.06036376953125,0.8807525634765625,0.6154327392578125
1740247378460418300,9.713418212890625,0.0546417236328125,0.9130401611328125,0.4888458251953125
1740247378470400300,9.723400146484375,0.036468505859375,0.9290008544921875,0.3908233642578125
1740247378480381200,9.733381103515624,0.018951416015625,0.8924407958984375,0.3388824462890625
1740247378490363400,9.74336328125,0.0127105712890625,0.834259033203125,0.3404388427734375
1740247378500344300,9.75334423828125,0.0322723388671875,0.8197479248046875,0.407135009765625
1740247378510326300,9.763326171875,0.0843963623046875,0.8851165771484375,0.5401153564453125
1740247378520307200,9.77330712890625,0.1520843505859375,1.0029144287109375,0.6930389404296875
1740247378530289400,9.783289306640626,0.1834869384765625,1.0938262939453125,0.7932281494140625
1740247378540270300,9.793270263671875,0.166259765625,1.0908355712890625,0.801788330078125
1740247378550252500,9.80325244140625,0.1090087890625,0.980499267578125,0.7258453369140625
1740247378560233500,9.8132333984375,0.046173095703125,0.82745361328125,0.632476806640625
1740247378570214100,9.823214111328125,0.0059814453125,0.74078369140625,0.6098175048828125
1740247378580196400,9.8331962890625,-0.015533447265625,0.74542236328125,0.661956787109375
1740247378590177300,9.84317724609375,-0.01141357421875,0.8118133544921875,0.761810302734375
1740247378600159500,9.853159423828124,0.005950927734375,0.8956146240234375,0.8635101318359375
1740247378610140400,9.863140380859376,0.039031982421875,0.966827392578125,0.9385528564453125
1740247378620122400,9.873122314453125,0.08154296875,1.013763427734375,0.9897918701171875
1740247378630103300,9.883103271484375,0.1322479248046875,1.0185394287109375,1.0411834716796875
1740247378640085200,9.893085205078124,0.1919097900390625,0.98297119140625,1.1030120849609375
1740247378650066400,9.90306640625,0.2626495361328125,0.9048614501953125,1.1641845703125
1740247378660048100,9.913048095703125,0.3449249267578125,0.79449462890625,1.2188262939453125
1740247378670029300,9.923029296875,0.425201416015625,0.6611480712890625,1.2714385986328125
1740247378680011300,9.93301123046875,0.483062744140625,0.5333404541015625,1.27154541015625
1740247378689992400,9.942992431640626,0.5225677490234375,0.436614990234375,1.229766845703125
1740247378699974400,9.952974365234375,0.5658721923828125,0.3980712890625,1.1681976318359375
1740247378709955300,9.962955322265625,0.5705718994140625,0.40069580078125,1.06182861328125
1740247378719936800,9.972936767578124,0.521240234375,0.4101104736328125,0.9606781005859375
1740247378729918000,9.98291796875,0.4506072998046875,0.4053192138671875,0.8957366943359375
1740247378739900000,9.99289990234375,0.3696441650390625,0.3744354248046875,0.84423828125
1740247378749881000,10.002881103515625,0.2946014404296875,0.315277099609375,0.7986602783203125
1740247378759862800,10.01286279296875,0.2432098388671875,0.25579833984375,0.771240234375
1740247378769844000,10.022843994140626,0.20977783203125,0.1919097900390625,0.7440032958984375
1740247378779826000,10.032825927734375,0.21295166015625,0.12164306640625,0.7273712158203125
1740247378789806800,10.042806884765625,0.2625885009765625,0.0581512451171875,0.7248687744140625
1740247378799789000,10.0527890625,0.3413543701171875,0.0398101806640625,0.7245635986328125
1740247378809770000,10.06277001953125,0.406341552734375,0.0735931396484375,0.7182769775390625
1740247378819752000,10.072751953125,0.4366912841796875,0.1255340576171875,0.7318572998046875
1740247378829732900,10.08273291015625,0.455413818359375,0.16864013671875,0.7657928466796875
1740247378839715000,10.092715087890625,0.463958740234375,0.1884002685546875,0.8037872314453125
1740247378849696000,10.102696044921874,0.4551239013671875,0.1887664794921875,0.8648223876953125
1740247378859678000,10.112677978515626,0.44781494140625,0.1738433837890625,0.959197998046875
1740247378869659000,10.122658935546875,0.4589996337890625,0.1473236083984375,1.0702362060546875
1740247378879641000,10.13264111328125,0.486114501953125,0.113037109375,1.2156219482421875
1740247378889622000,10.1426220703125,0.5032958984375,0.091094970703125,1.32489013671875
1740247378899604000,10.15260400390625,0.4783477783203125,0.077789306640625,1.3630828857421875
1740247378909585000,10.1625849609375,0.421478271484375,0.073699951171875,1.3742218017578125
1740247378919566800,10.17256689453125,0.37615966796875,0.0752716064453125,1.4141693115234375
1740247378929548000,10.182548095703124,0.373565673828125,0.0677490234375,1.4837493896484375
1740247378939530000,10.192530029296876,0.41339111328125,0.0384521484375,1.5756988525390625
1740247378949511200,10.20251123046875,0.4763031005859375,-0.006561279296875,1.6530609130859375
1740247378959492900,10.212492919921875,0.53521728515625,-0.0517578125,1.697906494140625
1740247378969474000,10.22247412109375,0.5570526123046875,-0.0902252197265625,1.713348388671875
1740247378979456000,10.2324560546875,0.5575714111328125,-0.12506103515625,1.7277679443359375
1740247378989437000,10.24243701171875,0.5616302490234375,-0.1553497314453125,1.7663726806640625
1740247378999418000,10.252418212890625,0.5876007080078125,-0.1425018310546875,1.8156280517578125
1740247379009399800,10.26239990234375,0.6311798095703125,-0.0617523193359375,1.8770904541015625
1740247379019381000,10.272381103515626,0.658599853515625,0.0607757568359375,1.9329986572265625
1740247379029363000,10.282363037109375,0.6599273681640625,0.1667938232421875,1.9470062255859375
1740247379039344000,10.29234423828125,0.636474609375,0.2061309814453125,1.89349365234375
1740247379049325800,10.302325927734374,0.5828857421875,0.1759185791015625,1.766998291015625
1740247379059306800,10.312306640625,0.5135040283203125,0.1265716552734375,1.643310546875
1740247379069289000,10.3222890625,0.46136474609375,0.12322998046875,1.597991943359375
1740247379079270000,10.332269775390625,0.4285736083984375,0.1854400634765625,1.6358642578125
1740247379089252000,10.342252197265625,0.3931427001953125,0.2775726318359375,1.70623779296875
1740247379099233000,10.35223291015625,0.3332672119140625,0.3458404541015625,1.74359130859375
1740247379109215000,10.362215087890625,0.2552642822265625,0.3731231689453125,1.735992431640625
1740247379119196000,10.37219580078125,0.1880035400390625,0.3797454833984375,1.7202911376953125
1740247379129178000,10.38217822265625,0.1352996826171875,0.3886260986328125,1.7033843994140625
1740247379139159000,10.392158935546876,0.101318359375,0.4061126708984375,1.6792449951171875
1740247379149141000,10.40214111328125,0.085968017578125,0.427764892578125,1.6453399658203125
1740247379159122000,10.412121826171875,0.0800933837890625,0.44720458984375,1.585479736328125
1740247379169104000,10.422103759765625,0.0709686279296875,0.463531494140625,1.505035400390625
1740247379179085000,10.4320849609375,0.060638427734375,0.4762725830078125,1.418792724609375
1740247379189067000,10.44206689453125,0.046783447265625,0.4925079345703125,1.351898193359375
1740247379199048000,10.4520478515625,0.0330657958984375,0.5063934326171875,1.295623779296875
1740247379209030000,10.46202978515625,0.01373291015625,0.512908935546875,1.2457427978515625
1740247379219011000,10.472010986328126,0.0008697509765625,0.5173187255859375,1.235107421875
1740247379228993000,10.481992919921876,0.0149078369140625,0.5298919677734375,1.2567596435546875
1740247379238974000,10.491973876953125,0.04962158203125,0.5404205322265625,1.26324462890625
1740247379248956000,10.501955810546875,0.0826568603515625,0.5470428466796875,1.253753662109375
1740247379258936800,10.511936767578124,0.1124267578125,0.558013916015625,1.23114013671875
1740247379268919000,10.5219189453125,0.130645751953125,0.57574462890625,1.202392578125
1740247379278900000,10.53189990234375,0.13909912109375,0.5966796875,1.163543701171875
1740247379288882000,10.5418818359375,0.138397216796875,0.6074371337890625,1.118560791015625
1740247379298862800,10.55186279296875,0.1366729736328125,0.612030029296875,1.0772247314453125
1740247379308845000,10.561844970703126,0.139617919921875,0.617828369140625,1.0551605224609375
1740247379318826000,10.571825927734375,0.1468505859375,0.62921142578125,1.0718231201171875
1740247379328808200,10.58180810546875,0.15972900390625,0.636383056640625,1.086029052734375
1740247379338788900,10.591788818359374,0.1685638427734375,0.62994384765625,1.081512451171875
1740247379348770800,10.601770751953126,0.164764404296875,0.618377685546875,1.0655517578125
1740247379358752000,10.611751953125,0.152069091796875,0.608978271484375,1.05072021484375
1740247379368734000,10.62173388671875,0.1331939697265625,0.614105224609375,1.0414581298828125
1740247379378715100,10.631715087890624,0.11083984375,0.629486083984375,1.0403289794921875
1740247379388696800,10.64169677734375,0.0850982666015625,0.65020751953125,1.05078125
1740247379398678000,10.651677978515625,0.0572662353515625,0.67889404296875,1.081268310546875
1740247379408660000,10.661659912109375,0.0396881103515625,0.7185211181640625,1.1268310546875
1740247379418641000,10.671640869140624,0.0317840576171875,0.751739501953125,1.146484375
1740247379428622800,10.681622802734376,0.0316619873046875,0.75103759765625,1.1274566650390625
1740247379438603800,10.691603759765625,0.0365142822265625,0.7313385009765625,1.085662841796875
1740247379448586000,10.7015859375,0.0367889404296875,0.7147979736328125,1.0536651611328125
1740247379458567000,10.71156689453125,0.026580810546875,0.7170257568359375,1.0396270751953125
1740247379468549000,10.721549072265624,0.00885009765625,0.7309417724609375,1.036346435546875
1740247379478530000,10.731530029296875,-0.0046539306640625,0.752716064453125,1.0357513427734375
1740247379488512000,10.741511962890625,0.0254974365234375,0.8044586181640625,1.0712127685546875
1740247379498493000,10.751492919921875,0.099578857421875,0.9140625,1.14739990234375
1740247379508475100,10.76147509765625,0.166168212890625,1.0431365966796875,1.188934326171875
1740247379518456000,10.7714560546875,0.183990478515625,1.1025848388671875,1.1344451904296875
1740247379528437800,10.781437744140625,0.1543426513671875,1.0472564697265625,0.969940185546875
1740247379538419000,10.7914189453125,0.1226043701171875,0.9333038330078125,0.759002685546875
1740247379548401000,10.80140087890625,0.09991455078125,0.8302764892578125,0.5751495361328125
1740247379558382000,10.811382080078126,0.0884246826171875,0.73699951171875,0.41583251953125
1740247379568364000,10.821364013671875,0.074981689453125,0.6576690673828125,0.30279541015625
1740247379578345000,10.831344970703125,0.0776519775390625,0.6126861572265625,0.271728515625
1740247379588327000,10.841326904296874,0.0950775146484375,0.6082611083984375,0.3198699951171875
1740247379598307800,10.851307861328126,0.128814697265625,0.61273193359375,0.39947509765625
1740247379608290000,10.8612900390625,0.18524169921875,0.6013031005859375,0.48681640625
1740247379618271000,10.87127099609375,0.2435760498046875,0.5785980224609375,0.560546875
1740247379628253000,10.8812529296875,0.2899932861328125,0.56256103515625,0.616668701171875
1740247379638233900,10.89123388671875,0.3177947998046875,0.5584259033203125,0.6634979248046875
1740247379648216000,10.901216064453125,0.3253631591796875,0.5590057373046875,0.7014007568359375
1740247379658197000,10.911197021484375,0.327117919921875,0.558197021484375,0.7539215087890625
1740247379668179000,10.921178955078124,0.323028564453125,0.5545501708984375,0.81982421875
1740247379678160000,10.931159912109376,0.31573486328125,0.5459136962890625,0.8900146484375
1740247379688142000,10.94114208984375,0.3138885498046875,0.5329132080078125,0.9528961181640625
1740247379698123000,10.951123046875,0.3119964599609375,0.508544921875,0.9980621337890625
1740247379708105000,10.96110498046875,0.30316162109375,0.4734039306640625,1.018829345703125
1740247379718086100,10.971086181640626,0.291595458984375,0.4541473388671875,1.015045166015625
1740247379728068000,10.981068115234375,0.265167236328125,0.457733154296875,0.9970703125
1740247379738049300,10.99104931640625,0.234405517578125,0.475616455078125,0.97381591796875
1740247379748030200,11.0010302734375,0.2057647705078125,0.498321533203125,0.9483795166015625
1740247379758012400,11.011012451171876,0.181365966796875,0.5301666259765625,0.938018798828125
1740247379767993000,11.0209931640625,0.150909423828125,0.5776824951171875,0.9544525146484375
1740247379777975300,11.030975341796875,0.1099700927734375,0.6143951416015625,0.9938812255859375
1740247379787956200,11.040956298828124,0.0720062255859375,0.6319122314453125,1.0712738037109375
1740247379797938200,11.050938232421874,0.0507049560546875,0.638946533203125,1.1935272216796875
1740247379807919400,11.06091943359375,0.0497894287109375,0.63958740234375,1.3325653076171875
1740247379817901000,11.070901123046875,0.0664520263671875,0.6219329833984375,1.4566192626953125
1740247379827882200,11.08088232421875,0.0942230224609375,0.581329345703125,1.5612335205078125
1740247379837864200,11.0908642578125,0.1307525634765625,0.526153564453125,1.6438140869140625
1740247379847845400,11.100845458984375,0.1603851318359375,0.4818878173828125,1.6860198974609375
1740247379857827000,11.1108271484375,0.1820526123046875,0.4557037353515625,1.69549560546875
1740247379867808000,11.12080810546875,0.195648193359375,0.436614990234375,1.706695556640625
1740247379877790200,11.130790283203124,0.2095947265625,0.4136505126953125,1.7323455810546875
1740247379887771100,11.140771240234375,0.2337646484375,0.3871002197265625,1.7635955810546875
1740247379897753300,11.15075341796875,0.2482147216796875,0.354705810546875,1.8096160888671875
1740247379907734300,11.160734375,0.23760986328125,0.3123321533203125,1.88580322265625
1740247379917716200,11.17071630859375,0.213348388671875,0.258148193359375,1.9929351806640625
1740247379927697200,11.180697265625,0.1946563720703125,0.189453125,2.1285247802734375
1740247379937679400,11.190679443359375,0.1978759765625,0.1137542724609375,2.242340087890625
1740247379947660300,11.200660400390625,0.2375030517578125,0.0549774169921875,2.310333251953125
1740247379957642200,11.210642333984374,0.2942657470703125,0.014984130859375,2.304046630859375
1740247379967623200,11.220623046875,0.3579559326171875,-0.0108795166015625,2.2296600341796875
1740247379977605000,11.230605224609375,0.4283905029296875,-0.0090179443359375,2.1141815185546875
1740247379987586300,11.24058642578125,0.497711181640625,0.03570556640625,2.0110321044921875
1740247379997568300,11.250568359375,0.56964111328125,0.1369171142578125,1.964385986328125
1740247380007549200,11.260549072265626,0.622039794921875,0.260284423828125,1.954498291015625
1740247380017531100,11.27053125,0.6484375,0.34832763671875,1.949127197265625
1740247380027512300,11.28051220703125,0.660491943359375,0.3876800537109375,1.9230804443359375
1740247380037494300,11.290494384765625,0.639984130859375,0.37164306640625,1.865020751953125
1740247380047475200,11.30047509765625,0.6005096435546875,0.28887939453125,1.7788848876953125
1740247380057457200,11.31045703125,0.562530517578125,0.1620025634765625,1.662384033203125
1740247380067438000,11.32043798828125,0.5343780517578125,0.052154541015625,1.54705810546875
1740247380077420300,11.330420166015625,0.4973297119140625,0.00872802734375,1.4736785888671875
1740247380087401200,11.340401123046876,0.4556884765625,0.0526123046875,1.456024169921875
1740247380097383200,11.350383056640625,0.4183502197265625,0.1613311767578125,1.4889373779296875
1740247380107364000,11.360364013671875,0.3859100341796875,0.2903900146484375,1.5422210693359375
1740247380117346300,11.37034619140625,0.3414154052734375,0.396209716796875,1.585235595703125
1740247380127327200,11.3803271484375,0.28240966796875,0.4553375244140625,1.591705322265625
1740247380137309400,11.390309326171876,0.2182464599609375,0.47332763671875,1.5624847412109375
1740247380147290000,11.4002900390625,0.15655517578125,0.4701995849609375,1.533843994140625
1740247380157272000,11.41027197265625,0.11187744140625,0.4625701904296875,1.50439453125
1740247380167253200,11.420253173828126,0.07861328125,0.44903564453125,1.4662628173828125
1740247380177235200,11.430235107421876,0.052032470703125,0.4327545166015625,1.4382171630859375
1740247380187216400,11.44021630859375,0.034881591796875,0.417572021484375,1.411712646484375
1740247380197198000,11.450197998046875,0.0247344970703125,0.401519775390625,1.374481201171875
1740247380207179300,11.46017919921875,0.0273590087890625,0.396759033203125,1.325531005859375
1740247380217161200,11.4701611328125,0.035064697265625,0.4001922607421875,1.2766876220703125
1740247380227142100,11.48014208984375,0.048370361328125,0.4137725830078125,1.2271270751953125
1740247380237124000,11.4901240234375,0.0612640380859375,0.432708740234375,1.1848907470703125
1740247380247105000,11.50010498046875,0.0715789794921875,0.4541168212890625,1.1659698486328125
1740247380257087200,11.510087158203126,0.0840301513671875,0.4786376953125,1.168670654296875
1740247380267068200,11.520068115234375,0.0950164794921875,0.4961090087890625,1.1619873046875
1740247380277050400,11.53005029296875,0.1133880615234375,0.502899169921875,1.15264892578125
1740247380287031300,11.54003125,0.139556884765625,0.517333984375,1.1456451416015625
1740247380297013200,11.55001318359375,0.1595001220703125,0.5412445068359375,1.1402740478515625
1740247380306994200,11.559994140625,0.16265869140625,0.5600738525390625,1.1182708740234375
1740247380316976400,11.569976318359375,0.1587982177734375,0.5724639892578125,1.1015167236328125
1740247380326957300,11.579957275390624,0.154052734375,0.5991668701171875,1.103118896484375
1740247380336939000,11.58993896484375,0.1484832763671875,0.63592529296875,1.123291015625
1740247380346920200,11.599920166015625,0.139373779296875,0.667510986328125,1.134765625
1740247380356902100,11.609902099609375,0.119171142578125,0.6873779296875,1.1319732666015625
1740247380366883300,11.61988330078125,0.0931854248046875,0.7044677734375,1.1396942138671875
1740247380376865000,11.629864990234376,0.0751495361328125,0.7383270263671875,1.1723175048828125
1740247380386846200,11.63984619140625,0.0634613037109375,0.7847747802734375,1.2095489501953125
1740247380396828200,11.649828125,0.05462646484375,0.8295135498046875,1.239105224609375
1740247380406809000,11.65980908203125,0.0442047119140625,0.8693389892578125,1.2517852783203125
1740247380416791300,11.669791259765624,0.0277862548828125,0.883331298828125,1.2218017578125
1740247380426772200,11.679772216796875,0.0173797607421875,0.8542633056640625,1.149078369140625
1740247380436754200,11.689754150390625,0.023681640625,0.8118438720703125,1.07073974609375
1740247380446735000,11.699735107421875,0.0552520751953125,0.7880401611328125,1.015625
1740247380456717300,11.70971728515625,0.106719970703125,0.8005523681640625,0.996337890625
1740247380466698200,11.7196982421875,0.1654510498046875,0.8486328125,1.010955810546875
1740247380476680200,11.72968017578125,0.222747802734375,0.93988037109375,1.0496368408203125
1740247380486661000,11.7396611328125,0.2512664794921875,1.0275726318359375,1.0661773681640625
1740247380496643300,11.749643310546874,0.22747802734375,1.027130126953125,0.9875640869140625
1740247380506624300,11.759624267578126,0.160430908203125,0.9195556640625,0.833282470703125
1740247380516606200,11.769606201171875,0.07470703125,0.787872314453125,0.7021484375
1740247380526587100,11.779587158203125,-0.0018310546875,0.70135498046875,0.6484222412109375
1740247380536569000,11.789569091796874,-0.069183349609375,0.6605224609375,0.6377105712890625
1740247380546550300,11.79955029296875,-0.1235809326171875,0.6275787353515625,0.6543731689453125
1740247380556532200,11.8095322265625,-0.1580352783203125,0.59991455078125,0.6959991455078125
1740247380566513400,11.819513427734375,-0.1708831787109375,0.585205078125,0.7283935546875
1740247380576495000,11.8294951171875,-0.1503753662109375,0.58795166015625,0.738861083984375
1740247380586476300,11.839476318359376,-0.1062469482421875,0.604583740234375,0.734222412109375
1740247380596458200,11.849458251953125,-0.0579681396484375,0.623992919921875,0.7298583984375
1740247380606439200,11.859439208984375,-0.01177978515625,0.6465606689453125,0.724151611328125
1740247380616421000,11.869421142578124,0.03314208984375,0.656951904296875,0.71649169921875
1740247380626402000,11.879402099609376,0.1031646728515625,0.65966796875,0.7384490966796875
1740247380636384300,11.88938427734375,0.2360687255859375,0.6930694580078125,0.8542022705078125
1740247380646365200,11.899365234375,0.4244842529296875,0.79241943359375,0.9972991943359375
1740247380656347400,11.909347412109375,0.5565185546875,0.8793182373046875,0.9151153564453125
1740247380666328000,11.919328125,0.5784759521484375,0.8316192626953125,0.5890045166015625
1740247380676310300,11.929310302734375,0.535888671875,0.7005462646484375,0.1920928955078125
1740247380686291200,11.939291259765625,0.455352783203125,0.5997314453125,-0.1026153564453125
1740247380696273400,11.9492734375,0.3681793212890625,0.526885986328125,-0.1361541748046875
1740247380706254300,11.95925439453125,0.3021240234375,0.4719390869140625,0.13055419921875
1740247380716236000,11.969236083984375,0.297149658203125,0.44512939453125,0.640228271484375
1740247380726216200,11.97921630859375,0.3721771240234375,0.3908843994140625,1.18157958984375
1740247380736198400,11.989198486328124,0.488525390625,0.2745513916015625,1.4716796875
1740247380746179300,11.999179443359376,0.4993743896484375,0.125732421875,1.505218505859375
1740247380756161500,12.00916162109375,0.4121551513671875,0.032623291015625,1.326568603515625
1740247380766142500,12.019142578125,0.3531951904296875,0.0306396484375,1.0702667236328125
1740247380776124400,12.02912451171875,0.3345489501953125,0.072113037109375,0.925933837890625
1740247380786105300,12.039105224609376,0.328826904296875,0.1416778564453125,0.9727325439453125
1740247380796087600,12.049087646484375,0.3223724365234375,0.235382080078125,1.1637725830078125
1740247380806068500,12.059068359375,0.3086395263671875,0.320709228515625,1.383270263671875
1740247380816050400,12.069050537109375,0.272552490234375,0.3684844970703125,1.5417633056640625
1740247380826031400,12.07903125,0.2184295654296875,0.375091552734375,1.6225433349609375
1740247380836013300,12.089013427734375,0.1806640625,0.3441619873046875,1.6760711669921875
1740247380845994500,12.098994384765625,0.203277587890625,0.2725830078125,1.726165771484375
1740247380855976400,12.1089765625,0.26824951171875,0.2181854248046875,1.745941162109375
1740247380865957400,12.118957275390626,0.32647705078125,0.2165679931640625,1.7573699951171875
1740247380875939300,12.128939208984375,0.329193115234375,0.24530029296875,1.779541015625
1740247380885920500,12.13892041015625,0.286712646484375,0.2540435791015625,1.8060150146484375
1740247380895902500,12.14890234375,0.2553558349609375,0.226226806640625,1.8709259033203125
1740247380905883400,12.15888330078125,0.2736968994140625,0.186492919921875,1.9823760986328125
1740247380915865300,12.168865234375,0.322418212890625,0.143829345703125,2.116058349609375
1740247380925846300,12.17884619140625,0.3855133056640625,0.111602783203125,2.205657958984375
1740247380935828500,12.188828369140625,0.4279327392578125,0.0810089111328125,2.2213592529296875
1740247380945809400,12.198809326171874,0.4376220703125,0.0156097412109375,2.15765380859375
1740247380955791400,12.208791259765626,0.419219970703125,-0.0848388671875,2.0760498046875
1740247380965772300,12.218772216796875,0.379974365234375,-0.18353271484375,2.019073486328125
1740247380975754500,12.22875439453125,0.3258514404296875,-0.2490692138671875,1.978057861328125
1740247380985735400,12.2387353515625,0.27801513671875,-0.2747802734375,1.9558868408203125
1740247380995717600,12.248717529296876,0.24884033203125,-0.2958221435546875,1.915252685546875
1740247381005698600,12.258698486328125,0.25335693359375,-0.3224029541015625,1.8267669677734375
1740247381015680300,12.26868017578125,0.2798004150390625,-0.3516693115234375,1.730499267578125
1740247381025661400,12.278661376953124,0.312652587890625,-0.3328094482421875,1.648345947265625
1740247381035643400,12.288643310546876,0.3378448486328125,-0.235626220703125,1.602325439453125
1740247381045624600,12.29862451171875,0.36199951171875,-0.104888916015625,1.5709686279296875
1740247381055606300,12.308606201171875,0.365234375,-0.00714111328125,1.52960205078125
1740247381065587500,12.31858740234375,0.3420257568359375,0.0363922119140625,1.479156494140625
1740247381075569400,12.3285693359375,0.2974090576171875,0.0458831787109375,1.420623779296875
1740247381085550300,12.33855029296875,0.2429962158203125,0.0591583251953125,1.3884735107421875
1740247381095532500,12.348532470703125,0.184417724609375,0.1035003662109375,1.426544189453125
1740247381105513200,12.35851318359375,0.12469482421875,0.1675262451171875,1.5256195068359375
1740247381115495400,12.368495361328126,0.08355712890625,0.239593505859375,1.6468353271484375
1740247381125476400,12.378476318359375,0.0664825439453125,0.3037872314453125,1.7249755859375
1740247381135458600,12.38845849609375,0.06964111328125,0.3644256591796875,1.7375640869140625
1740247381145439500,12.398439453125,0.0713348388671875,0.407318115234375,1.682952880859375
1740247381155421400,12.40842138671875,0.0642242431640625,0.42657470703125,1.582916259765625
1740247381165402400,12.41840234375,0.05218505859375,0.4236297607421875,1.4590606689453125
1740247381175384600,12.428384521484375,0.0406494140625,0.4048919677734375,1.35919189453125
1740247381185365500,12.438365478515625,0.037261962890625,0.3783416748046875,1.2975921630859375
1740247381195347200,12.44834716796875,0.0566558837890625,0.3614501953125,1.2442779541015625
1740247381205328400,12.458328369140625,0.0782470703125,0.3535614013671875,1.1934051513671875
1740247381215310300,12.468310302734375,0.0853271484375,0.348175048828125,1.147979736328125
1740247381225291500,12.47829150390625,0.0968475341796875,0.3453826904296875,1.1028900146484375
1740247381235273500,12.4882734375,0.110015869140625,0.3457489013671875,1.0646820068359375
1740247381245254400,12.49825439453125,0.119384765625,0.3438720703125,1.033416748046875
1740247381255236400,12.508236328125,0.1262359619140625,0.3422088623046875,1.0047760009765625
1740247381265217300,12.51821728515625,0.1275787353515625,0.3415374755859375,0.9795074462890625
1740247381275199500,12.528199462890624,0.12213134765625,0.343353271484375,0.9628448486328125
1740247381285181400,12.538181396484376,0.1178131103515625,0.3450164794921875,0.950103759765625
1740247381295162400,12.548162353515625,0.1154022216796875,0.351593017578125,0.9439239501953125
1740247381305144300,12.558144287109375,0.1198883056640625,0.358734130859375,0.9372711181640625
1740247381315125500,12.56812548828125,0.1264495849609375,0.374725341796875,0.9388885498046875
1740247381325107500,12.578107421875,0.1331634521484375,0.3974456787109375,0.931793212890625
1740247381335088400,12.58808837890625,0.1366424560546875,0.4178314208984375,0.926361083984375
1740247381345070300,12.5980703125,0.1474761962890625,0.43316650390625,0.941925048828125
1740247381355051500,12.608051513671874,0.1613616943359375,0.4495697021484375,0.9751739501953125
1740247381365033500,12.618033447265624,0.1850738525390625,0.4654388427734375,1.00616455078125
1740247381375014400,12.628014404296875,0.2144012451171875,0.4801025390625,1.0185699462890625
1740247381384996400,12.637996337890625,0.2387542724609375,0.4979705810546875,1.0528106689453125
1740247381394977300,12.647977294921875,0.2601470947265625,0.529449462890625,1.088714599609375
1740247381404959500,12.65795947265625,0.2779388427734375,0.56256103515625,1.10662841796875
1740247381414940400,12.6679404296875,0.2792510986328125,0.5850830078125,1.112274169921875
1740247381424922400,12.67792236328125,0.2722930908203125,0.6002044677734375,1.1150665283203125
1740247381434903300,12.6879033203125,0.258209228515625,0.6170654296875,1.13311767578125
1740247381444885500,12.697885498046874,0.237518310546875,0.637451171875,1.1451263427734375
1740247381454866400,12.707866455078126,0.211578369140625,0.65185546875,1.1343994140625
1740247381464848600,12.7178486328125,0.1837158203125,0.67523193359375,1.1075897216796875
1740247381474829300,12.727829345703125,0.161712646484375,0.7167510986328125,1.0664215087890625
1740247381484811300,12.737811279296874,0.1474761962890625,0.773193359375,1.00494384765625
1740247381494792400,12.74779248046875,0.1287078857421875,0.8132781982421875,0.902130126953125
1740247381504774400,12.7577744140625,0.1027679443359375,0.818572998046875,0.7544708251953125
1740247381514755600,12.767755615234375,0.06878662109375,0.7979888916015625,0.5847015380859375
1740247381524737300,12.7777373046875,0.0259552001953125,0.7725372314453125,0.4307403564453125
1740247381534718500,12.787718505859376,-0.0276031494140625,0.7750701904296875,0.278289794921875
1740247381544700400,12.797700439453125,-0.086669921875,0.7945098876953125,0.1041412353515625
1740247381554681300,12.807681396484375,-0.148101806640625,0.788482666015625,-0.022003173828125
1740247381564663300,12.817663330078124,-0.21356201171875,0.7719268798828125,-0.0196685791015625
1740247381574644200,12.827644287109376,-0.2553863525390625,0.7873077392578125,0.123809814453125
1740247381584626400,12.83762646484375,-0.262420654296875,0.8191070556640625,0.3653717041015625
1740247381594607400,12.847607421875,-0.2338714599609375,0.8282470703125,0.6653289794921875
1740247381604589600,12.857589599609375,-0.169677734375,0.8295135498046875,0.9384765625
1740247381614570500,12.867570556640626,-0.0985107421875,0.83349609375,1.113311767578125
1740247381624552400,12.877552490234375,-0.03521728515625,0.8326873779296875,1.1682891845703125
1740247381634533400,12.887533447265625,0.02557373046875,0.8036956787109375,1.147216796875
1740247381644515600,12.897515625,0.1074371337890625,0.7274017333984375,1.1177978515625
1740247381654496500,12.90749658203125,0.224609375,0.607208251953125,1.1361846923828125
1740247381664478200,12.917478271484375,0.383880615234375,0.4933624267578125,1.1934356689453125
1740247381674459400,12.92745947265625,0.5660247802734375,0.436492919921875,1.2117767333984375
1740247381684441300,12.93744140625,0.7036285400390625,0.4147796630859375,1.125640869140625
1740247381694422500,12.947422607421874,0.7628173828125,0.4051666259765625,0.9656524658203125
1740247381704404500,12.957404541015626,0.7752685546875,0.428619384765625,0.8159027099609375
1740247381714385400,12.967385498046875,0.7583160400390625,0.47637939453125,0.7302398681640625
1740247381724367600,12.97736767578125,0.7249908447265625,0.521270751953125,0.7177734375
1740247381734348500,12.9873486328125,0.654083251953125,0.5591888427734375,0.79034423828125
1740247381744330800,12.997330810546876,0.5238189697265625,0.5747528076171875,0.9101409912109375
1740247381754311700,13.007311767578125,0.391021728515625,0.5603179931640625,1.004669189453125
1740247381764293600,13.017293701171875,0.3204803466796875,0.534698486328125,1.0431060791015625
1740247381774274600,13.027274658203124,0.2481842041015625,0.5296173095703125,1.0249786376953125
1740247381784256800,13.0372568359375,0.16802978515625,0.5424346923828125,1.0305633544921875
1740247381794237700,13.04723779296875,0.1684722900390625,0.561859130859375,1.1073455810546875
1740247381804219400,13.057219482421875,0.173431396484375,0.588287353515625,1.2258148193359375
1740247381814200600,13.06720068359375,0.1940460205078125,0.6095428466796875,1.3523406982421875
1740247381824182500,13.0771826171875,0.2283172607421875,0.6160430908203125,1.4637451171875
