time,seconds_elapsed,z,y,x
1740247368778404400,0.031404296875,-0.19421501457691193,1.886666178703308,-0.5255132913589478
1740247368788385300,0.04138525390625,0.010656905360519886,1.8373563289642334,-0.5958974957466125
1740247368798367200,0.0513671875,0.027729365974664688,1.0734102725982666,-0.5993462800979614
1740247368808348200,0.06134814453125,-0.12360876053571701,0.4667637050151825,-0.2890046536922455
1740247368818329000,0.0713291015625,-0.31121382117271423,0.0038685076870024204,0.18439780175685883
1740247368828311300,0.081311279296875,-0.46253249049186707,-0.46886762976646423,0.8256456851959229
1740247368838292200,0.091292236328125,-0.5855918526649475,-1.0730464458465576,1.5296499729156494
1740247368848274200,0.101274169921875,-0.7058939933776855,-1.7244620323181152,2.1899590492248535
1740247368858255000,0.111255126953125,-0.6603347659111023,-1.9183433055877686,2.6875555515289307
1740247368868237300,0.1212373046875,-0.4946858882904053,-0.7616909742355347,2.7199807167053223
1740247368878218200,0.13121826171875,-0.1944592297077179,1.3052387237548828,1.97909677028656
1740247368888199400,0.141199462890625,0.029230322688817978,1.7142901420593262,1.6711617708206177
1740247368898181000,0.15118115234375,0.2368575483560562,1.0323964357376099,1.4729357957839966
1740247368908162000,0.161162109375,-0.003793406533077359,0.9390859603881836,0.7832868099212646
1740247368918144300,0.171144287109375,-0.2851182818412781,1.111258864402771,0.3787667453289032
1740247368928125200,0.181125244140625,-0.34019431471824646,1.1420018672943115,0.36620596051216125
1740247368938107100,0.191107177734375,-0.2871886193752289,1.0074647665023804,0.46211570501327515
1740247368948088000,0.201088134765625,-0.20464928448200226,0.7780550122261047,0.5981491804122925
1740247368958069200,0.2110693359375,-0.30521929264068604,0.5372543931007385,0.6578383445739746
1740247368968051200,0.22105126953125,-0.5273138880729675,0.217126727104187,0.671859085559845
1740247368978032000,0.2310322265625,-0.7027456164360046,-0.06485596299171448,0.6964048743247986
1740247368988014300,0.241014404296875,-0.7068524956703186,-0.22700917720794678,0.6946360468864441
1740247368997995300,0.250995361328125,-0.5738739371299744,-0.3731490671634674,0.6447763442993164
1740247369007977200,0.260977294921875,-0.42793482542037964,-0.5951917171478271,0.5633459091186523
1740247369017958100,0.270958251953125,-0.3933803141117096,-0.971322238445282,0.5039598345756531
1740247369027940400,0.2809404296875,-0.47039681673049927,-1.5091265439987183,0.46518126130104065
1740247369037921300,0.29092138671875,-0.3097091317176819,-1.4861658811569214,0.21122542023658752
1740247369047902200,0.300902099609375,0.4071624279022217,-0.2024865299463272,-0.34946373105049133
1740247369057884200,0.31088427734375,0.8591405749320984,0.9087997078895569,-0.5190932154655457
1740247369067865000,0.320864990234375,0.8832203149795532,1.3782747983932495,-0.4161953628063202
1740247369077847300,0.330847412109375,0.7545414566993713,1.587525725364685,-0.24771392345428467
1740247369087828200,0.340828125,0.6304312348365784,1.7468416690826416,-0.12483727186918259
1740247369097810200,0.35081005859375,0.47641927003860474,1.8960412740707397,-0.06903845816850662
1740247369107791000,0.360791015625,0.2501874566078186,1.9392949342727661,-0.04038124531507492
1740247369117772000,0.37077197265625,-0.022831812500953674,1.8134081363677979,-0.004917793441563845
1740247369127754200,0.380754150390625,-0.2716645300388336,1.6310389041900635,0.014085192233324051
1740247369137735200,0.390735107421875,-0.43804657459259033,1.489050030708313,0.007510913070291281
1740247369147717000,0.400717041015625,-0.49009034037590027,1.534566879272461,-0.0585048533976078
1740247369157698000,0.410697998046875,-0.43603482842445374,1.864812970161438,-0.15675818920135498
1740247369167680300,0.42068017578125,-0.37968581914901733,2.2853543758392334,-0.24716424942016602
1740247369177661200,0.4306611328125,-0.402726411819458,2.6380937099456787,-0.3136812150478363
1740247369187642000,0.44064208984375,-0.5307765007019043,2.804074764251709,-0.3531987965106964
1740247369197624300,0.450624267578125,-0.6893219351768494,2.7494401931762695,-0.37873318791389465
1740247369207605200,0.460605224609375,-0.7579249739646912,2.5991146564483643,-0.4203866422176361
1740247369217587200,0.470587158203125,-0.699213981628418,2.4663708209991455,-0.5128262639045715
1740247369227568000,0.480568115234375,-0.53825443983078,2.385578155517578,-0.665887713432312
1740247369237550300,0.49055029296875,-0.38513171672821045,2.295609951019287,-0.8587096333503723
1740247369247531300,0.50053125,-0.37935665249824524,2.164529323577881,-1.0580893754959106
1740247369257512200,0.51051220703125,-0.5011057257652283,2.025174617767334,-1.2633775472640991
1740247369267494100,0.520494140625,-0.6858936548233032,2.0542972087860107,-1.4704707860946655
1740247369277475000,0.53047509765625,-0.914393424987793,2.4997963905334473,-1.6137067079544067
1740247369287457300,0.540457275390625,-0.9890974760055542,3.560271978378296,-1.6206344366073608
1740247369297438200,0.550438232421875,-0.824666440486908,4.6921210289001465,-1.4745148420333862
1740247369307420200,0.560420166015625,-0.5827635526657104,5.268919467926025,-1.1775422096252441
1740247369317401000,0.570401123046875,-0.4798898994922638,5.300357341766357,-0.7711400985717773
1740247369327382300,0.58038232421875,-0.5100589990615845,4.997554779052734,-0.24888890981674194
1740247369337364200,0.5903642578125,-0.6745027899742126,4.359579086303711,0.386286199092865
1740247369347345200,0.60034521484375,-1.2482966184616089,4.113829612731934,0.985140323638916
1740247369357327000,0.6103271484375,-2.135671854019165,4.4652180671691895,1.3710331916809082
1740247369367308000,0.62030810546875,-2.837913751602173,4.534980773925781,1.5946584939956665
1740247369377290200,0.630290283203125,-3.1931450366973877,4.427867889404297,1.6291583776474
1740247369387271200,0.640271240234375,-3.322420120239258,4.334179878234863,1.487187147140503
1740247369397253400,0.65025341796875,-3.3508551120758057,4.2473859786987305,1.2333530187606812
1740247369407234300,0.660234375,-3.402601480484009,4.047781467437744,0.9108633995056152
1740247369417215200,0.67021533203125,-3.5317249298095703,3.5443880558013916,0.5124289393424988
1740247369427197200,0.680197265625,-3.775683641433716,2.8065977096557617,-0.0865175798535347
1740247369437178000,0.69017822265625,-3.997635841369629,2.2229812145233154,-0.6971633434295654
1740247369447160300,0.700160400390625,-4.032793998718262,1.7656078338623047,-1.182120680809021
1740247369457141200,0.710141357421875,-4.00927209854126,1.2780160903930664,-1.6032665967941284
1740247369467123200,0.720123291015625,-3.9871788024902344,0.9814746975898743,-1.923736572265625
1740247369477104000,0.730104248046875,-4.115381240844727,0.9353501200675964,-2.1007611751556396
1740247369487085000,0.7400849609375,-4.290759086608887,1.0467171669006348,-2.169201374053955
1740247369497067300,0.7500673828125,-4.389877796173096,1.100138545036316,-2.1341452598571777
1740247369507048200,0.760048095703125,-4.3345112800598145,0.9827258586883545,-2.044074296951294
1740247369517030100,0.770030029296875,-4.183605670928955,0.803364634513855,-1.9498770236968994
1740247369527011000,0.780010986328125,-3.9606385231018066,0.6720737218856812,-1.8919559717178345
1740247369536993300,0.7899931640625,-3.6716511249542236,0.591981828212738,-1.8416967391967773
1740247369546974200,0.79997412109375,-3.3622019290924072,0.5064690709114075,-1.8154451847076416
1740247369556955100,0.809955078125,-3.053778648376465,0.4469543397426605,-1.821036458015442
1740247369566937000,0.81993701171875,-2.776829481124878,0.39826348423957825,-1.856646180152893
1740247369576918000,0.82991796875,-2.5316097736358643,0.2761426270008087,-1.904099941253662
1740247369586900200,0.839900146484375,-2.298785448074341,0.14862756431102753,-1.9250843524932861
1740247369596881200,0.849881103515625,-2.0853676795959473,-0.04013090953230858,-1.9268348217010498
1740247369606863400,0.85986328125,-1.8548074960708618,-0.14818547666072845,-1.9125256538391113
1740247369616844300,0.86984423828125,-1.572890043258667,-0.03759371489286423,-1.8812687397003174
1740247369626826200,0.879826171875,-1.222884178161621,0.29848816990852356,-1.8134385347366333
1740247369636807200,0.88980712890625,-0.7906528115272522,0.856717050075531,-1.6883172988891602
1740247369646788000,0.8997880859375,-0.28778836131095886,1.30179762840271,-1.4824979305267334
1740247369656770300,0.909770263671875,0.23090459406375885,1.4028387069702148,-1.1609598398208618
1740247369666751200,0.919751220703125,0.6591254472732544,1.2263087034225464,-0.7370442152023315
1740247369676733200,0.929733154296875,0.9251744151115417,0.7639373540878296,-0.2319762408733368
1740247369686714000,0.939714111328125,1.1124486923217773,0.17031075060367584,0.3043934404850006
1740247369696696300,0.9496962890625,1.2365552186965942,-0.21069546043872833,0.814645528793335
1740247369706676700,0.9596767578125,1.2608650922775269,-0.1868087649345398,1.2654236555099487
1740247369716657700,0.96965771484375,1.0525052547454834,-0.09970342367887497,1.5035350322723389
1740247369726639900,0.979639892578125,0.7438850402832031,0.09990689158439636,1.634658932685852
1740247369736620500,0.98962060546875,0.2602161467075348,0.38367095589637756,1.6496706008911133
1740247369746602800,0.999602783203125,-0.3796570599079132,0.6653274297714233,1.5967496633529663
1740247369756583700,1.009583740234375,-1.059710144996643,0.8551990985870361,1.510938048362732
1740247369766565600,1.019565673828125,-1.5283290147781372,0.7076588869094849,1.4103776216506958
1740247369776546800,1.029546875,-1.7133145332336426,0.38689950108528137,1.2945644855499268
1740247369786527700,1.03952783203125,-1.6583621501922607,0.14894074201583862,1.171326994895935
1740247369796509700,1.049509765625,-1.4416484832763672,-0.10527954995632172,1.0553630590438843
1740247369806490600,1.05949072265625,-1.1221388578414917,-0.2714911699295044,0.944057285785675
1740247369816472800,1.069472900390625,-0.7318015098571777,-0.4203064739704132,0.8571450710296631
1740247369826453800,1.079453857421875,-0.32110291719436646,-0.6266915798187256,0.8093881607055664
1740247369836435500,1.089435546875,0.11838097125291824,-0.9596836566925049,0.8465397953987122
1740247369846416600,1.099416748046875,0.6127408742904663,-1.2780888080596924,0.9772698283195496
1740247369856398600,1.109398681640625,1.1948778629302979,-1.5252552032470703,1.1723439693450928
1740247369866379800,1.1193798828125,1.8011128902435303,-1.6552555561065674,1.400357723236084
1740247369876360700,1.129360595703125,2.246647834777832,-1.5599851608276367,1.6295565366744995
1740247369886342700,1.1393427734375,2.418985605239868,-1.1708548069000244,1.8141162395477295
1740247369896323600,1.149323486328125,2.2878670692443848,-0.554096519947052,1.903434157371521
1740247369906305500,1.159305419921875,2.032275438308716,-0.058222558349370956,1.8646132946014404
1740247369916286700,1.16928662109375,2.1224451065063477,-0.1701970249414444,1.6895203590393066
1740247369926268700,1.1792685546875,2.568742513656616,-0.5361031293869019,1.386663794517517
1740247369936249900,1.189249755859375,3.1773319244384766,-0.6357021331787109,0.9218865036964417
1740247369946230500,1.19923046875,3.732802391052246,-0.4719286561012268,0.28339895606040955
1740247369956212700,1.209212646484375,4.1199846267700195,-0.32241079211235046,-0.4339354634284973
1740247369966193700,1.219193603515625,4.277266979217529,-0.23803865909576416,-1.131682276725769
1740247369976175900,1.22917578125,4.170204162597656,-0.10759197175502777,-1.6919714212417603
1740247369986156800,1.23915673828125,3.8332788944244385,-0.06858385354280472,-1.9818147420883179
1740247369996138500,1.249138427734375,3.4711148738861084,-0.2410387098789215,-1.965654730796814
1740247370006119700,1.25911962890625,3.1975491046905518,-0.584743857383728,-1.6622889041900635
1740247370016100600,1.2691005859375,3.086162567138672,-1.0036205053329468,-1.1670550107955933
1740247370026082800,1.279082763671875,3.1015632152557373,-1.3306553363800049,-0.5139999389648438
1740247370036063700,1.289063720703125,3.190279960632324,-1.506919026374817,0.27628380060195923
1740247370046045700,1.299045654296875,3.306448459625244,-1.5983933210372925,1.1501615047454834
1740247370056026600,1.309026611328125,3.4054317474365234,-1.569814682006836,2.0669524669647217
1740247370066008600,1.319008544921875,3.5045857429504395,-1.4529756307601929,3.0123062133789062
1740247370075989800,1.32898974609375,3.660245656967163,-1.3670594692230225,3.981755018234253
1740247370085971700,1.3389716796875,3.7992725372314453,-1.3228267431259155,4.923429489135742
1740247370095952600,1.34895263671875,3.837416648864746,-1.2769463062286377,5.788465976715088
1740247370105933600,1.35893359375,3.795710325241089,-1.1275866031646729,6.4661760330200195
1740247370115915800,1.368915771484375,3.7723960876464844,-0.8458151817321777,6.851078987121582
1740247370125896700,1.378896728515625,3.833936929702759,-0.4273686408996582,6.874775409698486
1740247370135878700,1.388878662109375,3.9656121730804443,0.021200094372034073,6.603640079498291
1740247370145859800,1.39885986328125,4.050987243652344,0.3850715160369873,6.243508815765381
1740247370155841500,1.408841552734375,4.013340473175049,0.625830888748169,5.944610595703125
1740247370165822700,1.41882275390625,3.871122121810913,0.8237119913101196,5.7206501960754395
1740247370175803600,1.4288037109375,3.687281608581543,1.046205997467041,5.525017261505127
1740247370185785900,1.438785888671875,3.5474390983581543,1.2562572956085205,5.313741207122803
1740247370195766800,1.448766845703125,3.4962079524993896,1.4477699995040894,5.047542572021484
1740247370205748500,1.45874853515625,3.4944841861724854,1.6367055177688599,4.6853718757629395
1740247370215729700,1.468729736328125,3.494011402130127,1.8172374963760376,4.23855447769165
1740247370225711600,1.478711669921875,3.4797279834747314,1.9854941368103027,3.712249994277954
1740247370235692800,1.48869287109375,3.43225359916687,2.045381546020508,3.1342530250549316
1740247370245674500,1.498674560546875,3.336610794067383,1.9802026748657227,2.5618507862091064
1740247370255655700,1.50865576171875,3.181617498397827,1.8013650178909302,2.007500410079956
1740247370265636600,1.51863671875,2.975151538848877,1.5361363887786865,1.485600471496582
1740247370275618600,1.52861865234375,2.7484548091888428,1.2302470207214355,0.9810576438903809
1740247370285599700,1.538599853515625,2.5452346801757812,0.8744553327560425,0.4965650141239166
1740247370295581700,1.548581787109375,2.3873097896575928,0.4672558605670929,0.030128074809908867
1740247370305562600,1.558562744140625,2.2790024280548096,0.0684933066368103,-0.3572409451007843
1740247370315544600,1.568544677734375,2.299264907836914,-0.3756308853626251,-0.6646861433982849
1740247370325525800,1.57852587890625,2.45336651802063,-0.8889080286026001,-0.9685426950454712
1740247370335506700,1.588506591796875,2.637458086013794,-1.3955861330032349,-1.3394501209259033
1740247370345489000,1.598489013671875,2.6642842292785645,-1.7725142240524292,-1.843056559562683
1740247370355469800,1.6084697265625,2.3371407985687256,-1.9518879652023315,-2.429917812347412
1740247370365451500,1.618451416015625,1.5540399551391602,-1.9178099632263184,-2.970893621444702
1740247370375432700,1.6284326171875,0.40388941764831543,-1.640570044517517,-3.405566453933716
1740247370385414700,1.63841455078125,-0.8408083915710449,-1.4677364826202393,-3.7419469356536865
1740247370395395800,1.648395751953125,-2.0035014152526855,-1.560178279876709,-3.887735366821289
1740247370405377500,1.65837744140625,-2.935178518295288,-1.537230134010315,-3.9767684936523438
1740247370415358700,1.668358642578125,-3.6159250736236572,-1.82951021194458,-4.01121711730957
1740247370425339600,1.678339599609375,-4.115019798278809,-2.065532922744751,-4.024159908294678
1740247370435321600,1.688321533203125,-4.493274688720703,-2.058199882507324,-4.011590480804443
1740247370445302800,1.698302734375,-4.731185436248779,-1.7986462116241455,-3.941321849822998
1740247370455284500,1.708284423828125,-4.838951110839844,-1.2762970924377441,-3.813904285430908
1740247370465265700,1.718265625,-4.8319830894470215,-0.6345170140266418,-3.6133852005004883
1740247370475247600,1.72824755859375,-4.668506622314453,-0.047028496861457825,-3.339272975921631
1740247370485228800,1.738228759765625,-4.343546390533447,0.4164065420627594,-3.0207996368408203
1740247370495209700,1.748209716796875,-3.9496169090270996,0.7827882766723633,-2.734261989593506
1740247370505191700,1.758191650390625,-3.6936938762664795,1.1370220184326172,-2.5748581886291504
1740247370515172600,1.768172607421875,-3.6414802074432373,1.3849574327468872,-2.541825532913208
1740247370525154600,1.778154541015625,-3.720494031906128,1.4553653001785278,-2.5865349769592285
1740247370535135700,1.7881357421875,-3.869615077972412,1.442710280418396,-2.711848735809326
1740247370545117700,1.79811767578125,-4.036346912384033,1.4165915250778198,-2.885124444961548
1740247370555099000,1.808098876953125,-4.1873250007629395,1.4134773015975952,-3.061915397644043
1740247370565080600,1.81808056640625,-4.3036675453186035,1.4579014778137207,-3.1895997524261475
1740247370575061500,1.8280615234375,-4.351807117462158,1.5266793966293335,-3.228814125061035
1740247370585042700,1.838042724609375,-4.354189395904541,1.6161190271377563,-3.1789982318878174
1740247370595024600,1.848024658203125,-4.34967565536499,1.7333945035934448,-3.0337095260620117
1740247370605005800,1.858005859375,-4.367802143096924,1.844382882118225,-2.81453537940979
1740247370614987500,1.867987548828125,-4.435267925262451,1.9442987442016602,-2.541984796524048
1740247370624968700,1.87796875,-4.561307907104492,2.067061185836792,-2.2303709983825684
1740247370634950700,1.88795068359375,-4.77720832824707,2.220822334289551,-1.857334852218628
1740247370644931600,1.897931640625,-5.069919586181641,2.3274307250976562,-1.421655535697937
1740247370654913500,1.90791357421875,-5.370471000671387,2.317784547805786,-0.937558650970459
1740247370664894500,1.91789453125,-5.608618259429932,2.182232618331909,-0.43200254440307617
1740247370674875600,1.927875732421875,-5.733421325683594,1.9641481637954712,0.05952298268675804
1740247370684857600,1.937857666015625,-5.737279415130615,1.6971139907836914,0.47902119159698486
1740247370694838800,1.9478388671875,-5.639540672302246,1.4258838891983032,0.7918453812599182
1740247370704821200,1.9578212890625,-5.486125469207764,1.2200162410736084,0.9655607342720032
1740247370714802200,1.96780224609375,-5.302005290985107,1.0667182207107544,0.9925023317337036
1740247370724784400,1.977784423828125,-5.099548816680908,0.861414909362793,0.9055194854736328
1740247370734765300,1.987765380859375,-4.895268440246582,0.6317270994186401,0.7190936803817749
1740247370744747500,1.99774755859375,-4.728446960449219,0.4298989176750183,0.4493192136287689
1740247370754728200,2.007728271484375,-4.607030868530273,0.2772643566131592,0.19436176121234894
1740247370764709000,2.017709228515625,-4.488049507141113,0.16863082349300385,0.06069796904921532
1740247370774691300,2.02769140625,-4.308360576629639,0.06799396127462387,0.06282796710729599
1740247370784672300,2.03767236328125,-4.027341842651367,0.003847468877211213,0.16011856496334076
1740247370794654500,2.047654541015625,-3.631179094314575,-0.026450516656041145,0.3310719430446625
1740247370804635400,2.057635498046875,-3.1525416374206543,-0.042392462491989136,0.5339651107788086
1740247370814617300,2.067617431640625,-2.6217339038848877,-0.07822210341691971,0.7355602979660034
1740247370824598300,2.077598388671875,-2.0659682750701904,-0.10923460870981216,0.9084106087684631
1740247370834579200,2.0875791015625,-1.4519364833831787,-0.1437118947505951,1.0440737009048462
1740247370844561400,2.0975615234375,-0.7925018668174744,-0.17522162199020386,1.1225359439849854
1740247370854542300,2.107542236328125,-0.12803412973880768,-0.1831407994031906,1.1393133401870728
1740247370864524300,2.117524169921875,0.4717203974723816,-0.17058318853378296,1.0811070203781128
1740247370874505200,2.127505126953125,0.9760554432868958,-0.13571389019489288,0.9480757713317871
1740247370884487400,2.1374873046875,1.4067671298980713,-0.08267490565776825,0.7432736158370972
1740247370894468400,2.14746826171875,1.813319444656372,-0.03233104199171066,0.5016891956329346
1740247370904450300,2.1574501953125,2.200035810470581,-0.0267754215747118,0.2266845405101776
1740247370914431200,2.16743115234375,2.4691803455352783,-0.2389766275882721,-0.07224037498235703
1740247370924412200,2.177412109375,2.7255795001983643,-0.40613019466400146,-0.3915480673313141
1740247370934394400,2.187394287109375,2.955681800842285,-0.5572552680969238,-0.7205344438552856
1740247370944375300,2.197375244140625,3.0206151008605957,-1.0222437381744385,-1.0794780254364014
1740247370954357500,2.207357421875,3.1212375164031982,-1.4883618354797363,-1.521256446838379
1740247370964338200,2.217338134765625,3.374149799346924,-1.7248668670654297,-2.016493797302246
1740247370974320400,2.2273203125,3.672049045562744,-1.7308032512664795,-2.468236207962036
1740247370984301300,2.23730126953125,3.88832950592041,-1.6285275220870972,-2.757753610610962
1740247370994283300,2.247283203125,3.928795337677002,-1.6117056608200073,-2.865816354751587
1740247371004264400,2.257264404296875,3.9340240955352783,-1.4216067790985107,-2.7817699909210205
1740247371014245400,2.267245361328125,3.984799385070801,-0.6975724101066589,-2.424116849899292
1740247371024227300,2.277227294921875,3.930966377258301,0.08086448907852173,-1.8026723861694336
1740247371034208300,2.287208251953125,3.7927916049957275,0.26851320266723633,-1.039414405822754
1740247371044190500,2.2971904296875,3.680408477783203,0.2154390811920166,-0.1604064553976059
1740247371054171400,2.30717138671875,3.7051877975463867,0.06884218007326126,0.7250333428382874
1740247371064153000,2.317153076171875,3.851752996444702,-0.06314248591661453,1.513258934020996
1740247371074134300,2.32713427734375,4.023008823394775,-0.10066802054643631,2.1078040599823
1740247371084116200,2.3371162109375,4.157715320587158,-0.04080308973789215,2.500612735748291
1740247371094097400,2.347097412109375,4.217282295227051,0.04430621117353439,2.73399019241333
1740247371104078300,2.357078369140625,4.223995685577393,0.10243236273527145,2.8584647178649902
1740247371114060300,2.367060302734375,4.210305690765381,0.13906441628932953,2.9175710678100586
1740247371124041200,2.377041259765625,4.229312896728516,0.15467984974384308,2.959059476852417
1740247371134023200,2.387023193359375,4.306743144989014,0.16103655099868774,2.988368034362793
1740247371144004400,2.39700439453125,4.429821968078613,0.13571175932884216,3.002352237701416
1740247371153986300,2.406986328125,4.571249961853027,0.10442494601011276,2.975132703781128
1740247371163967500,2.416967529296875,4.697359085083008,0.13258494436740875,2.906726360321045
1740247371173948200,2.4269482421875,4.786884784698486,0.21355915069580078,2.7787094116210938
1740247371183930400,2.436930419921875,4.856987953186035,0.3530600666999817,2.5778844356536865
1740247371193911300,2.446911376953125,4.9211883544921875,0.527957558631897,2.3525373935699463
1740247371203893200,2.456893310546875,4.959367275238037,0.6562630534172058,2.16888165473938
1740247371213874400,2.46687451171875,4.914929389953613,0.7098967432975769,2.1162261962890625
1740247371223856000,2.476856201171875,4.811557769775391,0.6902931928634644,2.1989567279815674
1740247371233837300,2.48683740234375,4.684882640838623,0.6631180644035339,2.3304989337921143
1740247371243819300,2.4968193359375,4.508527755737305,0.6672614216804504,2.453420877456665
1740247371253800400,2.506800537109375,4.301334381103516,0.6948789358139038,2.5552573204040527
1740247371263781400,2.516781494140625,4.104933261871338,0.7479509115219116,2.6455371379852295
1740247371273763000,2.52676318359375,3.9554078578948975,0.7736861109733582,2.73660945892334
1740247371283744300,2.536744140625,3.831192970275879,0.7826036810874939,2.83656644821167
1740247371293726200,2.546726318359375,3.6883320808410645,0.7805525064468384,2.9419209957122803
1740247371303707400,2.556707275390625,3.500622510910034,0.7626124024391174,3.0315909385681152
1740247371313689300,2.566689453125,3.2581868171691895,0.7221329212188721,3.105379819869995
1740247371323670300,2.576670166015625,2.9738194942474365,0.6432055830955505,3.145254135131836
1740247371333652200,2.58665234375,2.686506986618042,0.5171611309051514,3.130066394805908
1740247371343633200,2.596633056640625,2.4140424728393555,0.3627829849720001,3.0430917739868164
1740247371353614300,2.6066142578125,2.152616024017334,0.1888498067855835,2.8474178314208984
1740247371363596300,2.61659619140625,1.8834450244903564,0.012205800041556358,2.464369773864746
1740247371373577500,2.626577392578125,1.572500467300415,-0.1797865480184555,1.823109745979309
1740247371383559200,2.63655908203125,1.2236559391021729,-0.45887622237205505,0.8768170475959778
1740247371393540400,2.646540283203125,0.8677862286567688,-0.9231933355331421,-0.35131728649139404
1740247371403522300,2.656522216796875,0.492501825094223,-1.663503885269165,-1.7423499822616577
1740247371413503500,2.66650341796875,0.035890091210603714,-2.5811116695404053,-3.1081607341766357
1740247371423485200,2.676485107421875,-0.5260108113288879,-3.43184757232666,-4.255503177642822
1740247371433466000,2.686466064453125,-1.1452934741973877,-3.919539451599121,-5.098368167877197
1740247371443447300,2.696447265625,-1.724932312965393,-3.9340298175811768,-5.617376804351807
1740247371453429200,2.70642919921875,-2.262632131576538,-3.4892160892486572,-5.835916042327881
1740247371463410400,2.716410400390625,-2.802884578704834,-2.758397102355957,-5.790319442749023
1740247371473392000,2.72639208984375,-3.0726354122161865,-2.0142934322357178,-5.473791122436523
1740247371483373300,2.736373291015625,-3.087994337081909,-1.3301317691802979,-4.947922229766846
1740247371493355300,2.746355224609375,-2.9625895023345947,-0.7382639050483704,-4.2627997398376465
1740247371503336200,2.756336181640625,-2.7956292629241943,-0.2665078639984131,-3.503725290298462
1740247371513318400,2.766318359375,-2.6675851345062256,0.12370862811803818,-2.7427566051483154
1740247371523299300,2.77629931640625,-2.61273193359375,0.43003925681114197,-2.0310311317443848
1740247371533280300,2.7862802734375,-2.641406297683716,0.6571363210678101,-1.4159287214279175
1740247371543262200,2.79626220703125,-2.73225736618042,0.799100935459137,-0.9139918088912964
1740247371553243400,2.806243408203125,-2.841032028198242,0.878381073474884,-0.5236120820045471
1740247371563225300,2.816225341796875,-2.9308924674987793,0.9189234375953674,-0.2428528517484665
1740247371573206300,2.826206298828125,-2.990349531173706,0.9044315814971924,-0.07869374752044678
1740247371583188200,2.836188232421875,-3.030813217163086,0.8475110530853271,-0.02117745764553547
1740247371593169200,2.846169189453125,-3.0740230083465576,0.774006724357605,-0.08977888524532318
1740247371603151400,2.8561513671875,-3.1416144371032715,0.7544109225273132,-0.30272072553634644
1740247371613132300,2.86613232421875,-3.237898826599121,0.7835914492607117,-0.626879096031189
1740247371623113500,2.876113525390625,-3.3564159870147705,0.811277449131012,-0.9681810140609741
1740247371633095200,2.88609521484375,-3.495227098464966,0.7595886588096619,-1.2595773935317993
1740247371643076000,2.896076171875,-3.660172700881958,0.6729174256324768,-1.494189739227295
1740247371653058300,2.906058349609375,-3.829944372177124,0.6156243085861206,-1.705350399017334
1740247371663039200,2.916039306640625,-3.9684336185455322,0.6327425837516785,-1.902450442314148
1740247371673021400,2.926021484375,-4.086612224578857,0.7223901748657227,-2.0932865142822266
1740247371683002000,2.936002197265625,-4.185892105102539,0.8793334364891052,-2.2341251373291016
1740247371692984300,2.945984375,-4.258438587188721,1.015473484992981,-2.301481008529663
1740247371702965200,2.95596533203125,-4.29219388961792,1.079450011253357,-2.3004977703094482
1740247371712946200,2.9659462890625,-4.29508638381958,1.0997052192687988,-2.2838170528411865
1740247371722928000,2.97592822265625,-4.286880970001221,1.120239019393921,-2.3289856910705566
1740247371732909300,2.985909423828125,-4.318382740020752,1.1994776725769043,-2.495712995529175
1740247371742891000,2.99589111328125,-4.399363040924072,1.276266098022461,-2.741147041320801
1740247371752872000,3.005871826171875,-4.479172229766846,1.2103595733642578,-2.96700119972229
1740247371762854100,3.015854248046875,-4.526717185974121,0.984696626663208,-3.135550022125244
1740247371772835000,3.0258349609375,-4.585090160369873,0.7339208722114563,-3.2814440727233887
1740247371782817000,3.035817138671875,-4.692824840545654,0.6119970679283142,-3.3956243991851807
1740247371792798000,3.0457978515625,-4.816954135894775,0.6576969027519226,-3.3945794105529785
1740247371802779100,3.055779052734375,-4.852202892303467,0.816809892654419,-3.2123637199401855
1740247371812761000,3.065760986328125,-4.700778484344482,0.9891619086265564,-2.841031312942505
1740247371822742000,3.075741943359375,-4.3495588302612305,1.0797760486602783,-2.2953531742095947
1740247371832724000,3.085723876953125,-3.812279224395752,1.0298925638198853,-1.5797111988067627
1740247371842705000,3.095704833984375,-3.206031560897827,0.8921046257019043,-0.7552924752235413
1740247371852687000,3.10568701171875,-2.641345977783203,0.8481046557426453,0.15223374962806702
1740247371862668000,3.11566796875,-2.0531554222106934,0.859480082988739,1.1009832620620728
1740247371872650200,3.125650146484375,-1.4138538837432861,0.7841006517410278,2.0139505863189697
1740247371882631200,3.135631103515625,-0.7378714084625244,0.5959326028823853,2.8094756603240967
1740247371892612000,3.145612060546875,-0.09957373142242432,0.36308127641677856,3.4220786094665527
1740247371902594000,3.155593994140625,0.4314779043197632,0.1844409555196762,3.818126916885376
1740247371912575000,3.165574951171875,0.8444036841392517,0.09163644164800644,3.978815793991089
1740247371922557200,3.17555712890625,1.157002568244934,0.0514456145465374,3.9097397327423096
1740247371932538000,3.1855380859375,1.368302583694458,0.0827750414609909,3.6292734146118164
1740247371942520000,3.19552001953125,1.4713879823684692,0.24775174260139465,3.1684956550598145
1740247371952501000,3.2055009765625,1.4821841716766357,0.5758505463600159,2.5358569622039795
1740247371962483200,3.215483154296875,1.467685341835022,0.9596154689788818,1.8818577527999878
1740247371972464000,3.225464111328125,1.4946759939193726,1.2980012893676758,1.360377550125122
1740247371982445000,3.235445068359375,1.5965960025787354,1.5110472440719604,1.0086661577224731
1740247371992427000,3.245427001953125,1.7789841890335083,1.623524785041809,0.7836064100265503
1740247372002408000,3.255407958984375,1.9918431043624878,1.7047832012176514,0.5943695902824402
1740247372012390100,3.26539013671875,2.202624559402466,1.819374680519104,0.39681872725486755
1740247372022371000,3.27537109375,2.3435678482055664,2.092062473297119,0.17276538908481598
1740247372032353300,3.285353271484375,2.353311061859131,2.432441473007202,-0.08381154388189316
1740247372042334000,3.295333984375,2.2539777755737305,2.850311279296875,-0.3277246057987213
1740247372052316200,3.305316162109375,2.105987787246704,3.236382246017456,-0.49422144889831543
1740247372062297000,3.315297119140625,2.0168356895446777,3.36291241645813,-0.5425700545310974
1740247372072278000,3.325278076171875,2.1008236408233643,3.138186454772949,-0.48782292008399963
1740247372082260200,3.33526025390625,2.4494259357452393,2.6510910987854004,-0.33963853120803833
1740247372092241200,3.3452412109375,3.0222997665405273,2.0915024280548096,-0.09411877393722534
1740247372102223000,3.35522314453125,3.700500965118408,1.5969165563583374,0.19766567647457123
1740247372112204000,3.3652041015625,4.310379981994629,1.1541285514831543,0.47885340452194214
1740247372122186200,3.375186279296875,4.716312408447266,0.7653823494911194,0.685542106628418
1740247372132167200,3.385167236328125,4.8687849044799805,0.4954235851764679,0.8154908418655396
1740247372142148900,3.39514892578125,4.817592144012451,0.363727867603302,0.875092089176178
1740247372152130000,3.405130126953125,4.65863561630249,0.3419797122478485,0.8936780095100403
1740247372162111000,3.415111083984375,4.487083911895752,0.375302255153656,0.8926090598106384
1740247372172093200,3.42509326171875,4.366184711456299,0.40955689549446106,0.8979867696762085
1740247372182074000,3.43507421875,4.295571804046631,0.44498544931411743,0.9152309894561768
1740247372192056000,3.44505615234375,4.272838592529297,0.48572224378585815,0.9526728987693787
1740247372202037000,3.455037109375,4.281155109405518,0.5309248566627502,0.9962288737297058
1740247372212019000,3.46501904296875,4.29073429107666,0.6044792532920837,1.0459191799163818
1740247372222000000,3.475000244140625,4.293717861175537,0.669609785079956,1.050981044769287
1740247372231982000,3.484982177734375,4.273914813995361,0.7775564789772034,1.0155134201049805
1740247372241963300,3.49496337890625,4.240700721740723,0.9653894901275635,0.9357813000679016
1740247372251945000,3.504945068359375,4.208664417266846,1.1834509372711182,0.8459901213645935
1740247372261926100,3.514926025390625,4.170865058898926,1.3836687803268433,0.7713462710380554
1740247372271907000,3.524906982421875,4.119833469390869,1.4972054958343506,0.7178465723991394
1740247372281889300,3.53488916015625,4.054523468017578,1.519163966178894,0.6536822319030762
1740247372291870200,3.5448701171875,3.9530458450317383,1.4678843021392822,0.5782881379127502
1740247372301852000,3.554851806640625,3.7928812503814697,1.4103970527648926,0.49160701036453247
1740247372311833000,3.5648330078125,3.58636474609375,1.3359942436218262,0.4061483144760132
1740247372321815000,3.57481494140625,3.36319637298584,1.236207127571106,0.32451656460762024
1740247372331796200,3.584796142578125,3.1627068519592285,1.0984221696853638,0.24347896873950958
1740247372341778000,3.59477783203125,3.01419997215271,0.8971180319786072,0.15293894708156586
1740247372351759000,3.604759033203125,2.8970906734466553,0.6663154363632202,0.02941940724849701
1740247372361740000,3.614739990234375,2.7647173404693604,0.47490420937538147,-0.15527960658073425
1740247372371722000,3.624721923828125,2.551149368286133,0.3380590081214905,-0.4121425449848175
1740247372381703200,3.634703125,2.218874931335449,0.2288385033607483,-0.7187328338623047
1740247372391685000,3.64468505859375,1.74601149559021,0.12192803621292114,-0.9944344758987427
1740247372401666000,3.654666015625,1.1505428552627563,-0.024341559037566185,-1.2011586427688599
1740247372411648000,3.66464794921875,0.5023073554039001,-0.2687552869319916,-1.319353461265564
1740247372421629200,3.674629150390625,-0.14413240551948547,-0.5765778422355652,-1.3626666069030762
1740247372431611100,3.684611083984375,-0.7725260257720947,-0.9227168560028076,-1.3528780937194824
1740247372441592000,3.694592041015625,-1.3240691423416138,-1.2684767246246338,-1.2916288375854492
1740247372451574000,3.704573974609375,-1.7558887004852295,-1.5853164196014404,-1.187852144241333
1740247372461555000,3.714554931640625,-2.0993764400482178,-1.8982218503952026,-1.0599561929702759
1740247372471536000,3.7245361328125,-2.4233739376068115,-2.206787109375,-0.9360342621803284
1740247372481518000,3.73451806640625,-2.7384512424468994,-2.5310885906219482,-0.8287040591239929
1740247372491499300,3.744499267578125,-3.014815330505371,-2.9152653217315674,-0.744859516620636
1740247372501481000,3.75448095703125,-3.221341609954834,-3.367945909500122,-0.6896673440933228
1740247372511462000,3.7644619140625,-3.3119356632232666,-3.975083112716675,-0.6456725001335144
1740247372521444000,3.774444091796875,-3.3510782718658447,-4.590843200683594,-0.5896345376968384
1740247372531425000,3.784425048828125,-3.343019962310791,-5.07110071182251,-0.5740411877632141
1740247372541407200,3.7944072265625,-3.2850356101989746,-5.134967803955078,-0.6489324569702148
1740247372551388000,3.804387939453125,-3.20449161529541,-4.678940296173096,-0.8305968046188354
1740247372561369000,3.814369140625,-3.0747177600860596,-3.8063836097717285,-1.1436055898666382
1740247372571351000,3.82435107421875,-2.905653238296509,-2.684356927871704,-1.565114974975586
1740247372581332000,3.83433203125,-2.7629997730255127,-1.6317135095596313,-2.010648012161255
1740247372591314200,3.844314208984375,-2.7317769527435303,-0.8960229158401489,-2.379519462585449
1740247372601295000,3.854295166015625,-2.8369171619415283,-0.47231242060661316,-2.624540090560913
1740247372611278000,3.864278076171875,-3.0223770141601562,-0.2769772708415985,-2.7401773929595947
1740247372621259000,3.874259033203125,-3.2163889408111572,-0.23718298971652985,-2.791846513748169
1740247372631241000,3.884240966796875,-3.405682325363159,-0.23199382424354553,-2.8373467922210693
1740247372641222000,3.894221923828125,-3.6069443225860596,-0.15532194077968597,-2.9038467407226562
1740247372651203000,3.904203125,-3.8108203411102295,0.00461765518411994,-2.976217031478882
1740247372661185000,3.91418505859375,-3.993614912033081,0.19285866618156433,-3.0324063301086426
1740247372671166200,3.924166259765625,-4.12990140914917,0.3571211099624634,-3.05011248588562
1740247372681148200,3.934148193359375,-4.257681846618652,0.5037909746170044,-3.009605884552002
1740247372691129000,3.944129150390625,-4.396486759185791,0.679776132106781,-2.906940221786499
1740247372701111000,3.954111083984375,-4.542002201080322,0.8816993832588196,-2.7366256713867188
1740247372711093200,3.96409326171875,-4.7037434577941895,1.0357906818389893,-2.5044233798980713
1740247372721075000,3.974074951171875,-4.859960079193115,1.1165918111801147,-2.2245209217071533
1740247372731055900,3.984055908203125,-4.996687889099121,1.1636536121368408,-1.9135783910751343
1740247372741038000,3.9940380859375,-5.0985188484191895,1.2548375129699707,-1.5946438312530518
1740247372751019000,4.00401904296875,-5.134720802307129,1.3780055046081543,-1.2727409601211548
1740247372761000200,4.014000244140625,-5.078099727630615,1.4786317348480225,-0.9540047645568848
1740247372770982100,4.023982177734375,-4.948195457458496,1.526770830154419,-0.6606721878051758
1740247372780963000,4.033963134765625,-4.765445709228516,1.5737113952636719,-0.3993215560913086
1740247372790945000,4.043945068359375,-4.543886184692383,1.6707700490951538,-0.16277426481246948
1740247372800926000,4.053926025390625,-4.266417026519775,1.7572541236877441,0.06970850378274918
1740247372810908200,4.063908203125,-3.895618438720703,1.7748639583587646,0.3079812526702881
1740247372820889000,4.07388916015625,-3.3191514015197754,1.6320260763168335,0.5177464485168457
1740247372830871000,4.08387109375,-2.5528242588043213,1.2057716846466064,0.6442404985427856
1740247372840852000,4.09385205078125,-1.6913946866989136,0.5827342867851257,0.6256111860275269
1740247372850833200,4.103833251953125,-0.8918790817260742,0.07485853135585785,0.38904017210006714
1740247372860815000,4.113815185546875,-0.29602181911468506,-0.14179441332817078,-0.08775009214878082
1740247372870796300,4.12379638671875,0.09268359839916229,-0.1916373372077942,-0.6760676503181458
1740247372880778000,4.133778076171875,0.38006770610809326,-0.30555087327957153,-1.2020171880722046
1740247372890759000,4.143759033203125,0.6151092648506165,-0.5095335245132446,-1.5548399686813354
1740247372900741000,4.1537412109375,0.8352064490318298,-0.6187476515769958,-1.7241288423538208
1740247372910722000,4.16372216796875,1.1090734004974365,-0.6408510804176331,-1.718266487121582
1740247372920704000,4.1737041015625,1.4038147926330566,-0.6305132508277893,-1.5898749828338623
1740247372930685000,4.183684814453125,1.6894174814224243,-0.6287376880645752,-1.3803534507751465
1740247372940667100,4.193667236328125,1.929506778717041,-0.5621411204338074,-1.1128993034362793
1740247372950648000,4.20364794921875,2.126511812210083,-0.3985274136066437,-0.796862781047821
1740247372960629000,4.21362890625,2.267888069152832,-0.1598794162273407,-0.4604131579399109
1740247372970611200,4.223611083984375,2.3701939582824707,0.1022009402513504,-0.10441561788320541
1740247372980591000,4.233591064453125,2.467991828918457,0.37618640065193176,0.2625511884689331
1740247372990573000,4.243572998046875,2.5702333450317383,0.6215059161186218,0.6366515755653381
1740247373000554000,4.253553955078125,2.6949596405029297,0.8200861215591431,0.9898317456245422
1740247373010536200,4.2635361328125,2.8320131301879883,0.9672310948371887,1.3160895109176636
1740247373020517000,4.27351708984375,2.9871268272399902,1.067471981048584,1.617023229598999
1740247373030499000,4.2834990234375,3.150636911392212,1.1381019353866577,1.8646154403686523
1740247373040480300,4.293480224609375,3.3068859577178955,1.1989332437515259,2.054293155670166
1740247373050461000,4.3034609375,3.447993755340576,1.2990931272506714,2.18402361869812
1740247373060443100,4.313443115234375,3.572512149810791,1.4143478870391846,2.2626731395721436
1740247373070424000,4.323424072265625,3.68664288520813,1.4937020540237427,2.302013635635376
1740247373080406300,4.33340625,3.779503583908081,1.4950042963027954,2.3000195026397705
1740247373090387200,4.34338720703125,3.859043598175049,1.430033564567566,2.271352529525757
1740247373100369000,4.353368896484375,3.952972650527954,1.3224155902862549,2.235745668411255
1740247373110350000,4.36335009765625,4.06279182434082,1.1936328411102295,2.1898207664489746
1740247373120332000,4.37333203125,4.179758548736572,1.0655195713043213,2.1557796001434326
1740247373130313200,4.383313232421875,4.287393569946289,0.9413169026374817,2.1011078357696533
1740247373140295000,4.393294921875,4.370739459991455,0.8226706981658936,2.020066738128662
1740247373150276000,4.403276123046875,4.405475616455078,0.7398165464401245,1.9105738401412964
1740247373160258000,4.413258056640625,4.393134117126465,0.7243627905845642,1.7635082006454468
1740247373170239000,4.423239013671875,4.361593723297119,0.7513880133628845,1.5863521099090576
1740247373180220200,4.43322021484375,4.340701580047607,0.7828614711761475,1.3831678628921509
1740247373190202000,4.4432021484375,4.3275251388549805,0.8361138105392456,1.176437258720398
1740247373200183000,4.45318310546875,4.339465618133545,0.8901360034942627,0.9797146320343018
1740247373210165000,4.4631650390625,4.363519191741943,0.9333343505859375,0.8079417943954468
1740247373220146200,4.473146240234375,4.381772041320801,0.9608464241027832,0.666998028755188
1740247373230128000,4.483128173828125,4.376227378845215,0.9892961382865906,0.5544410943984985
1740247373240109000,4.493109130859375,4.343628883361816,1.0303075313568115,0.4558095932006836
1740247373250091000,4.503091064453125,4.285888671875,1.0713622570037842,0.37436535954475403
1740247373260072000,4.513072021484375,4.215486526489258,1.1077111959457397,0.3051186203956604
1740247373270054100,4.52305419921875,4.1249237060546875,1.1187607049942017,0.2526663541793823
1740247373280035000,4.53303515625,4.006811141967773,1.097238302230835,0.2165440171957016
1740247373290016300,4.543016357421875,3.872403860092163,1.0199220180511475,0.18350698053836823
1740247373299998000,4.552998046875,3.7183783054351807,0.893025279045105,0.13220490515232086
1740247373309979100,4.562979248046875,3.530292510986328,0.7596344947814941,0.045042842626571655
1740247373319961000,4.572961181640625,3.3488717079162598,0.6423009037971497,-0.07892357558012009
1740247373329942000,4.58294189453125,3.203549385070801,0.5116853713989258,-0.21729344129562378
1740247373339924200,4.59292431640625,3.0928590297698975,0.37374135851860046,-0.33747684955596924
1740247373349905000,4.60290478515625,2.9920873641967773,0.2358977496623993,-0.40794140100479126
1740247373359887000,4.61288720703125,2.85139799118042,0.10214394330978394,-0.4197557270526886
1740247373369868000,4.622867919921875,2.6522483825683594,-0.014444719068706036,-0.3920644521713257
1740247373379850200,4.632850341796875,2.370314121246338,-0.10424597561359406,-0.36533963680267334
1740247373389831200,4.6428310546875,2.0264785289764404,-0.1715049147605896,-0.3625504970550537
1740247373399812000,4.65281201171875,1.6386712789535522,-0.22220537066459656,-0.40269020199775696
1740247373409794000,4.6627939453125,1.2330299615859985,-0.25673219561576843,-0.47997167706489563
1740247373419775000,4.67277490234375,0.820386528968811,-0.2899732291698456,-0.5629656314849854
1740247373429757200,4.682757080078125,0.4380977153778076,-0.3424795866012573,-0.6163665056228638
1740247373439738000,4.692738037109375,0.09966960549354553,-0.41410449147224426,-0.6057413220405579
1740247373449720000,4.702719970703125,-0.20769567787647247,-0.4692215621471405,-0.5140851736068726
1740247373459701000,4.712700927734375,-0.5104129314422607,-0.4856404662132263,-0.3397200107574463
1740247373469683200,4.72268310546875,-0.8087064027786255,-0.5008207559585571,-0.10074019432067871
1740247373479664000,4.7326640625,-1.0930052995681763,-0.5150313973426819,0.16428720951080322
1740247373489646000,4.74264599609375,-1.3504735231399536,-0.5072464346885681,0.43084993958473206
1740247373499627000,4.752626953125,-1.6082377433776855,-0.47135528922080994,0.6913696527481079
1740247373509608000,4.76260791015625,-1.8746064901351929,-0.3827303349971771,0.9533293843269348
1740247373519590100,4.772590087890625,-2.1391844749450684,-0.23688285052776337,1.2134029865264893
1740247373529571000,4.782571044921875,-2.3754701614379883,-0.05756262689828873,1.4588745832443237
1740247373539553300,4.79255322265625,-2.578788995742798,0.11416838318109512,1.6645041704177856
1740247373549534200,4.8025341796875,-2.7452950477600098,0.23794038593769073,1.8029941320419312
1740247373559516200,4.81251611328125,-2.9001896381378174,0.32156792283058167,1.8534677028656006
1740247373569497000,4.8224970703125,-3.0548465251922607,0.3699048161506653,1.802051067352295
1740247373579479000,4.83247900390625,-3.232964515686035,0.3783521056175232,1.6455576419830322
1740247373589460200,4.842460205078125,-3.4515793323516846,0.32917895913124084,1.3775818347930908
1740247373599442000,4.85244189453125,-3.7082152366638184,0.2322196513414383,1.0030205249786377
1740247373609423000,4.862423095703125,-3.9992449283599854,0.1075296550989151,0.534078061580658
1740247373619404000,4.872404052734375,-4.314427375793457,0.008592156693339348,0.0013456953456625342
1740247373629386200,4.88238623046875,-4.640384674072266,-0.022469623014330864,-0.5522200465202332
1740247373639367200,4.8923671875,-4.9515204429626465,-0.014898788183927536,-1.0268254280090332
1740247373649348900,4.902348876953125,-5.279038429260254,-0.04096581041812897,-1.33102285861969
1740247373659330000,4.912330078125,-5.610384464263916,-0.139889195561409,-1.4663578271865845
1740247373669312000,4.92231201171875,-5.921982765197754,-0.2883913218975067,-1.4528357982635498
1740247373679293200,4.932293212890625,-6.193746566772461,-0.4711025357246399,-1.316362977027893
1740247373689275100,4.942275146484375,-6.420258045196533,-0.6695898175239563,-1.0753633975982666
1740247373699256000,4.952256103515625,-6.601655960083008,-0.8423218727111816,-0.7690362334251404
1740247373709236700,4.96223681640625,-6.73511266708374,-0.9959570169448853,-0.43764418363571167
1740247373719217700,4.9722177734375,-6.815723896026611,-1.1172595024108887,-0.1242108941078186
1740247373729198600,4.982198486328125,-6.8393778800964355,-1.2194979190826416,0.13596288859844208
1740247373739180800,4.992180908203125,-6.791053295135498,-1.2827757596969604,0.3227279782295227
1740247373749161700,5.00216162109375,-6.649810791015625,-1.3134273290634155,0.4305460453033447
1740247373759144000,5.01214404296875,-6.423933506011963,-1.3458303213119507,0.45708099007606506
1740247373769124900,5.022124755859375,-6.143185138702393,-1.3504650592803955,0.425629585981369
1740247373779106600,5.0321064453125,-5.884505748748779,-1.291922926902771,0.3456924259662628
1740247373789087700,5.042087646484375,-5.682605266571045,-1.1442359685897827,0.2140188068151474
1740247373799069700,5.052069580078125,-5.552164554595947,-0.9267600774765015,0.0527750626206398
1740247373809051000,5.06205078125,-5.5137619972229,-0.6612825989723206,-0.11914290487766266
1740247373819032600,5.072032470703125,-5.55180549621582,-0.3551900386810303,-0.2614600956439972
1740247373829013800,5.082013671875,-5.608280658721924,-0.04850788041949272,-0.3009662330150604
1740247373838995700,5.09199560546875,-5.623859882354736,0.23382315039634705,-0.18500261008739471
1740247373848976600,5.1019765625,-5.518144607543945,0.5198621153831482,0.11488211154937744
1740247373858957800,5.111957763671875,-5.23643159866333,0.8425061702728271,0.5606057643890381
1740247373868939500,5.121939453125,-4.711666107177734,1.1447573900222778,1.073602557182312
1740247373878920700,5.131920654296875,-3.9094998836517334,1.2800920009613037,1.6140433549880981
1740247373888902700,5.141902587890625,-2.8591277599334717,1.0873271226882935,2.087263345718384
1740247373898883800,5.1518837890625,-1.6665058135986328,0.558884859085083,2.4019477367401123
1740247373908865800,5.16186572265625,-0.5378813147544861,-0.0826360210776329,2.4836907386779785
1740247373918846700,5.1718466796875,0.32985806465148926,-0.6551722288131714,2.32078218460083
1740247373928828700,5.18182861328125,0.8586196303367615,-1.1126409769058228,1.9040776491165161
1740247373938809600,5.1918095703125,1.1110010147094727,-1.41635000705719,1.3825677633285522
1740247373948791800,5.201791748046875,1.1574313640594482,-1.6249828338623047,0.7902882695198059
1740247373958772700,5.211772705078125,1.0971746444702148,-1.6873210668563843,0.2089873105287552
1740247373968754000,5.22175390625,1.018330454826355,-1.627647042274475,-0.2475767731666565
1740247373978735600,5.231735595703125,0.9843237996101379,-1.4798882007598877,-0.5396602749824524
1740247373988716500,5.241716552734375,0.9955835938453674,-1.2477152347564697,-0.6722564101219177
1740247373998698800,5.25169873046875,1.0314306020736694,-0.9110008478164673,-0.6528347730636597
1740247374008679700,5.2616796875,1.0745739936828613,-0.39083725214004517,-0.4918493628501892
1740247374018661600,5.27166162109375,1.1464122533798218,0.28966349363327026,-0.20112459361553192
1740247374028642600,5.281642578125,1.2646307945251465,1.008777141571045,0.23167291283607483
1740247374038624800,5.291624755859375,1.4374518394470215,1.6761394739151,0.7652441263198853
1740247374048605700,5.301605712890625,1.635942816734314,2.2416579723358154,1.3610504865646362
1740247374058588000,5.311587890625,1.871829867362976,2.585843563079834,1.9998738765716553
1740247374068568800,5.32156884765625,2.1781749725341797,2.7112412452697754,2.6496939659118652
1740247374078550800,5.33155078125,2.4795541763305664,2.701543092727661,3.2829699516296387
1740247374088531700,5.34153173828125,2.731266736984253,2.699390172958374,3.846733570098877
1740247374098512600,5.3515126953125,2.9040985107421875,2.8301522731781006,4.287592887878418
1740247374108494800,5.361494873046875,3.03823184967041,3.060527801513672,4.579246520996094
1740247374118475800,5.371475830078125,3.141416072845459,3.324653148651123,4.730914115905762
1740247374128457700,5.381457763671875,3.1560847759246826,3.5444347858428955,4.713437080383301
1740247374138438700,5.391438720703125,3.0680646896362305,3.6821887493133545,4.540009021759033
1740247374148420900,5.4014208984375,2.7993714809417725,3.573517084121704,4.1011576652526855
1740247374158401800,5.41140185546875,2.4323067665100098,3.652994394302368,3.5816495418548584
1740247374168383500,5.421383544921875,2.0607857704162598,3.937255620956421,2.8377342224121094
1740247374178364700,5.43136474609375,1.7431672811508179,4.615703105926514,1.8877795934677124
1740247374188346600,5.4413466796875,1.549724817276001,5.504976749420166,0.8643622398376465
1740247374198327800,5.451327880859375,1.499792456626892,6.2194366455078125,0.0075729647651314735
1740247374208308700,5.461308837890625,1.4948536157608032,6.517502784729004,-0.5925277471542358
1740247374218290700,5.471290771484375,1.611449956893921,6.304982662200928,-1.045448899269104
1740247374228271600,5.481271728515625,1.8464598655700684,5.814703464508057,-1.5041743516921997
1740247374238253600,5.491253662109375,2.086575984954834,5.351994514465332,-2.0992417335510254
1740247374248234800,5.50123486328125,2.2469565868377686,5.016702651977539,-2.8238751888275146
1740247374258216700,5.511216796875,2.3932433128356934,4.619244575500488,-3.5601749420166016
1740247374268198000,5.521197998046875,2.573873519897461,4.007814884185791,-4.20963191986084
1740247374278179600,5.5311796875,2.739307403564453,3.208733320236206,-4.758929252624512
1740247374288160800,5.541160888671875,2.8792712688446045,2.371807813644409,-5.249868869781494
1740247374298142700,5.551142822265625,3.004556655883789,1.6221133470535278,-5.718729496002197
1740247374308124000,5.5611240234375,3.1352577209472656,0.9544068574905396,-6.163888454437256
1740247374318105600,5.571105712890625,3.299884796142578,0.3762229084968567,-6.564340591430664
1740247374328086500,5.58108642578125,3.468851089477539,-0.0706762969493866,-6.913536071777344
1740247374338067700,5.591067626953125,3.6017274856567383,-0.48300233483314514,-7.195406436920166
1740247374348049700,5.601049560546875,3.6263160705566406,-0.9186262488365173,-7.37177038192749
1740247374358030800,5.61103076171875,3.4948558807373047,-1.3998714685440063,-7.42975378036499
1740247374368012500,5.621012451171875,3.24513840675354,-1.8134413957595825,-7.343374729156494
1740247374377993700,5.63099365234375,2.9636623859405518,-2.13081955909729,-7.103034019470215
1740247374387975700,5.6409755859375,2.694059133529663,-2.2866621017456055,-6.70670223236084
1740247374397956600,5.65095654296875,2.446641445159912,-2.2517271041870117,-6.176344394683838
1740247374407938800,5.660938720703125,2.192284345626831,-2.0317983627319336,-5.533202171325684
1740247374417919700,5.670919677734375,1.9055370092391968,-1.6423096656799316,-4.789216995239258
1740247374427901700,5.680901611328125,1.6003116369247437,-1.183985710144043,-3.9866342544555664
1740247374437882600,5.690882568359375,1.2737520933151245,-0.6614764928817749,-3.141157388687134
1740247374447864800,5.70086474609375,0.9573659300804138,-0.18330217897891998,-2.285160779953003
1740247374457845800,5.710845703125,0.6570314168930054,0.13365872204303741,-1.4795076847076416
1740247374467826700,5.72082666015625,0.34341567754745483,0.28179359436035156,-0.7809919714927673
1740247374477808600,5.73080859375,0.01793559081852436,0.34093573689460754,-0.18154236674308777
1740247374487789600,5.74078955078125,-0.31463465094566345,0.34686073660850525,0.3088851273059845
1740247374497771800,5.750771728515625,-0.6239128708839417,0.3004157543182373,0.6979418396949768
1740247374507752700,5.760752685546875,-0.8879806995391846,0.1561882644891739,0.9871832132339478
1740247374517734700,5.770734619140625,-1.103065848350525,-0.07721968740224838,1.1882305145263672
1740247374527715600,5.780715576171875,-1.2951503992080688,-0.3721945881843567,1.3118376731872559
1740247374537697800,5.79069775390625,-1.496731162071228,-0.6920669078826904,1.3362964391708374
1740247374547678700,5.8006787109375,-1.7318365573883057,-0.9809476733207703,1.2729377746582031
1740247374557661000,5.810660888671875,-2.013495922088623,-1.198972463607788,1.1307060718536377
1740247374567641900,5.820641845703125,-2.32218599319458,-1.3604774475097656,0.9259608387947083
1740247374577623600,5.83062353515625,-2.660215377807617,-1.5025736093521118,0.6836882829666138
1740247374587604700,5.840604736328125,-3.009167432785034,-1.6516176462173462,0.41212549805641174
1740247374597585700,5.850585693359375,-3.3132174015045166,-1.8082011938095093,0.13193486630916595
1740247374607568000,5.86056787109375,-3.5043768882751465,-2.016411066055298,-0.16086025536060333
1740247374617548800,5.870548828125,-3.604433536529541,-2.2645680904388428,-0.4807932376861572
1740247374627530800,5.88053076171875,-3.7472052574157715,-2.407850503921509,-0.8321020007133484
1740247374637511700,5.89051171875,-4.030910491943359,-2.3109114170074463,-1.186721920967102
1740247374647493600,5.90049365234375,-4.483234405517578,-1.9246989488601685,-1.4893661737442017
1740247374657474800,5.910474853515625,-5.0449724197387695,-1.3535276651382446,-1.6527372598648071
1740247374667456500,5.92045654296875,-5.633675575256348,-0.6831873655319214,-1.6220344305038452
1740247374677437700,5.930437744140625,-6.216954708099365,0.03689117357134819,-1.3630270957946777
1740247374687419600,5.940419677734375,-6.738096714019775,0.7483682632446289,-0.8821039199829102
1740247374697400800,5.95040087890625,-7.110254287719727,1.3651853799819946,-0.2118920087814331
1740247374707382800,5.9603828125,-7.288923740386963,1.8289122581481934,0.5792415142059326
1740247374717363700,5.97036376953125,-7.244796276092529,2.0876271724700928,1.3988524675369263
1740247374727345700,5.980345703125,-6.989516735076904,2.118482828140259,2.1853954792022705
1740247374737326800,5.990326904296875,-6.569962024688721,2.018043041229248,2.8661839962005615
1740247374747307800,6.000307861328125,-6.073460102081299,1.9666129350662231,3.417012929916382
1740247374757290000,6.0102900390625,-5.542232036590576,2.024885892868042,3.806583881378174
1740247374767271000,6.02027099609375,-4.99267053604126,2.0506339073181152,4.018308639526367
1740247374777252900,6.0302529296875,-4.462308883666992,1.871002435684204,4.0379638671875
1740247374787233800,6.04023388671875,-4.006481170654297,1.5457983016967773,3.908250093460083
1740247374797215700,6.0502158203125,-3.6369516849517822,1.1725400686264038,3.6931049823760986
1740247374807197000,6.060197021484375,-3.331037998199463,0.7798795700073242,3.4208998680114746
1740247374817178600,6.0701787109375,-3.0625686645507812,0.36477556824684143,3.130826711654663
1740247374827159800,6.080159912109375,-2.7999892234802246,-0.049675945192575455,2.848881244659424
1740247374837141800,6.090141845703125,-2.522048234939575,-0.4368401765823364,2.579805612564087
1740247374847123000,6.100123046875,-2.2048473358154297,-0.7258275151252747,2.330232858657837
1740247374857105000,6.11010498046875,-1.8746092319488525,-0.9103928208351135,2.1174817085266113
1740247374867085600,6.12008544921875,-1.5553619861602783,-1.0287623405456543,1.9196696281433105
1740247374877066800,6.130066650390625,-1.2775501012802124,-1.0663033723831177,1.7398465871810913
1740247374887048700,6.140048583984375,-1.0570310354232788,-1.0634242296218872,1.5713473558425903
1740247374897030000,6.15002978515625,-0.8742167353630066,-1.02177095413208,1.408779501914978
1740247374907011800,6.16001171875,-0.7277809381484985,-0.9401765465736389,1.271336317062378
1740247374916993000,6.169992919921875,-0.6093456149101257,-0.823756992816925,1.1635737419128418
1740247374926974700,6.179974609375,-0.5175312757492065,-0.6896849274635315,1.0898627042770386
1740247374936955600,6.18995556640625,-0.4429907500743866,-0.5377548336982727,1.0465294122695923
1740247374946937900,6.199937744140625,-0.36844807863235474,-0.3892364501953125,1.0275479555130005
1740247374956918800,6.209918701171875,-0.2829539477825165,-0.24526141583919525,1.0202916860580444
1740247374966900700,6.219900634765625,-0.17478272318840027,-0.11642887443304062,1.032989263534546
1740247374976881700,6.229881591796875,-0.043722447007894516,-0.020203804597258568,1.054101824760437
1740247374986863900,6.23986376953125,0.10225899517536163,0.04243800416588783,1.0768550634384155
1740247374996844800,6.2498447265625,0.24362197518348694,0.08893866091966629,1.092071771621704
1740247375006826800,6.25982666015625,0.3774900436401367,0.19673863053321838,1.075562834739685
1740247375016807700,6.2698076171875,0.5244964957237244,0.4311111867427826,1.0138832330703735
1740247375026788600,6.27978857421875,0.6967103481292725,0.770035445690155,0.9167018532752991
1740247375036770800,6.289770751953125,0.9008280634880066,1.1510717868804932,0.7755785584449768
1740247375046751700,6.299751708984375,1.123732566833496,1.535460114479065,0.5996924638748169
1740247375056734000,6.30973388671875,1.3198634386062622,1.910823941230774,0.4003545939922333
1740247375066715000,6.31971484375,1.4413938522338867,2.2394397258758545,0.19106929004192352
1740247375076696800,6.32969677734375,1.4988033771514893,2.5024828910827637,-0.008494152687489986
1740247375086677800,6.339677734375,1.4857056140899658,2.700810194015503,-0.19147035479545593
1740247375096660000,6.349659912109375,1.4493409395217896,2.8183982372283936,-0.3659766614437103
1740247375106641000,6.359640869140625,1.4311848878860474,2.8705501556396484,-0.5382552146911621
1740247375116622600,6.36962255859375,1.4669724702835083,2.894078254699707,-0.7126246094703674
1740247375126603800,6.379603759765625,1.574080467224121,2.905791759490967,-0.9044385552406311
1740247375136585700,6.389585693359375,1.754577875137329,2.9230618476867676,-1.1107112169265747
1740247375146567000,6.39956689453125,2.0131444931030273,2.942370891571045,-1.3355276584625244
1740247375156548900,6.409548828125,2.3290939331054688,2.944755792617798,-1.561081886291504
1740247375166529800,6.41952978515625,2.658609628677368,2.909921646118164,-1.7813769578933716
1740247375176510700,6.4295107421875,2.9609620571136475,2.8141231536865234,-1.9986892938613892
1740247375186492700,6.43949267578125,3.2347350120544434,2.656916856765747,-2.196449041366577
1740247375196473900,6.449473876953125,3.4610602855682373,2.4554097652435303,-2.3770241737365723
1740247375206455800,6.459455810546875,3.6439855098724365,2.204871892929077,-2.543424606323242
1740247375216436700,6.469436767578125,3.8025453090667725,1.915898084640503,-2.7058043479919434
1740247375226418700,6.479418701171875,3.9500255584716797,1.6406731605529785,-2.867201089859009
1740247375236399900,6.48939990234375,4.089308738708496,1.411057472229004,-3.027965784072876
1740247375246381800,6.4993818359375,4.2090044021606445,1.2273001670837402,-3.1758675575256348
1740247375256362800,6.50936279296875,4.307518482208252,1.0873523950576782,-3.310411214828491
1740247375266344700,6.5193447265625,4.389350891113281,0.975504457950592,-3.439539670944214
1740247375276325600,6.52932568359375,4.467787265777588,0.9270548820495605,-3.563598155975342
1740247375286307800,6.539307861328125,4.497241020202637,0.9289406538009644,-3.669221878051758
1740247375296288800,6.549288818359375,4.476948261260986,0.927322268486023,-3.733586072921753
1740247375306270700,6.559270751953125,4.392805099487305,0.8946666121482849,-3.7440345287323
1740247375316251600,6.569251708984375,4.246520042419434,0.8204458951950073,-3.692155122756958
1740247375326232800,6.57923291015625,4.071408271789551,0.7386708855628967,-3.588214874267578
1740247375336214800,6.58921484375,3.8916783332824707,0.6747789978981018,-3.437509298324585
1740247375346195700,6.59919580078125,3.7545406818389893,0.600504994392395,-3.258868455886841
1740247375356178000,6.609177978515625,3.6579580307006836,0.5236424207687378,-3.068368673324585
1740247375366158800,6.619158935546875,3.5815048217773438,0.44090601801872253,-2.85505747795105
1740247375376140800,6.629140869140625,3.510296583175659,0.3586231470108032,-2.612797498703003
1740247375386121700,6.639121826171875,3.4526989459991455,0.22798922657966614,-2.333547592163086
1740247375396104000,6.64910400390625,3.4300761222839355,-0.04760560020804405,-2.032484292984009
1740247375406084900,6.6590849609375,3.512854814529419,-0.5448704957962036,-1.7432067394256592
1740247375416066800,6.66906689453125,3.723721504211426,-1.2769830226898193,-1.5107412338256836
1740247375426047700,6.6790478515625,4.005873680114746,-2.1139724254608154,-1.4200584888458252
1740247375436030000,6.689030029296875,4.246551036834717,-2.8357632160186768,-1.538662314414978
1740247375446011000,6.699010986328125,4.24678897857666,-3.160252571105957,-1.8941365480422974
1740247375455991800,6.70899169921875,3.744121551513672,-2.924049139022827,-2.5004405975341797
1740247375465973800,6.718973876953125,2.6144890785217285,-2.1951866149902344,-3.2480156421661377
1740247375475954700,6.72895458984375,1.044408917427063,-1.4069900512695312,-3.6740095615386963
1740247375485937000,6.73893701171875,-0.7026643753051758,-0.6527780890464783,-3.729966878890991
1740247375495917800,6.748917724609375,-2.430698871612549,0.027756264433264732,-3.5427660942077637
1740247375505900000,6.758900146484375,-3.890130043029785,0.5004806518554688,-3.1769776344299316
1740247375515880700,6.768880615234375,-4.938283443450928,0.7623237371444702,-2.7258059978485107
1740247375525862700,6.778862548828125,-5.649684429168701,0.8635717630386353,-2.249746799468994
1740247375535843800,6.78884375,-6.107094764709473,0.8885834217071533,-1.7904447317123413
1740247375545825800,6.79882568359375,-6.34207820892334,0.9127632975578308,-1.3678271770477295
1740247375555807000,6.808806884765625,-6.283414363861084,0.9048598408699036,-0.9925843477249146
1740247375565788700,6.81878857421875,-5.930421829223633,0.850279688835144,-0.6545341610908508
1740247375575769900,6.828769775390625,-5.399875640869141,0.704949140548706,-0.32939574122428894
1740247375585751800,6.838751708984375,-4.859643459320068,0.490629643201828,0.004066913388669491
1740247375595732700,6.848732666015625,-4.421621799468994,0.28951889276504517,0.3500770628452301
1740247375605714700,6.858714599609375,-4.107713222503662,0.16359852254390717,0.6822144985198975
1740247375615695600,6.868695556640625,-3.90808367729187,0.08505576848983765,0.9892224073410034
1740247375625676800,6.8786767578125,-3.8054730892181396,0.02003043331205845,1.234031081199646
1740247375635658800,6.88865869140625,-3.792149543762207,-0.005921538453549147,1.4145100116729736
1740247375645640000,6.898639892578125,-3.8612589836120605,0.011656655929982662,1.5435543060302734
1740247375655622000,6.908621826171875,-3.9853811264038086,0.058161575347185135,1.6367782354354858
1740247375665602600,6.9186025390625,-4.135385513305664,0.10444678366184235,1.730015754699707
1740247375675584800,6.928584716796875,-4.286850452423096,0.12290035933256149,1.8321049213409424
1740247375685565700,6.938565673828125,-4.407210350036621,0.09492917358875275,1.9485821723937988
1740247375695548000,6.9485478515625,-4.488831043243408,0.02480228617787361,2.0602357387542725
1740247375705528800,6.95852880859375,-4.5253400802612305,-0.06144924461841583,2.1484992504119873
1740247375715510800,6.9685107421875,-4.523125648498535,-0.1731608659029007,2.1916723251342773
1740247375725491700,6.97849169921875,-4.474174499511719,-0.2964495122432709,2.1992175579071045
1740247375735474000,6.988473876953125,-4.3994855880737305,-0.373247355222702,2.1763479709625244
1740247375745454800,6.998454833984375,-4.309994697570801,-0.42193126678466797,2.1387436389923096
1740247375755436800,7.008436767578125,-4.207569599151611,-0.4673605263233185,2.0755577087402344
1740247375765417700,7.018417724609375,-4.091495990753174,-0.4976995289325714,1.985395908355713
1740247375775399700,7.028399658203125,-3.97987961769104,-0.47728800773620605,1.8830804824829102
1740247375785380900,7.038380859375,-3.8910839557647705,-0.4186675548553467,1.7609401941299438
1740247375795361800,7.04836181640625,-3.8185997009277344,-0.37955692410469055,1.6328892707824707
1740247375805343700,7.05834375,-3.755162239074707,-0.40179938077926636,1.4895968437194824
1740247375815324700,7.06832470703125,-3.6942436695098877,-0.4720415771007538,1.3290950059890747
1740247375825307000,7.078306884765625,-3.648998737335205,-0.58092200756073,1.152016043663025
1740247375835287800,7.088287841796875,-3.598076820373535,-0.721100926399231,0.9461289644241333
1740247375845269800,7.098269775390625,-3.5257256031036377,-0.8681151270866394,0.6997423768043518
1740247375855251000,7.1082509765625,-3.428474187850952,-0.9520009756088257,0.43629634380340576
1740247375865232600,7.118232666015625,-3.3213887214660645,-0.9445012807846069,0.1811748445034027
1740247375875213800,7.1282138671875,-3.1803271770477295,-0.8473328948020935,-0.03213050588965416
1740247375885195800,7.13819580078125,-2.9670047760009766,-0.6877512335777283,-0.17898626625537872
1740247375895177000,7.148177001953125,-2.661581516265869,-0.4989759922027588,-0.26053544878959656
1740247375905158700,7.15815869140625,-2.2714545726776123,-0.30006688833236694,-0.2764236032962799
1740247375915139600,7.1681396484375,-1.8242429494857788,-0.10208828747272491,-0.2413412481546402
1740247375925121800,7.178121826171875,-1.3465983867645264,0.0924026370048523,-0.17001061141490936
1740247375935102700,7.188102783203125,-0.8563370704650879,0.2367909699678421,-0.07951825857162476
1740247375945085000,7.1980849609375,-0.37889963388442993,0.3039300739765167,0.002758235903456807
1740247375955065600,7.208065673828125,0.08504485338926315,0.28792527318000793,0.05626700073480606
1740247375965047800,7.2180478515625,0.5152636170387268,0.20015306770801544,0.04935263469815254
1740247375975028700,7.22802880859375,0.8766716122627258,0.07557385414838791,-0.008471248671412468
1740247375985010000,7.238010009765625,1.1548877954483032,-0.029260683804750443,-0.1084018424153328
1740247375994991900,7.247991943359375,1.3700262308120728,-0.10042966902256012,-0.22167140245437622
1740247376004972800,7.257972900390625,1.5654100179672241,-0.15604925155639648,-0.32100623846054077
1740247376014954800,7.267954833984375,1.76003897190094,-0.20596808195114136,-0.4143809378147125
1740247376024935700,7.277935791015625,1.949514627456665,-0.24953420460224152,-0.5221172571182251
1740247376034918000,7.28791796875,2.1195530891418457,-0.2763325273990631,-0.6542976498603821
1740247376044898800,7.29789892578125,2.2637202739715576,-0.22964784502983093,-0.7993038296699524
1740247376054880800,7.307880859375,2.3844733238220215,-0.08153826743364334,-0.9551243185997009
1740247376064861700,7.31786181640625,2.5246617794036865,0.1350603550672531,-1.095958948135376
1740247376074844000,7.327843994140625,2.687195301055908,0.37762346863746643,-1.2088687419891357
1740247376084824800,7.337824951171875,2.8517794609069824,0.5826956629753113,-1.29229736328125
1740247376094806800,7.347806884765625,3.014524221420288,0.7349046468734741,-1.3706368207931519
1740247376104787700,7.35778759765625,3.145124673843384,0.8305723071098328,-1.443529725074768
1740247376114769700,7.367769775390625,3.252054214477539,0.9014912247657776,-1.5120203495025635
1740247376124750800,7.377750732421875,3.340733528137207,0.9889398217201233,-1.5677672624588013
1740247376134731800,7.387731689453125,3.4267332553863525,1.081085443496704,-1.6077405214309692
1740247376144714000,7.3977138671875,3.530329465866089,1.124051570892334,-1.632498025894165
1740247376154695000,7.40769482421875,3.6510167121887207,1.1336554288864136,-1.6328275203704834
1740247376164676900,7.4176767578125,3.794553279876709,1.1249512434005737,-1.6064618825912476
1740247376174657800,7.42765771484375,3.981962203979492,1.0901713371276855,-1.5359046459197998
1740247376184639700,7.4376396484375,4.212147235870361,1.0316585302352905,-1.4221268892288208
1740247376194621000,7.447620849609375,4.45518684387207,0.9329167604446411,-1.2862322330474854
1740247376204602600,7.4576025390625,4.666714668273926,0.7984873056411743,-1.1363836526870728
1740247376214583800,7.467583740234375,4.829720497131348,0.6634645462036133,-0.9981613159179688
1740247376224565800,7.477565673828125,4.947090148925781,0.5722209215164185,-0.8814921975135803
1740247376234547000,7.487546875,5.027511119842529,0.5485368967056274,-0.8016157150268555
1740247376244529000,7.49752880859375,5.079458236694336,0.6030653715133667,-0.7554082870483398
1740247376254509600,7.507509521484375,5.12136697769165,0.7058079838752747,-0.7280075550079346
1740247376264491800,7.51749169921875,5.167369365692139,0.7937037348747253,-0.6990051865577698
1740247376274472700,7.52747265625,5.219960689544678,0.8439784049987793,-0.6663215756416321
1740247376284455000,7.537454833984375,5.26575231552124,0.8637515306472778,-0.6242824792861938
1740247376294435800,7.547435791015625,5.309475421905518,0.8835508227348328,-0.5907338857650757
1740247376304417800,7.557417724609375,5.3348002433776855,0.9101573824882507,-0.5749700665473938
1740247376314398700,7.567398681640625,5.313116550445557,0.9579616785049438,-0.5820988416671753
1740247376324379600,7.577379638671875,5.2473530769348145,1.0069185495376587,-0.6174943447113037
1740247376334361900,7.58736181640625,5.158535480499268,1.0388245582580566,-0.6674302220344543
1740247376344342800,7.5973427734375,5.054315567016602,1.0286552906036377,-0.7069161534309387
1740247376354324700,7.60732470703125,4.925527572631836,0.9648869633674622,-0.7052047848701477
1740247376364305700,7.6173056640625,4.7844157218933105,0.8476500511169434,-0.6581968069076538
1740247376374288000,7.627287841796875,4.62349271774292,0.697106659412384,-0.5749748945236206
1740247376384268800,7.637268798828125,4.442539691925049,0.5327073335647583,-0.47459688782691956
1740247376394250800,7.647250732421875,4.2441182136535645,0.3878902196884155,-0.37163081765174866
1740247376404231700,7.657231689453125,4.033771991729736,0.2793472111225128,-0.2725106179714203
1740247376414214000,7.6672138671875,3.8481462001800537,0.1875286102294922,-0.18813875317573547
1740247376424194800,7.67719482421875,3.7033181190490723,0.07231254875659943,-0.12855663895606995
1740247376434176800,7.6871767578125,3.582016706466675,-0.05254123732447624,-0.11160402745008469
1740247376444158000,7.697157958984375,3.432304620742798,-0.16034039855003357,-0.14238643646240234
1740247376454139600,7.7071396484375,3.2131221294403076,-0.2344665676355362,-0.2303578406572342
1740247376464120800,7.717120849609375,2.8881142139434814,-0.28788185119628906,-0.3743389844894409
1740247376474102800,7.727102783203125,2.477109670639038,-0.3691767156124115,-0.5532013773918152
1740247376484084000,7.737083984375,1.952735185623169,-0.47144263982772827,-0.7324678301811218
1740247376494065700,7.747065673828125,1.2947144508361816,-0.5558379292488098,-0.8832613229751587
1740247376504046600,7.757046630859375,0.5073257684707642,-0.5956471562385559,-0.9725134372711182
1740247376514027800,7.76702783203125,-0.3869794011116028,-0.6047801971435547,-0.9705541729927063
1740247376524009700,7.777009765625,-1.4071178436279297,-0.5741293430328369,-0.854395866394043
1740247376533991000,7.786990966796875,-2.475884437561035,-0.5241385698318481,-0.6200762987136841
1740247376543972600,7.79697265625,-3.4862465858459473,-0.4187866151332855,-0.26984745264053345
1740247376553953800,7.806953857421875,-4.285310745239258,-0.49677008390426636,0.12069552391767502
1740247376563935700,7.816935791015625,-4.746371746063232,-0.9011631011962891,0.45714226365089417
1740247376573917000,7.8269169921875,-4.893482685089111,-1.5294544696807861,0.7028031349182129
1740247376583899000,7.83689892578125,-4.824284553527832,-2.0317394733428955,0.8393500447273254
1740247376593879800,7.8468798828125,-4.678986549377441,-2.182835102081299,0.8795981407165527
1740247376603861800,7.85686181640625,-4.571754455566406,-2.0269038677215576,0.8402062654495239
1740247376613843700,7.86684375,-4.550981044769287,-1.6948330402374268,0.7653781175613403
1740247376623825700,7.87682568359375,-4.626389026641846,-1.3100451231002808,0.695845365524292
1740247376633806600,7.886806640625,-4.757862091064453,-1.0091036558151245,0.6724412441253662
1740247376643788800,7.896788818359375,-4.884125709533691,-0.89054936170578,0.713556170463562
1740247376653769700,7.906769775390625,-4.955408573150635,-0.9344605803489685,0.7696767449378967
1740247376663752000,7.916751953125,-4.959799289703369,-1.0501006841659546,0.7981405854225159
1740247376673732900,7.92673291015625,-4.919640064239502,-1.1634011268615723,0.7512140870094299
1740247376683714800,7.93671484375,-4.864857196807861,-1.2038789987564087,0.6121230721473694
1740247376693695700,7.94669580078125,-4.826233863830566,-1.1399825811386108,0.39923766255378723
1740247376703676700,7.9566767578125,-4.826597690582275,-0.9952978491783142,0.14440298080444336
1740247376713659000,7.966658935546875,-4.85814905166626,-0.7972763776779175,-0.103081114590168
1740247376723639800,7.976639892578125,-4.894079685211182,-0.5732347965240479,-0.2862296402454376
1740247376733621800,7.986621826171875,-4.890207767486572,-0.39714762568473816,-0.37989139556884766
1740247376743602700,7.996602783203125,-4.830695152282715,-0.2855984568595886,-0.3766937553882599
1740247376753585000,8.0065849609375,-4.725222110748291,-0.24211090803146362,-0.28961023688316345
1740247376763565800,8.01656591796875,-4.61720609664917,-0.2235361486673355,-0.14171692728996277
1740247376773547800,8.0265478515625,-4.538274765014648,-0.21023446321487427,0.058162372559309006
1740247376783528700,8.03652880859375,-4.485481262207031,-0.15090535581111908,0.3029201924800873
1740247376793511000,8.046510986328125,-4.423984050750732,-0.022483205422759056,0.5881167650222778
1740247376803491800,8.056491943359376,-4.311965465545654,0.12149181216955185,0.881509006023407
1740247376813474000,8.06647412109375,-4.155813217163086,0.23513448238372803,1.1367149353027344
1740247376823455000,8.076455078125,-3.962337017059326,0.328976571559906,1.31631338596344
1740247376833436700,8.086436767578125,-3.774620532989502,0.4558285176753998,1.402431845664978
1740247376843417900,8.09641796875,-3.6017916202545166,0.6245799660682678,1.406098484992981
1740247376853399800,8.10639990234375,-3.4148848056793213,0.7971914410591125,1.3411623239517212
1740247376863381000,8.116381103515625,-3.1782379150390625,0.8689223527908325,1.210941195487976
1740247376873362700,8.12636279296875,-2.91239333152771,0.7424863576889038,1.0309253931045532
1740247376883344000,8.13634375,-2.644871711730957,0.4406588673591614,0.7899718880653381
1740247376893324800,8.14632470703125,-2.4287168979644775,0.07329179346561432,0.5097527503967285
1740247376903306800,8.156306640625,-2.2746846675872803,-0.24878345429897308,0.23191098868846893
1740247376913288000,8.166287841796875,-2.1519603729248047,-0.46773284673690796,0.007582552265375853
1740247376923269600,8.17626953125,-2.0072054862976074,-0.5811308026313782,-0.13049808144569397
1740247376933250800,8.186250732421875,-1.7890108823776245,-0.5993619561195374,-0.16596579551696777
1740247376943232800,8.196232666015625,-1.4815820455551147,-0.5254512429237366,-0.12149234116077423
1740247376953214000,8.2062138671875,-1.092061161994934,-0.44657936692237854,-0.01426415704190731
1740247376963196000,8.21619580078125,-0.6576724052429199,-0.4612986445426941,0.11798150092363358
1740247376973176800,8.2261767578125,-0.25907018780708313,-0.6144546270370483,0.23375709354877472
1740247376983158800,8.23615869140625,0.03640274703502655,-0.8209356665611267,0.30785661935806274
1740247376993139700,8.2461396484375,0.18585935235023499,-0.9813663363456726,0.336940735578537
1740247377003122000,8.256121826171874,0.2273426055908203,-1.0410871505737305,0.33513137698173523
1740247377013102800,8.266102783203126,0.21964606642723083,-1.0123990774154663,0.3242422640323639
1740247377023084800,8.276084716796875,0.21158042550086975,-0.9024920463562012,0.3126572370529175
1740247377033065700,8.286065673828125,0.24912753701210022,-0.7283865213394165,0.29154902696609497
1740247377043048000,8.2960478515625,0.3718254864215851,-0.5163472294807434,0.25099068880081177
1740247377053028900,8.30602880859375,0.5963521003723145,-0.33964410424232483,0.1770959496498108
1740247377063010800,8.3160107421875,0.9052835702896118,-0.23936118185520172,0.05308026075363159
1740247377072991700,8.32599169921875,1.2635034322738647,-0.19426961243152618,-0.11932932585477829
1740247377082973700,8.3359736328125,1.621959924697876,-0.15692144632339478,-0.32870519161224365
1740247377092955000,8.345954833984376,1.941152572631836,-0.08267943561077118,-0.5589924454689026
1740247377102935800,8.355935791015625,2.177459716796875,0.043350402265787125,-0.794551432132721
1740247377112918000,8.36591796875,2.3092703819274902,0.21195246279239655,-1.0174740552902222
1740247377122899000,8.37589892578125,2.346492290496826,0.43987831473350525,-1.2051024436950684
1740247377132881000,8.385880859375,2.318427801132202,0.693526029586792,-1.3418803215026855
1740247377142861800,8.39586181640625,2.271709442138672,0.9495724439620972,-1.4074393510818481
1740247377152844000,8.405843994140625,2.2595596313476562,1.192866563796997,-1.4013580083847046
1740247377162825000,8.415824951171874,2.317328929901123,1.3961368799209595,-1.3364278078079224
1740247377172806700,8.425806640625,2.459251880645752,1.5522189140319824,-1.2219173908233643
1740247377182787800,8.435787841796875,2.663583278656006,1.6541929244995117,-1.0627034902572632
1740247377192769800,8.445769775390625,2.915113925933838,1.6884478330612183,-0.8787150382995605
1740247377202751000,8.4557509765625,3.1786305904388428,1.674127459526062,-0.67186439037323
1740247377212732700,8.465732666015626,3.435239791870117,1.6186860799789429,-0.4464035928249359
1740247377222713900,8.4757138671875,3.6813387870788574,1.537373661994934,-0.22669732570648193
1740247377232695800,8.48569580078125,3.9011030197143555,1.4328272342681885,-0.009701895527541637
1740247377242676700,8.4956767578125,4.071914196014404,1.3114500045776367,0.17369189858436584
1740247377252659000,8.505658935546874,4.1822190284729,1.1934322118759155,0.30280300974845886
1740247377262639900,8.515639892578125,4.231023788452148,1.1214104890823364,0.36878734827041626
1740247377272621800,8.525621826171875,4.229467391967773,1.1278183460235596,0.37453311681747437
1740247377282602800,8.535602783203124,4.197190761566162,1.201375961303711,0.3306506276130676
1740247377292585000,8.5455849609375,4.166219234466553,1.3147426843643188,0.26168087124824524
1740247377302566000,8.55556591796875,4.152977466583252,1.4447486400604248,0.178574800491333
1740247377312547800,8.5655478515625,4.170400619506836,1.5578440427780151,0.0976884737610817
1740247377322528800,8.57552880859375,4.1913676261901855,1.6518034934997559,0.01926370896399021
1740247377332511000,8.585510986328124,4.1988525390625,1.6924585103988647,-0.06806906312704086
1740247377342492000,8.595491943359375,4.1745686531066895,1.6747655868530273,-0.19495990872383118
1740247377352472800,8.605472900390625,4.119822978973389,1.6053329706192017,-0.35736584663391113
1740247377362454800,8.615454833984375,4.030080795288086,1.5088924169540405,-0.5563521981239319
1740247377372435700,8.625435791015626,3.913513422012329,1.4116628170013428,-0.7711116075515747
1740247377382418000,8.63541796875,3.7841532230377197,1.3006314039230347,-0.9959114789962769
1740247377392398800,8.64539892578125,3.6690688133239746,1.156460165977478,-1.2204393148422241
1740247377402381000,8.655381103515625,3.5629305839538574,0.9701904058456421,-1.4179580211639404
1740247377412362000,8.665362060546874,3.449950933456421,0.7655757069587708,-1.583482027053833
1740247377422343700,8.67534375,3.325897693634033,0.5487126708030701,-1.6971629858016968
1740247377432324900,8.685324951171875,3.18308687210083,0.33864808082580566,-1.769966959953308
1740247377442306800,8.695306884765625,3.034122943878174,0.14582617580890656,-1.803074836730957
1740247377452288000,8.7052880859375,2.8824994564056396,-0.032176047563552856,-1.8043043613433838
1740247377462269700,8.715269775390626,2.727646827697754,-0.2214604914188385,-1.790968656539917
1740247377472251000,8.7252509765625,2.558709144592285,-0.450397253036499,-1.7778937816619873
1740247377482232800,8.73523291015625,2.3431451320648193,-0.7145698070526123,-1.7701137065887451
1740247377492213800,8.7452138671875,1.989517092704773,-0.9462506771087646,-1.7624666690826416
1740247377502195700,8.75519580078125,1.4018107652664185,-1.0402905941009521,-1.7259712219238281
1740247377512176600,8.7651767578125,0.5775384306907654,-0.9827027320861816,-1.6600191593170166
1740247377522158800,8.775158935546875,-0.41386666893959045,-0.8501169681549072,-1.6042797565460205
1740247377532139800,8.785139892578124,-1.463697075843811,-0.7136089205741882,-1.5900522470474243
1740247377542122000,8.7951220703125,-2.4057583808898926,-0.5794963836669922,-1.6083247661590576
1740247377552103000,8.80510302734375,-3.1209299564361572,-0.4848679006099701,-1.6511657238006592
1740247377562084900,8.8150849609375,-3.5890233516693115,-0.5309168696403503,-1.6918175220489502
1740247377572065800,8.825065673828124,-3.93979549407959,-0.7653908729553223,-1.7268282175064087
1740247377582048000,8.835048095703126,-4.2719926834106445,-1.1596266031265259,-1.7487369775772095
1740247377592029000,8.84502880859375,-4.575189113616943,-1.574885606765747,-1.7520166635513306
1740247377602009900,8.855009765625,-4.8032121658325195,-1.8652255535125732,-1.703863263130188
1740247377611991800,8.86499169921875,-4.921728134155273,-1.9703285694122314,-1.571898341178894
1740247377621972700,8.87497265625,-4.931125640869141,-1.8786201477050781,-1.3306151628494263
1740247377631955000,8.884954833984375,-4.844235420227051,-1.6205174922943115,-0.9990816712379456
1740247377641936000,8.894935791015625,-4.686807632446289,-1.2605534791946411,-0.6046028137207031
1740247377651917800,8.904917724609374,-4.459665775299072,-0.8660991191864014,-0.18811877071857452
1740247377661898800,8.914898681640626,-4.167924404144287,-0.4969024360179901,0.1923353523015976
1740247377671880700,8.924880615234375,-3.8398354053497314,-0.17747172713279724,0.48280367255210876
1740247377681862000,8.93486181640625,-3.5142855644226074,0.10008318722248077,0.6706425547599792
1740247377691843800,8.94484375,-3.2351157665252686,0.34419307112693787,0.7626129388809204
1740247377701825000,8.954824951171876,-3.0397703647613525,0.5474985241889954,0.8052999377250671
1740247377711806700,8.964806640625,-2.950444221496582,0.6904774904251099,0.8367172479629517
1740247377721788400,8.974788330078125,-2.9311459064483643,0.7565827369689941,0.8890480995178223
1740247377731770400,8.984770263671875,-2.9458484649658203,0.748297393321991,0.9599303007125854
1740247377741751600,8.99475146484375,-2.9700889587402344,0.6865208745002747,1.0394221544265747
1740247377751733200,9.004733154296876,-2.988845109939575,0.5903924703598022,1.1000131368637085
1740247377761714200,9.014714111328125,-2.9964406490325928,0.4696625769138336,1.1390113830566406
1740247377771696400,9.0246962890625,-2.9957120418548584,0.3545788526535034,1.1380484104156494
1740247377781677300,9.03467724609375,-2.9705348014831543,0.26160791516304016,1.1123554706573486
1740247377791659300,9.0446591796875,-2.9320387840270996,0.21430936455726624,1.0733082294464111
1740247377801640200,9.05464013671875,-2.8755600452423096,0.20215070247650146,1.0528876781463623
1740247377811622400,9.064622314453125,-2.8252434730529785,0.21766121685504913,1.0646721124649048
1740247377821603300,9.074603271484374,-2.7762255668640137,0.24180038273334503,1.1375147104263306
1740247377831585300,9.084585205078126,-2.7176830768585205,0.2371840476989746,1.2625426054000854
1740247377841566200,9.094566162109375,-2.6498916149139404,0.1545030176639557,1.4133472442626953
1740247377851548400,9.10454833984375,-2.5965611934661865,-0.00800359807908535,1.5574389696121216
1740247377861529300,9.114529296875,-2.5680556297302246,-0.2194114476442337,1.6645534038543701
1740247377871511300,9.12451123046875,-2.5745654106140137,-0.4135580360889435,1.719401240348816
1740247377881492500,9.134492431640625,-2.6121256351470947,-0.5344482064247131,1.7076194286346436
1740247377891473400,9.144473388671875,-2.677253246307373,-0.5451815724372864,1.635482907295227
1740247377901455400,9.154455322265624,-2.742792844772339,-0.4471322298049927,1.5153714418411255
1740247377911436300,9.164436279296876,-2.793972969055176,-0.3007100224494934,1.362910509109497
1740247377921418500,9.17441845703125,-2.8350026607513428,-0.15214931964874268,1.1964764595031738
1740247377931399400,9.1843994140625,-2.841665267944336,-0.026214027777314186,1.029895544052124
1740247377941381400,9.19438134765625,-2.8003573417663574,0.042634811252355576,0.885391354560852
1740247377951362300,9.2043623046875,-2.714841365814209,0.07223238795995712,0.7880703806877136
1740247377961344300,9.21434423828125,-2.610447883605957,0.11615563184022903,0.7409361600875854
1740247377971325400,9.224325439453125,-2.4877490997314453,0.18820719420909882,0.7319232225418091
1740247377981307400,9.234307373046875,-2.3241536617279053,0.2676237225532532,0.7459479570388794
1740247377991288300,9.244288330078126,-2.108060598373413,0.34290996193885803,0.7617501020431519
1740247378001270300,9.254270263671875,-1.858217477798462,0.43144887685775757,0.7725161910057068
1740247378011251500,9.26425146484375,-1.5822244882583618,0.48430517315864563,0.7719225883483887
1740247378021233400,9.2742333984375,-1.2729843854904175,0.4831445515155792,0.7401084303855896
1740247378031214300,9.28421435546875,-0.9280620813369751,0.41789552569389343,0.6821159720420837
1740247378041196300,9.2941962890625,-0.5669116377830505,0.34426018595695496,0.5808466076850891
1740247378051177200,9.30417724609375,-0.2081018090248108,0.30956077575683594,0.43661433458328247
1740247378061159400,9.314159423828125,0.15167181193828583,0.3285443186759949,0.24265311658382416
1740247378071140400,9.324140380859374,0.5237521529197693,0.38769420981407166,0.0039047268219292164
1740247378081122300,9.334122314453126,0.8944244980812073,0.4657224118709564,-0.27068954706192017
1740247378091103200,9.344103271484375,1.24660062789917,0.553811252117157,-0.580628514289856
1740247378101085400,9.35408544921875,1.5582789182662964,0.6530930995941162,-0.9000089168548584
1740247378111066400,9.36406640625,1.8094309568405151,0.7652021050453186,-1.1995468139648438
1740247378121048600,9.374048583984376,1.990236759185791,0.8697977066040039,-1.453698754310608
1740247378131029200,9.384029296875,2.1108269691467285,0.9514966011047363,-1.6394044160842896
1740247378141011200,9.39401123046875,2.1856601238250732,0.9840114116668701,-1.756213903427124
1740247378150992400,9.403992431640624,2.2478692531585693,0.9513239860534668,-1.8091458082199097
1740247378160974300,9.413974365234376,2.316911458969116,0.8469241261482239,-1.8120819330215454
1740247378170955500,9.42395556640625,2.4031684398651123,0.6909244060516357,-1.7848877906799316
1740247378180936400,9.4339365234375,2.5137455463409424,0.5077407360076904,-1.7383456230163574
1740247378190918400,9.44391845703125,2.6405320167541504,0.31825095415115356,-1.676651954650879
1740247378200899300,9.4538994140625,2.7894515991210938,0.15118445456027985,-1.5993539094924927
1740247378210881300,9.46388134765625,2.950188398361206,0.015451394021511078,-1.516903281211853
1740247378220862500,9.473862548828125,3.1251745223999023,-0.08711332827806473,-1.4249824285507202
1740247378230844200,9.48384423828125,3.2942721843719482,-0.160772904753685,-1.3218905925750732
1740247378240825300,9.493825439453126,3.4561002254486084,-0.22161707282066345,-1.206091046333313
1740247378250807300,9.503807373046875,3.6004798412323,-0.28090915083885193,-1.0816173553466797
1740247378260788500,9.51378857421875,3.7263195514678955,-0.32816535234451294,-0.9567749500274658
1740247378270770400,9.5237705078125,3.8218634128570557,-0.3417874276638031,-0.8364027738571167
1740247378280751000,9.533751220703126,3.891037940979004,-0.32026776671409607,-0.7392626404762268
1740247378290733300,9.5437333984375,3.941800832748413,-0.2510561943054199,-0.6607403755187988
1740247378300714200,9.55371435546875,3.9754395484924316,-0.13730086386203766,-0.6022869348526001
1740247378310696400,9.563696533203125,3.991405725479126,0.00122558674775064,-0.5678029656410217
1740247378320677400,9.573677490234376,3.999431610107422,0.15577521920204163,-0.5519737005233765
1740247378330659300,9.583659423828125,4.0001935958862305,0.2998892366886139,-0.5384650826454163
1740247378340640300,9.59364013671875,3.9794552326202393,0.4170137345790863,-0.5224946141242981
1740247378350622500,9.60362255859375,3.954519033432007,0.4958678185939789,-0.5033131837844849
1740247378360603400,9.613603271484376,3.931784152984619,0.5279724597930908,-0.4848465919494629
1740247378370585300,9.62358544921875,3.9082272052764893,0.5298295021057129,-0.46855229139328003
1740247378380566300,9.633566162109375,3.886284828186035,0.5032450556755066,-0.4636656641960144
1740247378390548200,9.64354833984375,3.8713176250457764,0.4715938866138458,-0.4670795798301697
1740247378400529400,9.653529296875,3.8369953632354736,0.4505080580711365,-0.47429513931274414
1740247378410511400,9.663511474609376,3.7871689796447754,0.43246594071388245,-0.4735947251319885
1740247378420492300,9.6734921875,3.6931793689727783,0.41711387038230896,-0.4448557496070862
1740247378430474200,9.68347412109375,3.494892120361328,0.4378521740436554,-0.3787848651409149
1740247378440455400,9.693455322265624,3.169072389602661,0.49542972445487976,-0.26639866828918457
1740247378450437400,9.703437255859376,2.70475697517395,0.5698522925376892,-0.11607920378446579
1740247378460418300,9.713418212890625,2.135730266571045,0.6520398259162903,0.0767483040690422
1740247378470400300,9.723400146484375,1.5372812747955322,0.6924408078193665,0.30540919303894043
1740247378480381200,9.733381103515624,0.9867382049560547,0.6966216564178467,0.5591735243797302
1740247378490363400,9.74336328125,0.5236794948577881,0.680972158908844,0.8172551393508911
1740247378500344300,9.75334423828125,0.15737390518188477,0.6538974046707153,1.0198866128921509
1740247378510326300,9.763326171875,-0.13921354711055756,0.6360518336296082,1.0999070405960083
1740247378520307200,9.77330712890625,-0.41039925813674927,0.6059197187423706,1.009807825088501
1740247378530289400,9.783289306640626,-0.6920322775840759,0.5549556016921997,0.7695115804672241
1740247378540270300,9.793270263671875,-0.996955394744873,0.4931071698665619,0.42460161447525024
1740247378550252500,9.80325244140625,-1.3116017580032349,0.4185762107372284,0.05541292577981949
1740247378560233500,9.8132333984375,-1.5875872373580933,0.32413333654403687,-0.2863132655620575
1740247378570214100,9.823214111328125,-1.7869683504104614,0.17463359236717224,-0.5570688247680664
1740247378580196400,9.8331962890625,-1.9321976900100708,0.004007524810731411,-0.7380442023277283
1740247378590177300,9.84317724609375,-2.070077419281006,-0.0919773280620575,-0.8111469149589539
1740247378600159500,9.853159423828124,-2.2213351726531982,-0.1083560362458229,-0.7734088897705078
1740247378610140400,9.863140380859376,-2.382786512374878,-0.07288991659879684,-0.626731276512146
1740247378620122400,9.873122314453125,-2.562615394592285,0.0026844663079828024,-0.395257830619812
1740247378630103300,9.883103271484375,-2.7322933673858643,0.12222418189048767,-0.09729832410812378
1740247378640085200,9.893085205078124,-2.851956844329834,0.2923991084098816,0.2319088578224182
1740247378650066400,9.90306640625,-2.872026205062866,0.5270121693611145,0.5726217031478882
1740247378660048100,9.913048095703125,-2.744951009750366,0.8613070249557495,0.9139665365219116
1740247378670029300,9.923029296875,-2.455198287963867,1.2617098093032837,1.228601098060608
1740247378680011300,9.93301123046875,-2.055743455886841,1.6738899946212769,1.4743635654449463
1740247378689992400,9.942992431640626,-1.625859260559082,2.0920205116271973,1.5697081089019775
1740247378699974400,9.952974365234375,-1.2159456014633179,2.5476696491241455,1.481564998626709
1740247378709955300,9.962955322265625,-0.8876312971115112,2.9785454273223877,1.2344739437103271
1740247378719936800,9.972936767578124,-0.6984443664550781,3.2629904747009277,0.9303614497184753
1740247378729918000,9.98291796875,-0.6629550457000732,3.2524943351745605,0.6869810223579407
1740247378739900000,9.99289990234375,-0.7645394802093506,2.88222074508667,0.5713465809822083
1740247378749881000,10.002881103515625,-0.9546564221382141,2.184868574142456,0.5942910313606262
1740247378759862800,10.01286279296875,-1.2188332080841064,1.2700697183609009,0.7484220266342163
1740247378769844000,10.022843994140626,-1.5515397787094116,0.28515398502349854,0.9795127511024475
1740247378779826000,10.032825927734375,-1.9164849519729614,-0.705105185508728,1.2492507696151733
1740247378789806800,10.042806884765625,-2.270190954208374,-1.6429147720336914,1.4961553812026978
1740247378799789000,10.0527890625,-2.617361545562744,-2.4261271953582764,1.6421929597854614
1740247378809770000,10.06277001953125,-2.970496416091919,-2.9864041805267334,1.6338276863098145
1740247378819752000,10.072751953125,-3.3277342319488525,-3.29333233833313,1.477388858795166
1740247378829732900,10.08273291015625,-3.652848482131958,-3.4043807983398438,1.2084455490112305
1740247378839715000,10.092715087890625,-3.8987488746643066,-3.4171531200408936,0.9009713530540466
1740247378849696000,10.102696044921874,-4.049721717834473,-3.3584964275360107,0.61619633436203
1740247378859678000,10.112677978515626,-4.120092868804932,-3.2390496730804443,0.4003641903400421
1740247378869659000,10.122658935546875,-4.087305545806885,-3.0640931129455566,0.2507176995277405
1740247378879641000,10.13264111328125,-3.932159900665283,-2.822740077972412,0.17140264809131622
1740247378889622000,10.1426220703125,-3.6901919841766357,-2.5176429748535156,0.17511242628097534
1740247378899604000,10.15260400390625,-3.4224839210510254,-2.1386585235595703,0.26331260800361633
1740247378909585000,10.1625849609375,-3.1749188899993896,-1.680863380432129,0.445724755525589
1740247378919566800,10.17256689453125,-2.9574334621429443,-1.2076470851898193,0.6731879711151123
1740247378929548000,10.182548095703124,-2.7426834106445312,-0.8237026929855347,0.9183958768844604
1740247378939530000,10.192530029296876,-2.5144383907318115,-0.6092659831047058,1.1359257698059082
1740247378949511200,10.20251123046875,-2.2846360206604004,-0.5354295969009399,1.2691065073013306
1740247378959492900,10.212492919921875,-2.0535671710968018,-0.542817234992981,1.2864381074905396
1740247378969474000,10.22247412109375,-1.8322255611419678,-0.5343643426895142,1.1800663471221924
1740247378979456000,10.2324560546875,-1.5773367881774902,-0.4608296751976013,0.9663034677505493
1740247378989437000,10.24243701171875,-1.2453407049179077,-0.3708217442035675,0.6679388880729675
1740247378999418000,10.252418212890625,-0.8590401411056519,-0.3433757424354553,0.2941695749759674
1740247379009399800,10.26239990234375,-0.4659897983074188,-0.40726524591445923,-0.13618606328964233
1740247379019381000,10.272381103515626,-0.12110884487628937,-0.530115008354187,-0.5861641764640808
1740247379029363000,10.282363037109375,0.11619531363248825,-0.73857182264328,-1.0026297569274902
1740247379039344000,10.29234423828125,0.2216048240661621,-1.0149085521697998,-1.3268957138061523
1740247379049325800,10.302325927734374,0.21466223895549774,-1.3006771802902222,-1.5288560390472412
1740247379059306800,10.312306640625,0.16763614118099213,-1.532607078552246,-1.622571587562561
1740247379069289000,10.3222890625,0.13234472274780273,-1.6870049238204956,-1.6490801572799683
1740247379079270000,10.332269775390625,0.15847192704677582,-1.7498443126678467,-1.6206400394439697
1740247379089252000,10.342252197265625,0.27086132764816284,-1.7271432876586914,-1.5337048768997192
1740247379099233000,10.35223291015625,0.47871118783950806,-1.5985134840011597,-1.3678029775619507
1740247379109215000,10.362215087890625,0.7697116136550903,-1.3511438369750977,-1.1179063320159912
1740247379119196000,10.37219580078125,1.121453881263733,-1.0261681079864502,-0.7902398109436035
1740247379129178000,10.38217822265625,1.5054173469543457,-0.663935124874115,-0.40761518478393555
1740247379139159000,10.392158935546876,1.9082611799240112,-0.3192533552646637,-0.01242417935281992
1740247379149141000,10.40214111328125,2.3156774044036865,-0.0035414716694504023,0.3690717816352844
1740247379159122000,10.412121826171875,2.698655128479004,0.3157012462615967,0.6923936605453491
1740247379169104000,10.422103759765625,3.0240423679351807,0.6748911142349243,0.9402404427528381
1740247379179085000,10.4320849609375,3.2949681282043457,1.0631115436553955,1.1114928722381592
1740247379189067000,10.44206689453125,3.512129306793213,1.4445856809616089,1.215739130973816
1740247379199048000,10.4520478515625,3.6771841049194336,1.803312063217163,1.2584635019302368
1740247379209030000,10.46202978515625,3.828601837158203,2.0967724323272705,1.2619072198867798
1740247379219011000,10.472010986328126,3.9944324493408203,2.2766411304473877,1.2349727153778076
1740247379228993000,10.481992919921876,4.163689136505127,2.32808780670166,1.1633288860321045
1740247379238974000,10.491973876953125,4.322691440582275,2.2519025802612305,1.0547372102737427
1740247379248956000,10.501955810546875,4.447843074798584,2.0801727771759033,0.9037367701530457
1740247379258936800,10.511936767578124,4.524054527282715,1.8598371744155884,0.7102439999580383
1740247379268919000,10.5219189453125,4.541611194610596,1.622786283493042,0.47757935523986816
1740247379278900000,10.53189990234375,4.498047828674316,1.4030059576034546,0.22023943066596985
1740247379288882000,10.5418818359375,4.399412155151367,1.2094954252243042,-0.04909191280603409
1740247379298862800,10.55186279296875,4.279543876647949,1.0500303506851196,-0.3273509740829468
1740247379308845000,10.561844970703126,4.175234794616699,0.9039967060089111,-0.5836352109909058
1740247379318826000,10.571825927734375,4.090585708618164,0.7642545104026794,-0.8126795887947083
1740247379328808200,10.58180810546875,4.0165534019470215,0.6046768426895142,-0.9893840551376343
1740247379338788900,10.591788818359374,3.964240789413452,0.43357300758361816,-1.1210800409317017
1740247379348770800,10.601770751953126,3.9149258136749268,0.288748174905777,-1.2186659574508667
1740247379358752000,10.611751953125,3.8587422370910645,0.20048941671848297,-1.2948869466781616
1740247379368734000,10.62173388671875,3.7920963764190674,0.18612699210643768,-1.3641467094421387
1740247379378715100,10.631715087890624,3.743847370147705,0.23740269243717194,-1.4249621629714966
1740247379388696800,10.64169677734375,3.7338249683380127,0.3443280756473541,-1.4687578678131104
1740247379398678000,10.651677978515625,3.791959285736084,0.521073579788208,-1.4821155071258545
1740247379408660000,10.661659912109375,3.902249336242676,0.7241710424423218,-1.466326117515564
1740247379418641000,10.671640869140624,4.013055801391602,0.8917165994644165,-1.4164291620254517
1740247379428622800,10.681622802734376,4.064315319061279,0.9669826030731201,-1.319218397140503
1740247379438603800,10.691603759765625,4.037474632263184,1.0041840076446533,-1.1823334693908691
1740247379448586000,10.7015859375,3.9531421661376953,1.0484495162963867,-1.014219045639038
1740247379458567000,10.71156689453125,3.8412225246429443,1.0741324424743652,-0.8197939395904541
1740247379468549000,10.721549072265624,3.738734483718872,1.0750478506088257,-0.6102284789085388
1740247379478530000,10.731530029296875,3.6575815677642822,1.068387746810913,-0.4093819260597229
1740247379488512000,10.741511962890625,3.5829718112945557,1.0528194904327393,-0.25404372811317444
1740247379498493000,10.751492919921875,3.4768028259277344,0.9419094920158386,-0.17745734751224518
1740247379508475100,10.76147509765625,3.3022751808166504,0.7038558721542358,-0.19357772171497345
1740247379518456000,10.7714560546875,3.0198440551757812,0.4114442765712738,-0.27460119128227234
1740247379528437800,10.781437744140625,2.593118906021118,0.12096956372261047,-0.39510631561279297
1740247379538419000,10.7914189453125,2.0213048458099365,-0.18790385127067566,-0.5181704759597778
1740247379548401000,10.80140087890625,1.3357486724853516,-0.5410837531089783,-0.6475012898445129
1740247379558382000,10.811382080078126,0.5728741884231567,-0.9264125227928162,-0.7771106958389282
1740247379568364000,10.821364013671875,-0.23735876381397247,-1.307865858078003,-0.8802607655525208
1740247379578345000,10.831344970703125,-1.0585660934448242,-1.6436502933502197,-0.9320682883262634
1740247379588327000,10.841326904296874,-1.802703619003296,-1.9396007061004639,-0.8970788717269897
1740247379598307800,10.851307861328126,-2.4183108806610107,-2.1279728412628174,-0.7777319550514221
1740247379608290000,10.8612900390625,-2.9248294830322266,-2.1326026916503906,-0.599977433681488
1740247379618271000,10.87127099609375,-3.3570303916931152,-1.9490221738815308,-0.3759368658065796
1740247379628253000,10.8812529296875,-3.742048740386963,-1.629568338394165,-0.13658607006072998
1740247379638233900,10.89123388671875,-4.087563991546631,-1.2442419528961182,0.0908912867307663
1740247379648216000,10.901216064453125,-4.40574836730957,-0.8362246155738831,0.2688535749912262
1740247379658197000,10.911197021484375,-4.684545040130615,-0.427419513463974,0.38797304034233093
1740247379668179000,10.921178955078124,-4.916347980499268,-0.08051934093236923,0.4634755253791809
1740247379678160000,10.931159912109376,-5.082622528076172,0.1513892561197281,0.49934616684913635
1740247379688142000,10.94114208984375,-5.190499782562256,0.27037423849105835,0.4981248378753662
1740247379698123000,10.951123046875,-5.228480815887451,0.29287847876548767,0.4462350010871887
1740247379708105000,10.96110498046875,-5.214674949645996,0.23739470541477203,0.33828696608543396
1740247379718086100,10.971086181640626,-5.17515754699707,0.127956360578537,0.17509831488132477
1740247379728068000,10.981068115234375,-5.1547017097473145,-0.0032258869614452124,-0.03650953993201256
1740247379738049300,10.99104931640625,-5.188718795776367,-0.14650608599185944,-0.2902850806713104
1740247379748030200,11.0010302734375,-5.289487838745117,-0.28955110907554626,-0.5703854560852051
1740247379758012400,11.011012451171876,-5.4662981033325195,-0.4141188859939575,-0.8332002758979797
1740247379767993000,11.0209931640625,-5.702457427978516,-0.5168596506118774,-1.0325522422790527
1740247379777975300,11.030975341796875,-5.933899879455566,-0.5537796020507812,-1.1138793230056763
1740247379787956200,11.040956298828124,-6.115329742431641,-0.5002028942108154,-1.0439101457595825
1740247379797938200,11.050938232421874,-6.215878963470459,-0.3903733491897583,-0.8255362510681152
1740247379807919400,11.06091943359375,-6.2255096435546875,-0.2841659486293793,-0.4895246922969818
1740247379817901000,11.070901123046875,-6.1329169273376465,-0.1696699857711792,-0.07077829539775848
1740247379827882200,11.08088232421875,-5.910090446472168,-0.027425765991210938,0.388458251953125
1740247379837864200,11.0908642578125,-5.5774245262146,0.15053650736808777,0.8389370441436768
1740247379847845400,11.100845458984375,-5.2037153244018555,0.3838709592819214,1.2298896312713623
1740247379857827000,11.1108271484375,-4.875355243682861,0.6973191499710083,1.5350923538208008
1740247379867808000,11.12080810546875,-4.623904228210449,1.0448582172393799,1.7467974424362183
1740247379877790200,11.130790283203124,-4.443484783172607,1.3307876586914062,1.8720072507858276
1740247379887771100,11.140771240234375,-4.321630001068115,1.5058335065841675,1.9262715578079224
1740247379897753300,11.15075341796875,-4.226256370544434,1.5861464738845825,1.9192999601364136
1740247379907734300,11.160734375,-4.111538410186768,1.5793304443359375,1.879433274269104
1740247379917716200,11.17071630859375,-3.8991928100585938,1.4782048463821411,1.8153871297836304
1740247379927697200,11.180697265625,-3.52144455909729,1.265044093132019,1.7514015436172485
1740247379937679400,11.190679443359375,-2.971799612045288,0.906548798084259,1.6932793855667114
1740247379947660300,11.200660400390625,-2.3048455715179443,0.42112672328948975,1.6219673156738281
1740247379957642200,11.210642333984374,-1.5924140214920044,-0.11108524352312088,1.5289849042892456
1740247379967623200,11.220623046875,-0.9173260927200317,-0.5979076027870178,1.3925539255142212
1740247379977605000,11.230605224609375,-0.35436660051345825,-0.9716782569885254,1.2079342603683472
1740247379987586300,11.24058642578125,0.0657166987657547,-1.2002842426300049,0.9724330306053162
1740247379997568300,11.250568359375,0.34005236625671387,-1.2676585912704468,0.6946296095848083
1740247380007549200,11.260549072265626,0.5113080143928528,-1.2054157257080078,0.4025122821331024
1740247380017531100,11.27053125,0.6106311678886414,-1.0125948190689087,0.12211579084396362
1740247380027512300,11.28051220703125,0.6658602952957153,-0.7154400944709778,-0.13121847808361053
1740247380037494300,11.290494384765625,0.7346766591072083,-0.40000438690185547,-0.33362776041030884
1740247380047475200,11.30047509765625,0.846104085445404,-0.18314771354198456,-0.49027037620544434
1740247380057457200,11.31045703125,1.0017261505126953,-0.11307276040315628,-0.6128865480422974
1740247380067438000,11.32043798828125,1.1863861083984375,-0.10889505594968796,-0.7361957430839539
1740247380077420300,11.330420166015625,1.3672477006912231,-0.06973886489868164,-0.8948373198509216
1740247380087401200,11.340401123046876,1.5388051271438599,0.04135569557547569,-1.0933634042739868
1740247380097383200,11.350383056640625,1.722987413406372,0.18748360872268677,-1.315411925315857
1740247380107364000,11.360364013671875,1.9263291358947754,0.3201793432235718,-1.5098565816879272
1740247380117346300,11.37034619140625,2.1331794261932373,0.44430023431777954,-1.624452829360962
1740247380127327200,11.3803271484375,2.318045139312744,0.5677638649940491,-1.6294583082199097
1740247380137309400,11.390309326171876,2.4743447303771973,0.6947082281112671,-1.5187346935272217
1740247380147290000,11.4002900390625,2.621534585952759,0.8163531422615051,-1.332802653312683
1740247380157272000,11.41027197265625,2.7764840126037598,0.9090452790260315,-1.1043570041656494
1740247380167253200,11.420253173828126,2.956603527069092,0.9496393203735352,-0.8587903380393982
1740247380177235200,11.430235107421876,3.159257173538208,0.9564090371131897,-0.6196044087409973
1740247380187216400,11.44021630859375,3.3853936195373535,0.9296240210533142,-0.40772995352745056
1740247380197198000,11.450197998046875,3.61596941947937,0.8823521137237549,-0.23619017004966736
1740247380207179300,11.46017919921875,3.8289809226989746,0.8294971585273743,-0.11166448146104813
1740247380217161200,11.4701611328125,3.9987611770629883,0.7793937921524048,-0.027160514146089554
1740247380227142100,11.48014208984375,4.118399143218994,0.7598696351051331,0.023807328194379807
1740247380237124000,11.4901240234375,4.208093643188477,0.7866452932357788,0.05547710880637169
1740247380247105000,11.50010498046875,4.281890392303467,0.8317323923110962,0.08377239108085632
1740247380257087200,11.510087158203126,4.354487895965576,0.8525140881538391,0.11576414853334427
1740247380267068200,11.520068115234375,4.41737699508667,0.8343827724456787,0.14618517458438873
1740247380277050400,11.53005029296875,4.462862968444824,0.7714000344276428,0.1499016135931015
1740247380287031300,11.54003125,4.474207401275635,0.6774858236312866,0.12878301739692688
1740247380297013200,11.55001318359375,4.44851541519165,0.556121826171875,0.07170774042606354
1740247380306994200,11.559994140625,4.396352767944336,0.48377546668052673,-0.0027276095934212208
1740247380316976400,11.569976318359375,4.329477310180664,0.46648648381233215,-0.10079371929168701
1740247380326957300,11.579957275390624,4.271754741668701,0.49772483110427856,-0.20897053182125092
1740247380336939000,11.58993896484375,4.2271199226379395,0.5493289232254028,-0.3304881751537323
1740247380346920200,11.599920166015625,4.192983150482178,0.6232260465621948,-0.4473836421966553
1740247380356902100,11.609902099609375,4.156846046447754,0.7224799394607544,-0.5482196807861328
1740247380366883300,11.61988330078125,4.1124162673950195,0.8213207125663757,-0.6313409209251404
1740247380376865000,11.629864990234376,4.049379348754883,0.8732696771621704,-0.6888939738273621
1740247380386846200,11.63984619140625,3.9680235385894775,0.8508128523826599,-0.7257856726646423
1740247380396828200,11.649828125,3.8559069633483887,0.7427161931991577,-0.7368772029876709
1740247380406809000,11.65980908203125,3.719710111618042,0.5419135689735413,-0.7084106802940369
1740247380416791300,11.669791259765624,3.574357271194458,0.3000282645225525,-0.654822826385498
1740247380426772200,11.679772216796875,3.423879861831665,0.055682968348264694,-0.5885586142539978
1740247380436754200,11.689754150390625,3.2648510932922363,-0.15507613122463226,-0.5197089314460754
1740247380446735000,11.699735107421875,3.083458423614502,-0.3061676621437073,-0.46608808636665344
1740247380456717300,11.70971728515625,2.876696825027466,-0.37161511182785034,-0.43945327401161194
1740247380466698200,11.7196982421875,2.6263976097106934,-0.3287464678287506,-0.45860379934310913
1740247380476680200,11.72968017578125,2.315631151199341,-0.21845643222332,-0.5498559474945068
1740247380486661000,11.7396611328125,1.9261932373046875,-0.07570541650056839,-0.7359307408332825
1740247380496643300,11.749643310546874,1.4526212215423584,0.08966650068759918,-1.01278555393219
1740247380506624300,11.759624267578126,0.9300011396408081,0.2665270268917084,-1.3250616788864136
1740247380516606200,11.769606201171875,0.42352116107940674,0.3916814923286438,-1.6203784942626953
1740247380526587100,11.779587158203125,-0.015453258529305458,0.4085821807384491,-1.840269923210144
1740247380536569000,11.789569091796874,-0.36869093775749207,0.26795899868011475,-1.944383978843689
1740247380546550300,11.79955029296875,-0.6283195614814758,0.025359684601426125,-1.8928065299987793
1740247380556532200,11.8095322265625,-0.8291640281677246,-0.25951331853866577,-1.6674238443374634
1740247380566513400,11.819513427734375,-0.9811245203018188,-0.5665819048881531,-1.2969071865081787
1740247380576495000,11.8294951171875,-1.1208057403564453,-0.8496496081352234,-0.8290513753890991
1740247380586476300,11.839476318359376,-1.271336317062378,-1.1007518768310547,-0.30744677782058716
1740247380596458200,11.849458251953125,-1.4450269937515259,-1.269762396812439,0.2217467725276947
1740247380606439200,11.859439208984375,-1.6411248445510864,-1.3613018989562988,0.7284349799156189
1740247380616421000,11.869421142578124,-1.8129674196243286,-1.3915197849273682,1.1967042684555054
1740247380626402000,11.879402099609376,-1.8661177158355713,-1.4288381338119507,1.6023657321929932
1740247380636384300,11.88938427734375,-1.704897165298462,-1.4788762331008911,1.9096713066101074
1740247380646365200,11.899365234375,-1.3906478881835938,-1.459226369857788,2.082472801208496
1740247380656347400,11.909347412109375,-1.2103915214538574,-1.1722217798233032,2.074260950088501
1740247380666328000,11.919328125,-1.4237525463104248,-0.4552285075187683,1.8684812784194946
1740247380676310300,11.929310302734375,-2.1038429737091064,0.6019226312637329,1.5055842399597168
1740247380686291200,11.939291259765625,-3.0965328216552734,1.787024736404419,1.0870692729949951
1740247380696273400,11.9492734375,-4.095556259155273,2.8022053241729736,0.77376389503479
1740247380706254300,11.95925439453125,-4.786967754364014,3.3535003662109375,0.6685562133789062
1740247380716236000,11.969236083984375,-4.948511123657227,3.160454273223877,0.7281210422515869
1740247380726216200,11.97921630859375,-4.624932765960693,2.014695644378662,0.8163342475891113
1740247380736198400,11.989198486328124,-4.105440139770508,0.32777202129364014,0.8178053498268127
1740247380746179300,11.999179443359376,-3.7295777797698975,-1.0410834550857544,0.7013226747512817
1740247380756161500,12.00916162109375,-3.7015514373779297,-1.628083348274231,0.4743872880935669
1740247380766142500,12.019142578125,-3.9520928859710693,-1.597548007965088,0.16545288264751434
1740247380776124400,12.02912451171875,-4.297503471374512,-1.219180703163147,-0.1667005717754364
1740247380786105300,12.039105224609376,-4.561259746551514,-0.7830838561058044,-0.46136388182640076
1740247380796087600,12.049087646484375,-4.632523536682129,-0.5255050659179688,-0.6708574891090393
1740247380806068500,12.059068359375,-4.536632061004639,-0.5697316527366638,-0.7743833065032959
1740247380816050400,12.069050537109375,-4.389405250549316,-0.7686969637870789,-0.7914986610412598
1740247380826031400,12.07903125,-4.308628082275391,-0.9248929619789124,-0.7330840826034546
1740247380836013300,12.089013427734375,-4.288651466369629,-0.9638163447380066,-0.6212973594665527
1740247380845994500,12.098994384765625,-4.27502965927124,-0.9868929386138916,-0.46804335713386536
1740247380855976400,12.1089765625,-4.253505706787109,-1.0150233507156372,-0.3299004137516022
1740247380865957400,12.118957275390626,-4.244930267333984,-0.9625276923179626,-0.23125852644443512
1740247380875939300,12.128939208984375,-4.236928939819336,-0.7494665384292603,-0.1721954643726349
1740247380885920500,12.13892041015625,-4.188415050506592,-0.40552592277526855,-0.12306200712919235
1740247380895902500,12.14890234375,-4.061707973480225,-0.06286364793777466,-0.057144246995449066
1740247380905883400,12.15888330078125,-3.8234028816223145,0.17162927985191345,0.007429154124110937
1740247380915865300,12.168865234375,-3.494518995285034,0.26089897751808167,0.055995624512434006
1740247380925846300,12.17884619140625,-3.1362202167510986,0.24511361122131348,0.06711804866790771
1740247380935828500,12.188828369140625,-2.79445481300354,0.20964936912059784,0.024831579998135567
1740247380945809400,12.198809326171874,-2.468871831893921,0.20549775660037994,-0.0630175843834877
1740247380955791400,12.208791259765626,-2.1128478050231934,0.19469012320041656,-0.19595539569854736
1740247380965772300,12.218772216796875,-1.71133553981781,0.1485588550567627,-0.35807666182518005
1740247380975754500,12.22875439453125,-1.2836058139801025,0.0756625384092331,-0.523322582244873
1740247380985735400,12.2387353515625,-0.8306061029434204,-0.021263476461172104,-0.6650834679603577
1740247380995717600,12.248717529296876,-0.3477180302143097,-0.2354079931974411,-0.7721193432807922
1740247381005698600,12.258698486328125,0.1589299887418747,-0.5839622616767883,-0.857605516910553
1740247381015680300,12.26868017578125,0.64226895570755,-0.9005822539329529,-0.9240670800209045
1740247381025661400,12.278661376953124,1.0538700819015503,-1.039033055305481,-0.9861352443695068
1740247381035643400,12.288643310546876,1.3765251636505127,-1.0149158239364624,-1.0636426210403442
1740247381045624600,12.29862451171875,1.6360615491867065,-0.9340592622756958,-1.1274969577789307
1740247381055606300,12.308606201171875,1.8461940288543701,-0.8027033805847168,-1.1414740085601807
1740247381065587500,12.31858740234375,2.0174875259399414,-0.6189479231834412,-1.0757958889007568
1740247381075569400,12.3285693359375,2.1474766731262207,-0.37790149450302124,-0.9362664818763733
1740247381085550300,12.33855029296875,2.246473789215088,-0.10262810438871384,-0.7433604001998901
1740247381095532500,12.348532470703125,2.352071523666382,0.14815005660057068,-0.5185344815254211
1740247381105513200,12.35851318359375,2.5165560245513916,0.3037894368171692,-0.27074652910232544
1740247381115495400,12.368495361328126,2.7452855110168457,0.3039127588272095,-0.020385699346661568
1740247381125476400,12.378476318359375,3.0063796043395996,0.1845935434103012,0.21399617195129395
1740247381135458600,12.38845849609375,3.2565832138061523,-0.00230842805467546,0.4214300513267517
1740247381145439500,12.398439453125,3.4533605575561523,-0.15896248817443848,0.5998770594596863
1740247381155421400,12.40842138671875,3.5740129947662354,-0.24438151717185974,0.7440781593322754
1740247381165402400,12.41840234375,3.63690447807312,-0.2542479932308197,0.8538403511047363
1740247381175384600,12.428384521484375,3.687803268432617,-0.22175262868404388,0.9350411891937256
1740247381185365500,12.438365478515625,3.7551634311676025,-0.2059270590543747,0.9823876619338989
1740247381195347200,12.44834716796875,3.8314599990844727,-0.20987972617149353,1.0169546604156494
1740247381205328400,12.458328369140625,3.909166097640991,-0.21495118737220764,1.0424551963806152
1740247381215310300,12.468310302734375,3.975914478302002,-0.20573611557483673,1.0579215288162231
1740247381225291500,12.47829150390625,4.0207624435424805,-0.19070176780223846,1.0658870935440063
1740247381235273500,12.4882734375,4.0333943367004395,-0.16543236374855042,1.0607261657714844
1740247381245254400,12.49825439453125,4.029808044433594,-0.13138732314109802,1.0601050853729248
1740247381255236400,12.508236328125,4.019843101501465,-0.08945690840482712,1.0508908033370972
1740247381265217300,12.51821728515625,4.0138373374938965,-0.054844338446855545,1.0456312894821167
1740247381275199500,12.528199462890624,4.012780666351318,-0.01311979629099369,1.034147024154663
1740247381285181400,12.538181396484376,4.015531063079834,0.048164334148168564,1.010843276977539
1740247381295162400,12.548162353515625,4.0164289474487305,0.12254109233617783,0.9793795943260193
1740247381305144300,12.558144287109375,4.000865459442139,0.20471931993961334,0.9338315725326538
1740247381315125500,12.56812548828125,3.9660251140594482,0.2715228497982025,0.8900670409202576
1740247381325107500,12.578107421875,3.9028685092926025,0.3321254849433899,0.8444923758506775
1740247381335088400,12.58808837890625,3.820591926574707,0.4129023551940918,0.8124260306358337
1740247381345070300,12.5980703125,3.724651336669922,0.5100571513175964,0.7908791899681091
