time,seconds_elapsed,z,y,x
1740247368797120000,0.0501201171875,0.035574380308389664,1.2398103475570679,-0.6059440970420837
1740247368807101200,0.06010107421875,-0.09845238924026489,0.49547839164733887,-0.3418263792991638
1740247368817083100,0.070083251953125,-0.2880873382091522,0.05506623908877373,0.11566132307052612
1740247368827064300,0.080064208984375,-0.44307130575180054,-0.4085608124732971,0.7411534786224365
1740247368837046300,0.09004638671875,-0.5681018233299255,-0.9989588260650635,1.440077781677246
1740247368847027200,0.100027099609375,-0.695681095123291,-1.6567153930664062,2.1137685775756836
1740247368857008000,0.110008056640625,-0.6742826700210571,-1.9489847421646118,2.634382486343384
1740247368866990300,0.119990234375,-0.5143385529518127,-1.0398811101913452,2.777283191680908
1740247368876971300,0.12997119140625,-0.23929843306541443,1.1304962635040283,2.061741828918457
1740247368886953200,0.139953125,0.005598415154963732,1.7179064750671387,1.6796337366104126
1740247368896934100,0.14993408203125,0.23311948776245117,1.1124145984649658,1.5268254280090332
1740247368906916000,0.159916015625,0.04379723221063614,0.9052622318267822,0.8700529932975769
1740247368916897300,0.169897216796875,-0.26243677735328674,1.0902994871139526,0.3986133337020874
1740247368926879200,0.179879150390625,-0.33687692880630493,1.1390691995620728,0.3601551651954651
1740247368936860400,0.1898603515625,-0.2989283502101898,1.024071216583252,0.4469016492366791
1740247368946841300,0.19984130859375,-0.2108626663684845,0.800746738910675,0.5811142921447754
1740247368956823000,0.209822998046875,-0.2809775769710541,0.5636415481567383,0.6536071300506592
1740247368966804200,0.21980419921875,-0.4957495331764221,0.2521052062511444,0.6667376160621643
1740247368976786200,0.2297861328125,-0.6885368824005127,-0.04463206231594086,0.6941577792167664
1740247368986767400,0.239767333984375,-0.7143538594245911,-0.21845179796218872,0.6965338587760925
1740247368996748300,0.249748291015625,-0.592049777507782,-0.36219245195388794,0.6557214856147766
1740247369006730200,0.259730224609375,-0.43950390815734863,-0.5684933066368103,0.5723198652267456
1740247369016711200,0.269711181640625,-0.3883243501186371,-0.9204542636871338,0.5065982937812805
1740247369026693000,0.279693115234375,-0.4609418511390686,-1.453471302986145,0.4741743803024292
1740247369036674300,0.28967431640625,-0.36255133152008057,-1.5702626705169678,0.26715192198753357
1740247369046656300,0.29965625,0.31897392868995667,-0.3919968008995056,-0.289904922246933
1740247369056637200,0.30963720703125,0.833526611328125,0.8043293356895447,-0.5200319290161133
1740247369066618000,0.3196181640625,0.8955132961273193,1.33533775806427,-0.43483874201774597
1740247369076600300,0.329600341796875,0.7756947875022888,1.5587629079818726,-0.2664623260498047
1740247369086581200,0.339581298828125,0.6488963961601257,1.7208378314971924,-0.1377408355474472
1740247369096563200,0.349563232421875,0.5012770891189575,1.874822735786438,-0.0727967694401741
1740247369106544400,0.35954443359375,0.2846241593360901,1.9360613822937012,-0.045790717005729675
1740247369116526000,0.369526123046875,0.014692457392811775,1.8253182172775269,-0.008160197176039219
1740247369126507300,0.37950732421875,-0.2402852326631546,1.645303726196289,0.0128614641726017
1740247369136488200,0.38948828125,-0.4199112355709076,1.4955880641937256,0.0126521997153759
1740247369146470400,0.399470458984375,-0.4880974590778351,1.5063883066177368,-0.04716559499502182
1740247369156451300,0.409451416015625,-0.4438987672328949,1.8021783828735352,-0.14448344707489014
1740247369166433000,0.41943310546875,-0.3813094198703766,2.2308239936828613,-0.23470494151115417
1740247369176414200,0.429414306640625,-0.3899703621864319,2.591742992401123,-0.3093964755535126
1740247369186396200,0.439396240234375,-0.5087952613830566,2.793020009994507,-0.3477800786495209
1740247369196377300,0.44937744140625,-0.6695559024810791,2.757237672805786,-0.377607136964798
1740247369206359000,0.459359130859375,-0.7538811564445496,2.6138627529144287,-0.41390734910964966
1740247369216340200,0.46934033203125,-0.7120727300643921,2.4684536457061768,-0.49631279706954956
1740247369226321200,0.479321044921875,-0.5603265762329102,2.386913776397705,-0.6432857513427734
1740247369236303400,0.489303466796875,-0.3964008092880249,2.3043265342712402,-0.8331201076507568
1740247369246284300,0.4992841796875,-0.37034738063812256,2.1763525009155273,-1.0327123403549194
1740247369256266200,0.509266357421875,-0.4818703234195709,2.0241191387176514,-1.2340484857559204
1740247369266247200,0.5192470703125,-0.6558452844619751,2.031480312347412,-1.4459370374679565
1740247369276229000,0.52922900390625,-0.8902943134307861,2.3993875980377197,-1.6038928031921387
1740247369286210300,0.539210205078125,-0.9932680726051331,3.4061660766601562,-1.6293236017227173
1740247369296191200,0.549191162109375,-0.8542274832725525,4.564426422119141,-1.4996129274368286
1740247369306173400,0.55917333984375,-0.6078126430511475,5.228790283203125,-1.2223131656646729
1740247369316154400,0.569154296875,-0.4831061363220215,5.304018974304199,-0.829085648059845
1740247369326136000,0.579135986328125,-0.5011250376701355,5.052705764770508,-0.3201015293598175
1740247369336117200,0.5891171875,-0.6364412903785706,4.436115264892578,0.30219122767448425
1740247369346099200,0.59909912109375,-1.1485272645950317,4.088213920593262,0.9216791987419128
1740247369356080400,0.609080322265625,-2.024643659591675,4.415618419647217,1.33607816696167
1740247369366061300,0.619061279296875,-2.769683361053467,4.540163516998291,1.57606041431427
1740247369376043300,0.629043212890625,-3.164264440536499,4.434935092926025,1.6341161727905273
1740247369386024200,0.639024169921875,-3.313352108001709,4.3400983810424805,1.5117604732513428
1740247369396006100,0.649006103515625,-3.347048282623291,4.251583099365234,1.2702640295028687
1740247369405987300,0.6589873046875,-3.3880953788757324,4.080423831939697,0.9534853100776672
1740247369415969000,0.668968994140625,-3.507730007171631,3.617536783218384,0.5709776282310486
1740247369425950200,0.6789501953125,-3.7375338077545166,2.8968000411987305,-0.0017167560290545225
1740247369435931100,0.68893115234375,-3.979227066040039,2.2709014415740967,-0.6321222186088562
1740247369445913300,0.698913330078125,-4.0297136306762695,1.815967321395874,-1.1261357069015503
1740247369455894300,0.708894287109375,-4.013210773468018,1.3303806781768799,-1.5537073612213135
1740247369465876200,0.718876220703125,-3.979865074157715,0.9882417917251587,-1.8945422172546387
1740247369475857200,0.728857177734375,-4.094754695892334,0.9347559809684753,-2.0849761962890625
1740247369485839000,0.738839111328125,-4.267016410827637,1.0159038305282593,-2.1685640811920166
1740247369495820300,0.7488203125,-4.383306980133057,1.1011089086532593,-2.144838809967041
1740247369505802200,0.75880224609375,-4.349056720733643,0.9937083721160889,-2.055399179458618
1740247369515783400,0.768783447265625,-4.20449686050415,0.8212409019470215,-1.9608834981918335
1740247369525764400,0.778764404296875,-3.990542411804199,0.6773532032966614,-1.8975396156311035
1740247369535746000,0.78874609375,-3.70810604095459,0.5944668650627136,-1.8450382947921753
1740247369545727200,0.798727294921875,-3.398036003112793,0.5092449188232422,-1.8170325756072998
1740247369555709200,0.808709228515625,-3.0931637287139893,0.44362717866897583,-1.817658543586731
1740247369565690400,0.8186904296875,-2.807579517364502,0.39897823333740234,-1.8496402502059937
1740247369575672000,0.828672119140625,-2.5590944290161133,0.2842998802661896,-1.897932767868042
1740247369585653200,0.8386533203125,-2.3256852626800537,0.16041521728038788,-1.9238256216049194
1740247369595634200,0.84863427734375,-2.1098763942718506,-0.022947411984205246,-1.9283548593521118
1740247369605616000,0.8586162109375,-1.8827667236328125,-0.15469346940517426,-1.9165692329406738
1740247369615597300,0.868597412109375,-1.610403060913086,-0.07309502363204956,-1.8901675939559937
1740247369625579000,0.8785791015625,-1.2688276767730713,0.23785167932510376,-1.8272125720977783
1740247369635560200,0.888560302734375,-0.8479194641113281,0.7751189470291138,-1.707651138305664
1740247369645542100,0.898542236328125,-0.35204100608825684,1.2577465772628784,-1.5157980918884277
1740247369655523300,0.9085234375,0.17195472121238708,1.3994824886322021,-1.2051011323928833
1740247369665505300,0.91850537109375,0.613427996635437,1.2585456371307373,-0.7940294146537781
1740247369675486200,0.928486328125,0.8984063267707825,0.8268576860427856,-0.298289030790329
1740247369685467100,0.938467041015625,1.0936237573623657,0.23195967078208923,0.2369898557662964
1740247369695449000,0.948448974609375,1.2286689281463623,-0.19471584260463715,0.753244936466217
1740247369705430300,0.95843017578125,1.2655348777770996,-0.2129441201686859,1.2157502174377441
1740247369715411700,0.96841162109375,1.0935180187225342,-0.11334019154310226,1.4853100776672363
1740247369725392600,0.978392578125,0.790919840335846,0.061227623373270035,1.6233047246932983
1740247369735374600,0.98837451171875,0.33090755343437195,0.3366597890853882,1.6531273126602173
1740247369745355500,0.99835546875,-0.29318559169769287,0.6278039813041687,1.606465220451355
1740247369755336700,1.008336669921875,-0.978708803653717,0.8404887318611145,1.5227575302124023
1740247369765318700,1.018318603515625,-1.4834544658660889,0.7347620129585266,1.422383427619934
1740247369775299800,1.0282998046875,-1.7036868333816528,0.41913264989852905,1.3065927028656006
1740247369785281500,1.038281494140625,-1.675986409187317,0.1673307865858078,1.1856460571289062
1740247369795262500,1.048262451171875,-1.4706990718841553,-0.07916735112667084,1.0671916007995605
1740247369805244700,1.05824462890625,-1.1660016775131226,-0.2606298327445984,0.957850456237793
1740247369815225600,1.0682255859375,-0.779487669467926,-0.4093872904777527,0.8671674132347107
1740247369825206800,1.078206787109375,-0.3731559216976166,-0.6003088355064392,0.8112788200378418
1740247369835188700,1.088188720703125,0.06379270553588867,-0.9245705008506775,0.8365336656570435
1740247369845169700,1.098169677734375,0.5479766726493835,-1.250661015510559,0.9572877883911133
1740247369855151600,1.108151611328125,1.1178287267684937,-1.5021971464157104,1.147843837738037
1740247369865132500,1.118132568359375,1.732657551765442,-1.6552191972732544,1.3688766956329346
1740247369875114800,1.12811474609375,2.2062363624572754,-1.595777988433838,1.6037049293518066
1740247369885095700,1.138095703125,2.4132940769195557,-1.2376673221588135,1.7933076620101929
1740247369895077600,1.14807763671875,2.319549322128296,-0.6404607892036438,1.8979291915893555
1740247369905058600,1.15805859375,2.0551860332489014,-0.09313566237688065,1.874804973602295
1740247369915039700,1.168039794921875,2.0887451171875,-0.1366860270500183,1.718786358833313
1740247369925021700,1.178021728515625,2.5011990070343018,-0.5068188309669495,1.4347519874572754
1740247369935002600,1.188002685546875,3.1003479957580566,-0.6489090919494629,0.9892826676368713
1740247369944984600,1.197984619140625,3.671208381652832,-0.5067290663719177,0.3709530830383301
1740247369954965500,1.207965576171875,4.085108757019043,-0.34235936403274536,-0.34301912784576416
1740247369964947700,1.21794775390625,4.272850513458252,-0.25750255584716797,-1.0463123321533203
1740247369974928600,1.2279287109375,4.199032306671143,-0.12915244698524475,-1.634164571762085
1740247369984909800,1.237909912109375,3.8818464279174805,-0.06981988996267319,-1.965287446975708
1740247369994891500,1.2478916015625,3.5137596130371094,-0.21370993554592133,-1.9837820529937744
1740247370004872400,1.25787255859375,3.2232041358947754,-0.5394534468650818,-1.71481454372406
1740247370014854700,1.267854736328125,3.0927295684814453,-0.9595959186553955,-1.2371532917022705
1740247370024835600,1.277835693359375,3.0960917472839355,-1.3097501993179321,-0.6061192750930786
1740247370034817800,1.28781787109375,3.176753044128418,-1.4962048530578613,0.17107516527175903
1740247370044798700,1.297798828125,3.293055295944214,-1.5974557399749756,1.0370091199874878
1740247370054779600,1.307779541015625,3.395695924758911,-1.591196060180664,1.9509958028793335
1740247370064761600,1.31776171875,3.4921634197235107,-1.4751062393188477,2.8912606239318848
1740247370074742500,1.327742431640625,3.6413652896881104,-1.3829717636108398,3.86118221282959
1740247370084724700,1.337724853515625,3.7862374782562256,-1.3344253301620483,4.807695388793945
1740247370094705700,1.34770556640625,3.840872287750244,-1.2924808263778687,5.688530445098877
1740247370104687600,1.3576875,3.8054330348968506,-1.160191535949707,6.394628047943115
1740247370114668500,1.36766845703125,3.770569324493408,-0.8998638987541199,6.818925857543945
1740247370124650800,1.377650634765625,3.8240408897399902,-0.4890928566455841,6.891308784484863
1740247370134631700,1.387631591796875,3.947234869003296,-0.03656107187271118,6.6448893547058105
1740247370144612600,1.397612548828125,4.048487663269043,0.34082961082458496,6.28394079208374
1740247370154594600,1.407594482421875,4.026206970214844,0.5910273790359497,5.976547718048096
1740247370164575500,1.417575439453125,3.8934600353240967,0.7910363674163818,5.745905876159668
1740247370174557700,1.4275576171875,3.7075984477996826,1.0079715251922607,5.548874855041504
1740247370184538600,1.43753857421875,3.5599727630615234,1.22464120388031,5.342649936676025
1740247370194520800,1.447520751953125,3.4997265338897705,1.416655421257019,5.086701393127441
1740247370204501500,1.45750146484375,3.4946367740631104,1.605840802192688,4.737981796264648
1740247370214482700,1.467482666015625,3.4979653358459473,1.7866599559783936,4.300852298736572
1740247370224464600,1.477464599609375,3.4865572452545166,1.9595566987991333,3.7819693088531494
1740247370234445600,1.487445556640625,3.4408535957336426,2.0377161502838135,3.2067642211914062
1740247370244427800,1.497427734375,3.3539795875549316,1.9868078231811523,2.631120443344116
1740247370254408700,1.50740869140625,3.2063655853271484,1.820496916770935,2.075507164001465
1740247370264390700,1.517390625,3.004030466079712,1.5649429559707642,1.5513310432434082
1740247370274371600,1.52737158203125,2.7757861614227295,1.2632548809051514,1.0448909997940063
1740247370284353800,1.537353759765625,2.5713069438934326,0.9138649702072144,0.5556063055992126
1740247370294334700,1.547334716796875,2.4052486419677734,0.5120442509651184,0.08461885154247284
1740247370304315600,1.557315673828125,2.2883799076080322,0.11318636685609818,-0.3151746392250061
1740247370314297600,1.567297607421875,2.289870262145996,-0.323588490486145,-0.6284036636352539
1740247370324278500,1.577278564453125,2.4304089546203613,-0.8314514756202698,-0.9293102622032166
1740247370334260700,1.5872607421875,2.622455358505249,-1.3449029922485352,-1.2860466241836548
1740247370344241700,1.59724169921875,2.6751372814178467,-1.7428333759307861,-1.7735761404037476
1740247370354223600,1.6072236328125,2.4016261100769043,-1.9456273317337036,-2.357459306716919
1740247370364204500,1.61720458984375,1.676751971244812,-1.9420632123947144,-2.909785032272339
1740247370374186800,1.627186767578125,0.5595983266830444,-1.7184104919433594,-3.3517446517944336
1740247370384167700,1.637167724609375,-0.683354914188385,-1.4563429355621338,-3.716488838195801
1740247370394148600,1.647148681640625,-1.8638540506362915,-1.5777949094772339,-3.870025396347046
1740247370404130800,1.657130859375,-2.8330109119415283,-1.5269830226898193,-3.9702272415161133
1740247370414111500,1.667111572265625,-3.5407555103302,-1.7928621768951416,-4.008680820465088
1740247370424093700,1.67709375,-4.056041240692139,-2.05617094039917,-4.024410724639893
1740247370434074600,1.68707470703125,-4.451953887939453,-2.079859733581543,-4.013868808746338
1740247370444056800,1.697056884765625,-4.706013202667236,-1.8536823987960815,-3.95402193069458
1740247370454037800,1.707037841796875,-4.8312458992004395,-1.3604542016983032,-3.8347930908203125
1740247370464018700,1.717018798828125,-4.839784145355225,-0.7204621434211731,-3.6404378414154053
1740247370474000600,1.727000732421875,-4.6983418464660645,-0.1194685623049736,-3.379049062728882
1740247370483981600,1.736981689453125,-4.389124393463135,0.35893529653549194,-3.0602355003356934
1740247370493963800,1.7469638671875,-3.9933736324310303,0.7327953577041626,-2.765578031539917
1740247370503944700,1.75694482421875,-3.7092859745025635,1.0875324010849,-2.586547374725342
1740247370513926700,1.7669267578125,-3.637389659881592,1.3564939498901367,-2.537858247756958
1740247370523907600,1.776907470703125,-3.7042152881622314,1.4455926418304443,-2.5780298709869385
1740247370533889800,1.786889892578125,-3.8455748558044434,1.4400973320007324,-2.693204879760742
1740247370543870700,1.79687060546875,-4.013028144836426,1.412477731704712,-2.8633759021759033
1740247370553851600,1.8068515625,-4.167410373687744,1.4018259048461914,-3.039823532104492
1740247370563833600,1.81683349609375,-4.2903032302856445,1.4419118165969849,-3.1746509075164795
1740247370573814500,1.826814453125,-4.346959114074707,1.509389877319336,-3.2308738231658936
1740247370583796700,1.836796630859375,-4.350934028625488,1.5960289239883423,-3.1910908222198486
1740247370593777700,1.846777587890625,-4.347415924072266,1.711157202720642,-3.0576586723327637
1740247370603759900,1.856759765625,-4.360627174377441,1.824432373046875,-2.8441929817199707
1740247370613740800,1.86674072265625,-4.421103477478027,1.9252504110336304,-2.578948974609375
1740247370623722500,1.876722412109375,-4.538702964782715,2.0416479110717773,-2.270195484161377
1740247370633703700,1.88670361328125,-4.743456840515137,2.194817304611206,-1.9066078662872314
1740247370643684600,1.8966845703125,-5.029127597808838,2.311099052429199,-1.4816304445266724
1740247370653666800,1.906666748046875,-5.33205509185791,2.320669412612915,-0.9993607997894287
1740247370663647700,1.916647705078125,-5.5853753089904785,2.1971518993377686,-0.4958110749721527
1740247370673629700,1.926629638671875,-5.723532676696777,1.9837690591812134,0.0016297848196700215
1740247370683610600,1.936610595703125,-5.743631362915039,1.726015329360962,0.43342888355255127
1740247370693592800,1.9465927734375,-5.654076099395752,1.4473599195480347,0.7615883946418762
1740247370703573800,1.95657373046875,-5.502567291259766,1.2338348627090454,0.9518866539001465
1740247370713555500,1.966555419921875,-5.32489013671875,1.084412932395935,0.993915319442749
1740247370723537200,1.976537109375,-5.123602390289307,0.8829908967018127,0.9203212857246399
1740247370733518300,1.986518310546875,-4.917610168457031,0.653679609298706,0.7436181306838989
1740247370743500300,1.996500244140625,-4.742965221405029,0.4462305009365082,0.4845694899559021
1740247370753481500,2.0064814453125,-4.618731498718262,0.2867089807987213,0.22043433785438538
1740247370763463200,2.016463134765625,-4.505136489868164,0.17425647377967834,0.06829699128866196
1740247370773444000,2.026444091796875,-4.332968235015869,0.07450492680072784,0.05276795104146004
1740247370783426300,2.03642626953125,-4.065115451812744,0.0030451249331235886,0.14336444437503815
1740247370793407200,2.0464072265625,-3.6857309341430664,-0.031433142721652985,0.30762752890586853
1740247370803388400,2.056388427734375,-3.21394419670105,-0.04633645713329315,0.507584273815155
1740247370813370000,2.0663701171875,-2.689235210418701,-0.07958493381738663,0.7109461426734924
1740247370823351300,2.076351318359375,-2.133577585220337,-0.11436554789543152,0.8879685997962952
1740247370833333200,2.086333251953125,-1.5305705070495605,-0.14591756463050842,1.027971863746643
1740247370843314400,2.096314453125,-0.8762211799621582,-0.1802331954240799,1.1137815713882446
1740247370853296400,2.10629638671875,-0.20842666923999786,-0.1904817521572113,1.1407842636108398
1740247370863277300,2.11627734375,0.4025152623653412,-0.18291598558425903,1.0881503820419312
1740247370873259300,2.12625927734375,0.9160296320915222,-0.14826630055904388,0.9664196968078613
1740247370883240200,2.136240234375,1.354999303817749,-0.09616074711084366,0.7720973491668701
1740247370893221400,2.146221435546875,1.7653683423995972,-0.04831177368760109,0.5298255085945129
1740247370903203300,2.156203369140625,2.155527114868164,-0.029340747743844986,0.2601700723171234
1740247370913184500,2.1661845703125,2.444791555404663,-0.21632996201515198,-0.032735008746385574
1740247370923166200,2.176166259765625,2.6947813034057617,-0.3972422182559967,-0.3495025634765625
1740247370933147100,2.186147216796875,2.938234806060791,-0.527944028377533,-0.6774114370346069
1740247370943129300,2.19612939453125,3.0170981884002686,-0.9643141031265259,-1.0294768810272217
1740247370953110300,2.2061103515625,3.1015162467956543,-1.4485529661178589,-1.4619652032852173
1740247370963091500,2.216091552734375,3.340184450149536,-1.7193080186843872,-1.9571419954299927
1740247370973073200,2.2260732421875,3.6370468139648438,-1.743653416633606,-2.418466806411743
1740247370983054300,2.236054443359375,3.8712472915649414,-1.6548590660095215,-2.733835458755493
1740247370993036300,2.246036376953125,3.9379875659942627,-1.61312997341156,-2.8620851039886475
1740247371003017200,2.256017333984375,3.9262094497680664,-1.4823600053787231,-2.8034307956695557
1740247371012999400,2.26599951171875,3.9819486141204834,-0.8269010782241821,-2.4867920875549316
1740247371022980000,2.27597998046875,3.9481050968170166,0.012696390971541405,-1.889573097229004
1740247371032962300,2.28596240234375,3.811063289642334,0.25932782888412476,-1.144352674484253
1740247371042943200,2.295943115234375,3.68790864944458,0.22023718059062958,-0.27655228972435
1740247371052924400,2.30592431640625,3.6953985691070557,0.08397988975048065,0.6195076107978821
1740247371062906400,2.31590625,3.830467462539673,-0.05749068409204483,1.4193923473358154
1740247371072887300,2.32588720703125,4.004182815551758,-0.11042138934135437,2.048288345336914
1740247371082869200,2.335869140625,4.147517204284668,-0.05983571335673332,2.4624698162078857
1740247371092850200,2.34585009765625,4.217200756072998,0.028926149010658264,2.7127816677093506
1740247371102832400,2.355832275390625,4.225037574768066,0.08984009921550751,2.84775710105896
1740247371112813300,2.365813232421875,4.213167190551758,0.12851063907146454,2.9127461910247803
1740247371122795300,2.375795166015625,4.2287726402282715,0.14725983142852783,2.9516937732696533
1740247371132776200,2.385776123046875,4.2909932136535645,0.15618231892585754,2.984584331512451
1740247371142757000,2.395757080078125,4.415225982666016,0.13373400270938873,2.999826431274414
1740247371152739300,2.4057392578125,4.554932117462158,0.09866757690906525,2.9799134731292725
1740247371162720300,2.41572021484375,4.683917045593262,0.11887536942958832,2.918821334838867
1740247371172702200,2.4257021484375,4.779059410095215,0.19201171398162842,2.799006700515747
1740247371182683100,2.43568310546875,4.852643013000488,0.32585716247558594,2.6058754920959473
1740247371192665300,2.445665283203125,4.916070461273193,0.49747422337532043,2.381868362426758
1740247371202646300,2.455646240234375,4.957664489746094,0.639152467250824,2.183521270751953
1740247371212627500,2.46562744140625,4.925029754638672,0.6989926695823669,2.1144189834594727
1740247371222609400,2.475609375,4.829474449157715,0.6878761053085327,2.183595895767212
1740247371232590000,2.485590087890625,4.703385353088379,0.6606375575065613,2.311450719833374
1740247371242572300,2.495572265625,4.535428047180176,0.658414900302887,2.4368374347686768
1740247371252553200,2.50555322265625,4.3291401863098145,0.6830623149871826,2.542814254760742
1740247371262535400,2.515535400390625,4.129332542419434,0.7356030344963074,2.636131525039673
1740247371272516400,2.525516357421875,3.9765326976776123,0.7634996175765991,2.7257564067840576
1740247371282498300,2.535498291015625,3.847700834274292,0.7762860059738159,2.8246541023254395
1740247371292479200,2.545479248046875,3.7099673748016357,0.7746359705924988,2.9300589561462402
1740247371302460200,2.555460205078125,3.530993700027466,0.759825587272644,3.023141384124756
1740247371312442400,2.5654423828125,3.2931127548217773,0.7208746075630188,3.098874807357788
1740247371322423300,2.57542333984375,3.012808322906494,0.6480307579040527,3.139991044998169
1740247371332405200,2.5854052734375,2.7222018241882324,0.5312477946281433,3.132760763168335
1740247371342386200,2.59538623046875,2.4486582279205322,0.37627339363098145,3.0604171752929688
1740247371352368400,2.605368408203125,2.1866769790649414,0.20019420981407166,2.8804759979248047
1740247371362349300,2.615349365234375,1.921223759651184,0.026112165302038193,2.526813268661499
1740247371372331300,2.625331298828125,1.6142051219940186,-0.1619739532470703,1.9187461137771606
1740247371382312200,2.635312255859375,1.2723479270935059,-0.42272141575813293,1.0148627758026123
1740247371392293000,2.645293212890625,0.9139168858528137,-0.8574374318122864,-0.18454749882221222
1740247371402275300,2.655275390625,0.5440448522567749,-1.5626102685928345,-1.5642417669296265
1740247371412256300,2.66525634765625,0.10027002543210983,-2.470396041870117,-2.946178913116455
1740247371422238500,2.675238525390625,-0.4492647349834442,-3.3450982570648193,-4.128848075866699
1740247371432219400,2.685219482421875,-1.0669784545898438,-3.8901846408843994,-5.009516716003418
1740247371442201300,2.695201416015625,-1.65526282787323,-3.964878797531128,-5.571971893310547
1740247371452182300,2.705182373046875,-2.1860134601593018,-3.5802128314971924,-5.822080135345459
1740247371462164500,2.71516455078125,-2.7459816932678223,-2.8571701049804688,-5.8087687492370605
1740247371472145400,2.7251455078125,-3.0504953861236572,-2.112053394317627,-5.527256011962891
1740247371482126300,2.735126220703125,-3.094951868057251,-1.4177414178848267,-5.026785850524902
1740247371492108300,2.7451083984375,-2.9816882610321045,-0.8134062886238098,-4.352991580963135
1740247371502089200,2.755089111328125,-2.816041946411133,-0.3270776867866516,-3.600398063659668
1740247371512071400,2.765071533203125,-2.677481174468994,0.0724136009812355,-2.8361809253692627
1740247371522052400,2.77505224609375,-2.613384962081909,0.390738844871521,-2.116835832595825
1740247371532034300,2.785034423828125,-2.632697582244873,0.6287637948989868,-1.4900681972503662
1740247371542015200,2.79501513671875,-2.7177255153656006,0.7796348333358765,-0.9691064953804016
1740247371551997200,2.8049970703125,-2.8245809078216553,0.8644072413444519,-0.5681795477867126
1740247371561978400,2.814978271484375,-2.9195799827575684,0.9086242914199829,-0.27283215522766113
1740247371571959300,2.824959228515625,-2.982166051864624,0.9000009298324585,-0.09328851848840714
1740247371581941200,2.834941162109375,-3.023430824279785,0.8488490581512451,-0.024320369586348534
1740247371591922200,2.844922119140625,-3.066347360610962,0.7734209299087524,-0.07113640010356903
1740247371601904400,2.854904296875,-3.1276023387908936,0.745590090751648,-0.268223375082016
1740247371611885300,2.86488525390625,-3.220902681350708,0.7707885503768921,-0.5829049348831177
1740247371621867300,2.8748671875,-3.339205503463745,0.8065534830093384,-0.9258476495742798
1740247371631848400,2.884848388671875,-3.4754719734191895,0.7621484994888306,-1.2250430583953857
1740247371641830100,2.894830078125,-3.638576030731201,0.6773062944412231,-1.4669941663742065
1740247371651811300,2.904811279296875,-3.806760787963867,0.6098787784576416,-1.6776150465011597
1740247371661793300,2.914793212890625,-3.9508635997772217,0.6174666285514832,-1.8784178495407104
1740247371671774500,2.9247744140625,-4.070009708404541,0.700171709060669,-2.069842576980591
1740247371681755400,2.93475537109375,-4.174485683441162,0.8493459820747375,-2.2189953327178955
1740247371691737000,2.944737060546875,-4.251222610473633,0.9958198070526123,-2.2947847843170166
1740247371701718300,2.95471826171875,-4.290743827819824,1.0670868158340454,-2.3021459579467773
1740247371711700200,2.9647001953125,-4.294675350189209,1.0922222137451172,-2.2866334915161133
1740247371721681200,2.97468115234375,-4.284246444702148,1.105838418006897,-2.317918062210083
1740247371731663000,2.9846630859375,-4.3117451667785645,1.178330659866333,-2.4713401794433594
1740247371741644000,2.99464404296875,-4.386720180511475,1.2664490938186646,-2.7094180583953857
1740247371751626000,3.0046259765625,-4.469261646270752,1.2208198308944702,-2.9427692890167236
1740247371761607200,3.014607177734375,-4.521296501159668,1.0144762992858887,-3.115770101547241
1740247371771588000,3.024588134765625,-4.573237419128418,0.7530241012573242,-3.263479471206665
1740247371781570300,3.0345703125,-4.673056602478027,0.6092807650566101,-3.384854555130005
1740247371791551200,3.04455126953125,-4.803442478179932,0.6364060044288635,-3.4030628204345703
1740247371801533000,3.054532958984375,-4.854568004608154,0.7880741357803345,-3.2459113597869873
1740247371811514000,3.06451416015625,-4.729772090911865,0.9608295559883118,-2.8951385021209717
1740247371821496000,3.07449609375,-4.401520729064941,1.0693447589874268,-2.372096300125122
1740247371831477200,3.084477294921875,-3.8852906227111816,1.0352513790130615,-1.6783831119537354
1740247371841459000,3.094458984375,-3.2814652919769287,0.9027023911476135,-0.863902747631073
1740247371851440000,3.104440185546875,-2.707061290740967,0.8363048434257507,0.03948032110929489
1740247371861421000,3.114421142578125,-2.1301066875457764,0.853986918926239,0.9809111952781677
1740247371871403000,3.124403076171875,-1.4938545227050781,0.7912587523460388,1.9042088985443115
1740247371881384200,3.13438427734375,-0.8235493302345276,0.618571400642395,2.718013286590576
1740247371891366000,3.144365966796875,-0.17294254899024963,0.3831387758255005,3.3561110496520996
1740247371901347000,3.15434716796875,0.37381666898727417,0.19869035482406616,3.780470132827759
1740247371911329000,3.1643291015625,0.8002745509147644,0.09495466947555542,3.971940040588379
1740247371921310200,3.174310302734375,1.125646710395813,0.0452805832028389,3.928565740585327
1740247371931291100,3.184291015625,1.3477673530578613,0.06817171722650528,3.669766664505005
1740247371941273000,3.194273193359375,1.4653470516204834,0.20930913090705872,3.2369930744171143
1740247371951254000,3.20425390625,1.4866632223129272,0.5225422978401184,2.6221096515655518
1740247371961236000,3.214236083984375,1.467788815498352,0.9044702649116516,1.9580968618392944
1740247371971217200,3.224217041015625,1.4903019666671753,1.2578673362731934,1.4176177978515625
1740247371981199000,3.23419921875,1.5810332298278809,1.4846664667129517,1.04457426071167
1740247371991180300,3.24418017578125,1.7537224292755127,1.6058155298233032,0.8069210052490234
1740247372001162000,3.254161865234375,1.9662705659866333,1.685728669166565,0.6187340617179871
1740247372011143000,3.264142822265625,2.1796813011169434,1.7924177646636963,0.4233270585536957
1740247372021125000,3.274125,2.3347270488739014,2.043001651763916,0.2006620317697525
1740247372031106000,3.28410595703125,2.365191698074341,2.379876136779785,-0.0503271110355854
1740247372041087200,3.294087158203125,2.270021915435791,2.785728693008423,-0.30026477575302124
1740247372051069000,3.30406884765625,2.1228079795837402,3.1904585361480713,-0.4774620831012726
1740247372061050000,3.314050048828125,2.022752046585083,3.360196113586426,-0.542995810508728
1740247372071032000,3.324031982421875,2.0796501636505127,3.17752742767334,-0.49973875284194946
1740247372081013200,3.33401318359375,2.3898093700408936,2.7127721309661865,-0.3641766607761383
1740247372090995200,3.3439951171875,2.942425489425659,2.1528000831604004,-0.13071252405643463
1740247372100975900,3.353975830078125,3.618440866470337,1.6469634771347046,0.1633095145225525
1740247372110958000,3.3639580078125,4.242951393127441,1.1991640329360962,0.4456259608268738
1740247372120939000,3.37393896484375,4.683248996734619,0.8009741902351379,0.6647119522094727
1740247372130920200,3.383920166015625,4.863622188568115,0.5150588154792786,0.801127552986145
1740247372140902100,3.393902099609375,4.83203649520874,0.3655444383621216,0.8700667023658752
1740247372150883000,3.403883056640625,4.681955337524414,0.33437585830688477,0.893366813659668
1740247372160865000,3.413864990234375,4.507725715637207,0.36225247383117676,0.8937537670135498
1740247372170846000,3.423845947265625,4.38053035736084,0.3988470137119293,0.8962522149085999
1740247372180828200,3.433828125,4.300956726074219,0.43491339683532715,0.913429856300354
1740247372190809000,3.44380908203125,4.274261474609375,0.47352468967437744,0.944840669631958
1740247372200791000,3.453791015625,4.279094219207764,0.5194380879402161,0.991096556186676
1740247372210772000,3.46377197265625,4.292433738708496,0.5892462730407715,1.0405733585357666
1740247372220753200,3.473753173828125,4.29695463180542,0.6514670252799988,1.0542118549346924
1740247372230735000,3.483735107421875,4.2785210609436035,0.7523993253707886,1.0242527723312378
1740247372240716000,3.493716064453125,4.2447590827941895,0.9331427216529846,0.9452013373374939
1740247372250698000,3.503697998046875,4.214991569519043,1.149703860282898,0.856934130191803
1740247372260679000,3.513678955078125,4.178022861480713,1.35569167137146,0.7770062685012817
1740247372270661000,3.5236611328125,4.128726959228516,1.4802234172821045,0.721019446849823
1740247372280642000,3.53364208984375,4.064764022827148,1.512392282485962,0.6623542904853821
1740247372290624300,3.543624267578125,3.971261739730835,1.4681720733642578,0.5911340117454529
1740247372300605200,3.553605224609375,3.8154726028442383,1.409119725227356,0.505122184753418
1740247372310587100,3.563587158203125,3.613615036010742,1.3394007682800293,0.41735315322875977
1740247372320568000,3.573568115234375,3.3888490200042725,1.243062973022461,0.3323919177055359
1740247372330549000,3.583549072265625,3.1903393268585205,1.1117169857025146,0.25407874584198
1740247372340531200,3.59353125,3.0341007709503174,0.9186399579048157,0.1649123728275299
1740247372350512000,3.60351220703125,2.912161111831665,0.6855379343032837,0.04572533071041107
1740247372360494000,3.613494140625,2.787424087524414,0.4887961447238922,-0.12958310544490814
1740247372370475000,3.62347509765625,2.5850636959075928,0.34628432989120483,-0.37750428915023804
1740247372380457200,3.633457275390625,2.2697982788085938,0.23565925657749176,-0.6797797083854675
1740247372390438100,3.643438232421875,1.8161420822143555,0.128218874335289,-0.9635250568389893
1740247372400420000,3.653420166015625,1.2313292026519775,-0.006708580069243908,-1.1787550449371338
1740247372410401000,3.663401123046875,0.5832090973854065,-0.2404301017522812,-1.310740351676941
1740247372420382000,3.6733818359375,-0.06168200820684433,-0.5433753728866577,-1.36176598072052
1740247372430364200,3.6833642578125,-0.6947652697563171,-0.88346928358078,-1.3565243482589722
1740247372440345000,3.693344970703125,-1.259037733078003,-1.2357670068740845,-1.3019508123397827
1740247372450327000,3.7033271484375,-1.707746148109436,-1.5514311790466309,-1.2042211294174194
1740247372460308000,3.713307861328125,-2.058586835861206,-1.867234468460083,-1.0756514072418213
1740247372470290200,3.723290283203125,-2.3811275959014893,-2.172820806503296,-0.9510849118232727
1740247372480271000,3.73327099609375,-2.6984622478485107,-2.4962518215179443,-0.8430002927780151
1740247372490253000,3.743253173828125,-2.980938196182251,-2.868547201156616,-0.7525821328163147
1740247372500234200,3.753234130859375,-3.1994152069091797,-3.312167167663574,-0.696216344833374
1740247372510215200,3.763215087890625,-3.304535150527954,-3.8977043628692627,-0.6500900983810425
1740247372520197000,3.773197021484375,-3.346410036087036,-4.525161266326904,-0.5952643752098083
1740247372530178000,3.783177978515625,-3.3452236652374268,-5.03638219833374,-0.5712006092071533
1740247372540160300,3.79316015625,-3.293565511703491,-5.165670871734619,-0.635772168636322
1740247372550141200,3.80314111328125,-3.2172110080718994,-4.764214038848877,-0.8004987835884094
1740247372560123000,3.813122802734375,-3.0941314697265625,-3.937317371368408,-1.0977309942245483
1740247372570104000,3.82310400390625,-2.9237546920776367,-2.8344991207122803,-1.5096443891525269
1740247372580086000,3.8330859375,-2.776918649673462,-1.7553656101226807,-1.9591103792190552
1740247372590067200,3.843067138671875,-2.727858781814575,-0.9762903451919556,-2.34031081199646
1740247372600049000,3.853048828125,-2.817868709564209,-0.5182854533195496,-2.6036622524261475
1740247372610030000,3.863030029296875,-2.998872756958008,-0.2966279983520508,-2.7322587966918945
1740247372620011000,3.873010986328125,-3.1912975311279297,-0.24470193684101105,-2.7875730991363525
1740247372629993200,3.8829931640625,-3.3813397884368896,-0.2433975785970688,-2.828139066696167
1740247372639974100,3.89297412109375,-3.579124689102173,-0.18011102080345154,-2.8961105346679688
1740247372649956000,3.9029560546875,-3.782924175262451,-0.024305712431669235,-2.9667069911956787
1740247372659937000,3.91293701171875,-3.9713802337646484,0.16361704468727112,-3.0237035751342773
1740247372669919000,3.9229189453125,-4.11301326751709,0.33079150319099426,-3.050048828125
1740247372679900200,3.932900146484375,-4.239441394805908,0.47637906670570374,-3.017881393432617
1740247372689882000,3.942882080078125,-4.3748674392700195,0.6477030515670776,-2.9221982955932617
1740247372699863300,3.95286328125,-4.520845890045166,0.8526474237442017,-2.7627029418945312
1740247372709844200,3.96284423828125,-4.681894302368164,1.0129696130752563,-2.5381317138671875
1740247372719827200,3.9728271484375,-4.84039306640625,1.1007133722305298,-2.261807680130005
1740247372729808100,3.98280810546875,-4.980679988861084,1.147890567779541,-1.95302152633667
1740247372739790000,3.9927900390625,-5.0880255699157715,1.2323428392410278,-1.6365655660629272
1740247372749771000,4.00277099609375,-5.131431579589844,1.356094241142273,-1.3136537075042725
1740247372759753000,4.0127529296875,-5.087357997894287,1.4633831977844238,-0.9938012957572937
1740247372769734100,4.022734130859375,-4.96488618850708,1.5139310359954834,-0.6948652863502502
1740247372779716000,4.032716064453125,-4.7895097732543945,1.5578042268753052,-0.4324887692928314
1740247372789697300,4.042697265625,-4.570125102996826,1.650213360786438,-0.19215011596679688
1740247372799679000,4.052678955078125,-4.305059909820557,1.7414050102233887,0.041502054780721664
1740247372809660200,4.06266015625,-3.948028326034546,1.772551417350769,0.27913036942481995
1740247372819641000,4.07264111328125,-3.4024922847747803,1.656463623046875,0.4925878047943115
1740247372829623000,4.082623046875,-2.6567113399505615,1.2673399448394775,0.6384471654891968
1740247372839604200,4.092604248046875,-1.796074628829956,0.6521347165107727,0.6386706233024597
1740247372849586000,4.1025859375,-0.9789734482765198,0.11462801694869995,0.4316181242465973
1740247372859567000,4.112567138671875,-0.35721373558044434,-0.1337229311466217,-0.017084293067455292
1740247372869549000,4.122549072265625,0.05205152928829193,-0.1913428008556366,-0.6029243469238281
1740247372879530200,4.1325302734375,0.35028934478759766,-0.28979453444480896,-1.146856665611267
1740247372889512000,4.142511962890625,0.5906243324279785,-0.49138274788856506,-1.5207475423812866
1740247372899492900,4.152492919921875,0.806291401386261,-0.619269073009491,-1.7116003036499023
1740247372909474000,4.16247412109375,1.0721899271011353,-0.6449593305587769,-1.7288233041763306
1740247372919456000,4.1724560546875,1.3686151504516602,-0.6425137519836426,-1.607471227645874
1740247372929437200,4.182437255859375,1.6561700105667114,-0.6379682421684265,-1.411320447921753
1740247372939419100,4.192419189453125,1.9046707153320312,-0.5840839743614197,-1.1517772674560547
1740247372949400000,4.202400146484375,2.1067562103271484,-0.43102946877479553,-0.837993323802948
1740247372959382000,4.212382080078125,2.254028797149658,-0.1999906301498413,-0.5058190822601318
1740247372969363000,4.222363037109375,2.361765146255493,0.061496708542108536,-0.15263383090496063
1740247372979345200,4.23234521484375,2.45516300201416,0.33615994453430176,0.21605178713798523
1740247372989326000,4.242326171875,2.557091474533081,0.5860334634780884,0.5867801308631897
1740247372999308000,4.25230810546875,2.6789424419403076,0.7915107607841492,0.9473292827606201
1740247373009289000,4.2622890625,2.816214084625244,0.9437915682792664,1.2759895324707031
1740247373019270100,4.272270263671875,2.9695708751678467,1.0490490198135376,1.5845576524734497
1740247373029252000,4.282252197265625,3.1331615447998047,1.122821569442749,1.8368051052093506
1740247373039233000,4.29223291015625,3.2908506393432617,1.1812782287597656,2.032604455947876
1740247373049215000,4.302215087890625,3.431337833404541,1.2775245904922485,2.1688365936279297
1740247373059196000,4.31219580078125,3.558647632598877,1.3940131664276123,2.257460832595825
1740247373069178000,4.32217822265625,3.6736667156219482,1.4801396131515503,2.301257371902466
1740247373079159000,4.332158935546875,3.7699501514434814,1.4904468059539795,2.301959753036499
1740247373089141200,4.342141357421875,3.8500828742980957,1.4350308179855347,2.2753567695617676
1740247373099122000,4.352121826171875,3.9419360160827637,1.3307757377624512,2.2427594661712646
1740247373109103000,4.36210302734375,4.0498552322387695,1.2050507068634033,2.194705009460449
1740247373119085000,4.3720849609375,4.166226863861084,1.0719813108444214,2.1583445072174072
1740247373129066000,4.38206591796875,4.277106761932373,0.9486047029495239,2.108485698699951
1740247373139048200,4.392048095703125,4.362268924713135,0.8302743434906006,2.032172441482544
1740247373149029000,4.402029052734375,4.403209686279297,0.7407782673835754,1.9256120920181274
1740247373159011000,4.412010986328125,4.398672580718994,0.7160984873771667,1.7833937406539917
1740247373168992000,4.421991943359375,4.3681416511535645,0.738840639591217,1.607600450515747
1740247373178974200,4.43197412109375,4.344384670257568,0.7710846066474915,1.4108527898788452
1740247373188955100,4.441955078125,4.330479145050049,0.8193602561950684,1.202987551689148
1740247373198937000,4.45193701171875,4.33767557144165,0.8790989518165588,1.002738118171692
1740247373208918000,4.46191796875,4.36084508895874,0.9222605228424072,0.8288273215293884
1740247373218900200,4.471900146484375,4.383382320404053,0.9501805901527405,0.6831662654876709
1740247373228881200,4.481881103515625,4.380345344543457,0.9780281782150269,0.5639386177062988
1740247373238862000,4.491862060546875,4.34962272644043,1.0173838138580322,0.46997374296188354
1740247373248844000,4.501843994140625,4.29509973526001,1.05842125415802,0.3855178654193878
1740247373258825000,4.511824951171875,4.225762367248535,1.0978431701660156,0.31268998980522156
1740247373268807200,4.52180712890625,4.139402866363525,1.1138604879379272,0.25644728541374207
1740247373278788000,4.5317880859375,4.025218486785889,1.0950350761413574,0.2225409746170044
1740247373288770300,4.541770263671875,3.893756628036499,1.0261509418487549,0.18733006715774536
1740247373298751200,4.551751220703125,3.742999792098999,0.9064570665359497,0.14163555204868317
1740247373308733000,4.56173291015625,3.559007406234741,0.7688814997673035,0.057668425142765045
1740247373318714000,4.571714111328125,3.3724398612976074,0.6483084559440613,-0.06120523065328598
1740247373328695000,4.581695068359375,3.2217607498168945,0.521164059638977,-0.20241598784923553
1740247373338677200,4.59167724609375,3.108698606491089,0.38255956768989563,-0.32603511214256287
1740247373348658200,4.601658203125,3.005490303039551,0.24398784339427948,-0.40192723274230957
1740247373358640000,4.61164013671875,2.873081922531128,0.11147294193506241,-0.41952645778656006
1740247373368621000,4.62162109375,2.6818222999572754,-0.007969269528985023,-0.39930036664009094
1740247373378603000,4.63160302734375,2.4139785766601562,-0.10111119598150253,-0.37178805470466614
1740247373388584200,4.641584228515625,2.073202133178711,-0.1707620471715927,-0.3634101450443268
1740247373398566000,4.65156591796875,1.6901319026947021,-0.22484685480594635,-0.39820754528045654
1740247373408547000,4.661547119140625,1.283424735069275,-0.26030194759368896,-0.4730038046836853
1740247373418529000,4.671529052734375,0.873466968536377,-0.2922508418560028,-0.5524041056632996
1740247373428510200,4.68151025390625,0.4855094850063324,-0.34170886874198914,-0.6122323274612427
1740247373438492200,4.6914921875,0.14060217142105103,-0.4130863845348358,-0.6112954616546631
1740247373448473000,4.70147314453125,-0.17040470242500305,-0.47011420130729675,-0.5301768183708191
1740247373458454000,4.7114541015625,-0.4700036644935608,-0.49021121859550476,-0.360931396484375
1740247373468436000,4.72143603515625,-0.7703343033790588,-0.506301999092102,-0.13045519590377808
1740247373478417200,4.731417236328125,-1.05631422996521,-0.5220375657081604,0.13020434975624084
1740247373488399000,4.741399169921875,-1.317528247833252,-0.5172010064125061,0.4016644358634949
1740247373498380300,4.75138037109375,-1.5719075202941895,-0.48766520619392395,0.6582067608833313
1740247373508362000,4.761362060546875,-1.8375823497772217,-0.403815358877182,0.9205829501152039
1740247373518343000,4.771343017578125,-2.105848789215088,-0.2632465064525604,1.1807804107666016
1740247373528325000,4.7813251953125,-2.3445777893066406,-0.08928678929805756,1.4294748306274414
1740247373538306000,4.79130615234375,-2.5520830154418945,0.08839984983205795,1.6402509212493896
1740247373548288000,4.8012880859375,-2.726078510284424,0.21926023066043854,1.7893601655960083
1740247373558269000,4.81126904296875,-2.8784868717193604,0.30687716603279114,1.8518458604812622
1740247373568250000,4.82125,-3.034269332885742,0.3608514070510864,1.8150999546051025
1740247373578232000,4.831232177734375,-3.2066802978515625,0.37244653701782227,1.6707515716552734
1740247373588213000,4.841212890625,-3.4214372634887695,0.330647349357605,1.4151685237884521
1740247373598195200,4.8511953125,-3.6709182262420654,0.23798508942127228,1.054434061050415
1740247373608175900,4.86117578125,-3.9612784385681152,0.11782554537057877,0.5962832570075989
1740247373618158000,4.871157958984375,-4.273202419281006,0.008961109444499016,0.06899844110012054
1740247373628139000,4.881138916015625,-4.597243785858154,-0.025956952944397926,-0.48559626936912537
1740247373638121200,4.891121337890625,-4.911807537078857,-0.023618698120117188,-0.9776719808578491
1740247373648102100,4.90110205078125,-5.232604503631592,-0.0422356054186821,-1.300615668296814
1740247373658084000,4.911083984375,-5.568221569061279,-0.13009408116340637,-1.4587994813919067
1740247373668065000,4.92106494140625,-5.88051176071167,-0.27535244822502136,-1.4647698402404785
1740247373678046000,4.9310458984375,-6.161202430725098,-0.45584285259246826,-1.337991714477539
1740247373688028200,4.941028076171875,-6.3905720710754395,-0.6546580791473389,-1.1090800762176514
1740247373698009000,4.951009033203125,-6.581083297729492,-0.8290008306503296,-0.8100848197937012
1740247373707991000,4.960990966796875,-6.717947483062744,-0.9845834374427795,-0.48058056831359863
1740247373717970700,4.970970703125,-6.808150291442871,-1.1087754964828491,-0.16074079275131226
1740247373727952600,4.98095263671875,-6.837429046630859,-1.215273141860962,0.10683376342058182
1740247373737933600,4.99093359375,-6.799339771270752,-1.2837883234024048,0.30447307229042053
1740247373747915800,5.000915771484375,-6.671135902404785,-1.3176417350769043,0.4183017611503601
1740247373757896700,5.010896728515625,-6.455482482910156,-1.3494795560836792,0.45608004927635193
1740247373767878700,5.020878662109375,-6.175485610961914,-1.3634625673294067,0.4295615553855896
1740247373777859600,5.030859619140625,-5.912211894989014,-1.3072235584259033,0.35989272594451904
1740247373787840500,5.040840576171875,-5.7006754875183105,-1.174988031387329,0.23173856735229492
1740247373797822700,5.05082275390625,-5.563411712646484,-0.9607878923416138,0.07329752296209335
1740247373807803600,5.0608037109375,-5.511343002319336,-0.703105092048645,-0.1017051488161087
1740247373817785900,5.070785888671875,-5.546235084533691,-0.4000837206840515,-0.24777022004127502
1740247373827766800,5.080766845703125,-5.602534294128418,-0.09467044472694397,-0.30530697107315063
1740247373837748700,5.090748779296875,-5.624996662139893,0.1928958147764206,-0.21169233322143555
1740247373847729700,5.100729736328125,-5.5372700691223145,0.47405296564102173,0.0666901245713234
1740247373857711900,5.1107119140625,-5.281736373901367,0.7976544499397278,0.5016823410987854
1740247373867692800,5.12069287109375,-4.791612148284912,1.1099175214767456,1.0065754652023315
1740247373877674800,5.1306748046875,-4.0229902267456055,1.272089958190918,1.5495407581329346
1740247373887655700,5.14065576171875,-3.001310110092163,1.1228841543197632,2.0355067253112793
1740247373897637600,5.1506376953125,-1.818656086921692,0.6315022110939026,2.3728413581848145
1740247373907618800,5.160618896484375,-0.6672731041908264,-0.013797679916024208,2.4876651763916016
1740247373917599700,5.170599853515625,0.2408035695552826,-0.5901477932929993,2.3566744327545166
1740247373927581700,5.180581787109375,0.808987557888031,-1.0751001834869385,1.9623774290084839
1740247373937562600,5.190562744140625,1.094956398010254,-1.389400839805603,1.4505116939544678
1740247373947544800,5.200544921875,1.1608003377914429,-1.6158597469329834,0.8682596683502197
1740247373957525800,5.21052587890625,1.1067533493041992,-1.694808840751648,0.2779071629047394
1740247373967507700,5.2205078125,1.028741478919983,-1.645884394645691,-0.20126385986804962
1740247373977488600,5.230488525390625,0.9880720973014832,-1.510408878326416,-0.5112496614456177
1740247373987470600,5.240470703125,0.9955998063087463,-1.2909634113311768,-0.6650035381317139
1740247373997451800,5.25045166015625,1.0281856060028076,-0.9676165580749512,-0.6650826334953308
1740247374007433700,5.260433837890625,1.0694893598556519,-0.47420719265937805,-0.5212007761001587
1740247374017415000,5.270414794921875,1.138523817062378,0.18945598602294922,-0.2448786199092865
1740247374027395800,5.280395751953125,1.2480909824371338,0.9116608500480652,0.17042814195156097
1740247374037377500,5.29037744140625,1.4141430854797363,1.5875415802001953,0.6953222751617432
1740247374047358700,5.300358642578125,1.6129181385040283,2.1684722900390625,1.2842081785202026
1740247374057340700,5.310340576171875,1.8410602807998657,2.5483603477478027,1.92137610912323
1740247374067321900,5.32032177734375,2.1405582427978516,2.6954784393310547,2.5679731369018555
1740247374077303600,5.330303466796875,2.4445106983184814,2.702897071838379,3.20687198638916
1740247374087284700,5.34028466796875,2.7066683769226074,2.684455394744873,3.7844204902648926
1740247374097266700,5.3502666015625,2.887089729309082,2.79967999458313,4.240560531616211
1740247374107247900,5.360247802734375,3.0250425338745117,3.0229811668395996,4.552342891693115
1740247374117229800,5.370229736328125,3.1342012882232666,3.2864232063293457,4.721635341644287
1740247374127210500,5.38021044921875,3.1598312854766846,3.5143861770629883,4.723662376403809
1740247374137192700,5.390192626953125,3.0883307456970215,3.6679675579071045,4.571586608886719
1740247374147173600,5.400173583984375,2.844726800918579,3.5611164569854736,4.154634952545166
1740247374157154800,5.41015478515625,2.479863405227661,3.629645586013794,3.6572844982147217
1740247374167136800,5.42013671875,2.1084606647491455,3.871880531311035,2.944941520690918
1740247374177118000,5.430117919921875,1.779754638671875,4.505780220031738,2.0138697624206543
1740247374187099600,5.440099609375,1.5650115013122559,5.38771390914917,0.9851609468460083
1740247374197080600,5.45008056640625,1.504929780960083,6.142876625061035,0.09905481338500977
1740247374207062800,5.460062744140625,1.4921330213546753,6.502246856689453,-0.528140127658844
1740247374217043700,5.470043701171875,1.5908976793289185,6.345744609832764,-0.9924899935722351
1740247374227025700,5.480025634765625,1.8175383806228638,5.872808933258057,-1.4441680908203125
1740247374237006600,5.490006591796875,2.0635933876037598,5.394012928009033,-2.0182342529296875
1740247374246988800,5.49998876953125,2.2282629013061523,5.05039644241333,-2.727496385574341
1740247374256969700,5.5099697265625,2.373486280441284,4.672054767608643,-3.4720070362091064
1740247374266951700,5.51995166015625,2.5511527061462402,4.089493274688721,-4.133162021636963
1740247374276932600,5.5299326171875,2.7214362621307373,3.306518793106079,-4.6923370361328125
1740247374286913500,5.53991357421875,2.863091468811035,2.465681552886963,-5.191970348358154
1740247374296895700,5.549895751953125,2.989014148712158,1.707481861114502,-5.66320276260376
1740247374306876700,5.559876708984375,3.117766857147217,1.0285580158233643,-6.110004425048828
1740247374316859000,5.56985888671875,3.279179811477661,0.4341639280319214,-6.516109466552734
1740247374326839800,5.57983984375,3.4528136253356934,-0.02812008000910282,-6.874861717224121
1740247374336821800,5.58982177734375,3.591059684753418,-0.43864235281944275,-7.1640801429748535
1740247374346802700,5.599802734375,3.6340525150299072,-0.8675248026847839,-7.356546878814697
1740247374356785000,5.609784912109375,3.522773027420044,-1.3497951030731201,-7.428408145904541
1740247374366765800,5.619765869140625,3.281090021133423,-1.7733463048934937,-7.360389709472656
1740247374376747500,5.62974755859375,2.9996237754821777,-2.1048576831817627,-7.140440940856934
1740247374386728700,5.639728759765625,2.7285563945770264,-2.283398151397705,-6.763278484344482
1740247374396710700,5.649710693359375,2.4778072834014893,-2.271495819091797,-6.24927282333374
1740247374406691800,5.65969189453125,2.2265703678131104,-2.0755486488342285,-5.6174702644348145
1740247374416672800,5.6696728515625,1.9441112279891968,-1.7009685039520264,-4.8859992027282715
1740247374426654700,5.67965478515625,1.6418442726135254,-1.2543870210647583,-4.089687347412109
1740247374436635600,5.6896357421875,1.3145638704299927,-0.7334620356559753,-3.2509970664978027
1740247374446617600,5.69961767578125,0.9973202347755432,-0.24571949243545532,-2.3929953575134277
1740247374456598800,5.709598876953125,0.6957833170890808,0.093435138463974,-1.5732834339141846
1740247374466580700,5.719580810546875,0.383303165435791,0.2613932490348816,-0.8634495735168457
1740247374476561700,5.729561767578125,0.061609815806150436,0.32726654410362244,-0.24828651547431946
1740247374486543600,5.739543701171875,-0.2733054757118225,0.341854989528656,0.25406864285469055
1740247374496524800,5.74952490234375,-0.5881654024124146,0.30490201711654663,0.6539114117622375
1740247374506506800,5.7595068359375,-0.8558510541915894,0.1747269332408905,0.9587259888648987
1740247374516487700,5.76948779296875,-1.0772767066955566,-0.04862333461642265,1.1687138080596924
1740247374526469600,5.7794697265625,-1.2712082862854004,-0.338154137134552,1.302485704421997
1740247374536450600,5.789450439453125,-1.4699161052703857,-0.6599177718162537,1.3375680446624756
1740247374546431700,5.799431640625,-1.6968215703964233,-0.9556121826171875,1.2868539094924927
1740247374556413700,5.80941357421875,-1.973091721534729,-1.1846202611923218,1.150769591331482
1740247374566395000,5.819394775390625,-2.2803955078125,-1.3515441417694092,0.9573275446891785
1740247374576376600,5.82937646484375,-2.618291139602661,-1.4935531616210938,0.7148142457008362
1740247374586357500,5.839357421875,-2.9655466079711914,-1.6372095346450806,0.44717738032341003
1740247374596339700,5.849339599609375,-3.277918577194214,-1.7944835424423218,0.1650383621454239
1740247374606320600,5.859320556640625,-3.486966133117676,-1.994269847869873,-0.12303297966718674
1740247374616302800,5.869302734375,-3.590782880783081,-2.244054079055786,-0.4364020824432373
1740247374626283500,5.879283447265625,-3.7208306789398193,-2.4086434841156006,-0.7855350375175476
1740247374636265700,5.889265625,-3.984201669692993,-2.346705913543701,-1.1422233581542969
1740247374646246700,5.89924658203125,-4.418744087219238,-1.9931150674819946,-1.4576754570007324
1740247374656228900,5.909228759765625,-4.971108913421631,-1.441946029663086,-1.6413280963897705
1740247374666209800,5.919209716796875,-5.559415340423584,-0.7778049111366272,-1.6385160684585571
1740247374676190700,5.929190673828125,-6.144696235656738,-0.06089792028069496,-1.4082999229431152
1740247374686172700,5.939172607421875,-6.677659034729004,0.6582996249198914,-0.9550334215164185
1740247374696153600,5.949153564453125,-7.072599411010742,1.2919397354125977,-0.30326950550079346
1740247374706135800,5.9591357421875,-7.277292728424072,1.772835373878479,0.4751729667186737
1740247374716117000,5.969116943359375,-7.260815620422363,2.0603320598602295,1.2978445291519165
1740247374726098700,5.9790986328125,-7.02851676940918,2.116300106048584,2.0912928581237793
1740247374736079600,5.98907958984375,-6.627631187438965,2.023329019546509,2.7901687622070312
1740247374746061800,5.999061767578125,-6.135945796966553,1.9590779542922974,3.353330373764038
1740247374756042800,6.009042724609375,-5.610426902770996,2.007906913757324,3.7655105590820312
1740247374766024700,6.019024658203125,-5.060544490814209,2.047304630279541,4.000205039978027
1740247374776005600,6.029005615234375,-4.52467155456543,1.9000015258789062,4.043506145477295
1740247374785987800,6.03898779296875,-4.058981418609619,1.5844123363494873,3.931081533432007
1740247374795968800,6.04896875,-3.6800272464752197,1.2165567874908447,3.723034381866455
1740247374805949700,6.05894970703125,-3.3650238513946533,0.8259523510932922,3.4561712741851807
1740247374815932000,6.068931884765625,-3.0907604694366455,0.4115617871284485,3.166090726852417
1740247374825912800,6.078912841796875,-2.834590435028076,-0.004935505799949169,2.881985664367676
1740247374835894800,6.088894775390625,-2.5551838874816895,-0.4019017815589905,2.611806631088257
1740247374845875700,6.098875732421875,-2.2430739402770996,-0.7075140476226807,2.3599085807800293
1740247374855858000,6.10885791015625,-1.9132754802703857,-0.899215042591095,2.14202618598938
1740247374865838800,6.1188388671875,-1.5900616645812988,-1.0265148878097534,1.9437673091888428
1740247374875820800,6.12882080078125,-1.304997205734253,-1.074000597000122,1.7629607915878296
1740247374885801700,6.1388017578125,-1.082524299621582,-1.0709351301193237,1.5893118381500244
1740247374895784000,6.148783935546875,-0.8926486968994141,-1.0332777500152588,1.4276961088180542
1740247374905764900,6.158764892578125,-0.7408297061920166,-0.9594522714614868,1.285272479057312
1740247374915746800,6.168746826171875,-0.6201978325843811,-0.8462879061698914,1.1728442907333374
1740247374925727700,6.178727783203125,-0.5251772999763489,-0.7127407789230347,1.0960626602172852
1740247374935709700,6.188709716796875,-0.4499320983886719,-0.5639731287956238,1.0499324798583984
1740247374945691000,6.19869091796875,-0.3759114742279053,-0.4166737496852875,1.0263569355010986
1740247374955671800,6.208671875,-0.2924831807613373,-0.269406259059906,1.0193636417388916
1740247374965654000,6.218654052734375,-0.18837366998195648,-0.13882794976234436,1.0303164720535278
1740247374975634700,6.228634765625,-0.06102290004491806,-0.03571168705821037,1.0518138408660889
1740247374985616600,6.23861669921875,0.08632941544055939,0.030654316768050194,1.0751608610153198
1740247374995597800,6.248597900390625,0.22643963992595673,0.07465320080518723,1.0931981801986694
1740247375005579800,6.258579833984375,0.3624490797519684,0.16977587342262268,1.0753612518310547
1740247375015561000,6.26856103515625,0.5061748027801514,0.3885582685470581,1.0250860452651978
1740247375025542700,6.278542724609375,0.6741073131561279,0.7161946892738342,0.930070161819458
1740247375035523800,6.28852392578125,0.8744561076164246,1.096287488937378,0.796622633934021
1740247375045505800,6.298505859375,1.0988011360168457,1.4809718132019043,0.6220800876617432
1740247375055486700,6.30848681640625,1.2979354858398438,1.8601499795913696,0.4255116581916809
1740247375065468700,6.31846875,1.4330825805664062,2.1947667598724365,0.21582861244678497
1740247375075449600,6.32844970703125,1.4967701435089111,2.4640250205993652,0.016473954543471336
1740247375085431800,6.338431884765625,1.4889582395553589,2.671157121658325,-0.17053066194057465
1740247375095412700,6.348412841796875,1.4567677974700928,2.7992568016052246,-0.3410392999649048
1740247375105394000,6.358393798828125,1.4338618516921997,2.8594205379486084,-0.5184264183044434
1740247375115375900,6.3683759765625,1.458099603652954,2.8826985359191895,-0.6915313601493835
1740247375125356800,6.378356689453125,1.5564208030700684,2.8988564014434814,-0.8797224760055542
1740247375135338800,6.3883388671875,1.7308539152145386,2.9143409729003906,-1.082826852798462
1740247375145319700,6.398319580078125,1.9760913848876953,2.9331090450286865,-1.3093074560165405
1740247375155302000,6.408302001953125,2.289113759994507,2.9395925998687744,-1.5321810245513916
1740247375165282800,6.41828271484375,2.6190853118896484,2.9091765880584717,-1.755968451499939
1740247375175264800,6.4282646484375,2.925670862197876,2.821678638458252,-1.971761703491211
1740247375185245700,6.43824560546875,3.202763557434082,2.6710221767425537,-2.172682285308838
1740247375195228000,6.448227783203125,3.4354610443115234,2.47698974609375,-2.3556079864501953
1740247375205208800,6.458208740234375,3.62652587890625,2.232045888900757,-2.525261640548706
1740247375215190800,6.468190673828125,3.784280776977539,1.9467015266418457,-2.6869704723358154
1740247375225171700,6.478171630859375,3.9316153526306152,1.6657947301864624,-2.846188545227051
1740247375235153700,6.488153564453125,4.074193000793457,1.4317295551300049,-3.0088391304016113
1740247375245134800,6.498134765625,4.1965742111206055,1.2408068180084229,-3.160473346710205
1740247375255115800,6.50811572265625,4.299386978149414,1.0986286401748657,-3.2948520183563232
1740247375265098000,6.518097900390625,4.382419586181641,0.9806967377662659,-3.423177719116211
1740247375275078700,6.52807861328125,4.4619903564453125,0.9205988049507141,-3.5507657527923584
1740247375285060900,6.538060791015625,4.496559143066406,0.9209362864494324,-3.658172845840454
1740247375295041800,6.548041748046875,4.481902599334717,0.923643171787262,-3.7289505004882812
1740247375305024000,6.55802392578125,4.407835006713867,0.8932980298995972,-3.7437708377838135
1740247375315005000,6.5680048828125,4.26902961730957,0.8247341513633728,-3.7034122943878174
1740247375324986600,6.577986572265625,4.094826698303223,0.741018533706665,-3.603754997253418
1740247375334967800,6.5879677734375,3.9156177043914795,0.6746134161949158,-3.458850145339966
1740247375344949800,6.59794970703125,3.7719664573669434,0.5995041131973267,-3.2816014289855957
1740247375354931000,6.607930908203125,3.6718318462371826,0.5260805487632751,-3.09218692779541
1740247375364912600,6.61791259765625,3.5884759426116943,0.4459119737148285,-2.882748603820801
1740247375374893800,6.627893798828125,3.5233030319213867,0.3629515767097473,-2.6467177867889404
1740247375384874800,6.637874755859375,3.4566941261291504,0.2421865612268448,-2.36993145942688
1740247375394856700,6.647856689453125,3.4297237396240234,-0.008541795425117016,-2.0691018104553223
1740247375404838000,6.657837890625,3.498854398727417,-0.4767473638057709,-1.7763794660568237
1740247375414819800,6.66781982421875,3.693397045135498,-1.185243010520935,-1.5340321063995361
1740247375424800800,6.67780078125,3.969344139099121,-2.0180695056915283,-1.4191765785217285
1740247375434782700,6.68778271484375,4.223721027374268,-2.7715976238250732,-1.5105313062667847
1740247375444764000,6.697763916015625,4.275173187255859,-3.1514618396759033,-1.8345423936843872
1740247375454745900,6.707745849609375,3.842529058456421,-2.996614933013916,-2.4062399864196777
1740247375464726800,6.717726806640625,2.786834716796875,-2.3044683933258057,-3.1646811962127686
1740247375474708700,6.727708740234375,1.2560875415802002,-1.5096230506896973,-3.6448988914489746
1740247375484689700,6.737689697265625,-0.47859594225883484,-0.7479841709136963,-3.740628480911255
1740247375494672000,6.747671875,-2.2226040363311768,-0.05847126990556717,-3.576674461364746
1740247375504652800,6.75765283203125,-3.729020118713379,0.44831088185310364,-3.228790760040283
1740247375514634800,6.767634765625,-4.828781604766846,0.7319846749305725,-2.784189462661743
1740247375524615700,6.77761572265625,-5.574227333068848,0.8510982394218445,-2.3100757598876953
1740247375534598000,6.787597900390625,-6.059879779815674,0.8802688717842102,-1.8484119176864624
1740247375544578800,6.797578857421875,-6.3237528800964355,0.9024906158447266,-1.4221001863479614
1740247375554559700,6.807559814453125,-6.307223320007324,0.9022642970085144,-1.0360187292099
1740247375564541700,6.817541748046875,-5.9856061935424805,0.8540745377540588,-0.694411039352417
1740247375574522600,6.827522705078125,-5.469653129577637,0.7225186228752136,-0.36861324310302734
1740247375584504800,6.8375048828125,-4.921152114868164,0.5136845111846924,-0.038780637085437775
1740247375594485800,6.84748583984375,-4.467666149139404,0.3063981831073761,0.30498549342155457
1740247375604468000,6.857468017578125,-4.138659954071045,0.16960038244724274,0.6434618830680847
1740247375614449000,6.867448974609375,-3.9276444911956787,0.08850232511758804,0.9541236162185669
1740247375624430800,6.877430908203125,-3.809453010559082,0.01802659034729004,1.2071869373321533
1740247375634411800,6.887411865234375,-3.786774158477783,-0.010393599979579449,1.395058512687683
1740247375644393700,6.897393798828125,-3.8479509353637695,0.0017375764437019825,1.5282936096191406
1740247375654375000,6.907375,-3.9672904014587402,0.04117792472243309,1.6277509927749634
1740247375664356600,6.917356689453125,-4.115823268890381,0.09390543401241302,1.7144724130630493
1740247375674337800,6.927337890625,-4.263908863067627,0.1135912537574768,1.817973017692566
1740247375684319700,6.93731982421875,-4.3895673751831055,0.09279526025056839,1.9320671558380127
1740247375694301000,6.947301025390625,-4.477318286895752,0.02782159112393856,2.0448222160339355
1740247375704283000,6.957282958984375,-4.5207014083862305,-0.05744483321905136,2.1363446712493896
1740247375714263600,6.967263671875,-4.523458003997803,-0.15983697772026062,2.1908977031707764
1740247375724244700,6.97724462890625,-4.480539321899414,-0.2858530879020691,2.2004449367523193
1740247375734226700,6.987226806640625,-4.407739162445068,-0.37359437346458435,2.17875075340271
1740247375744208000,6.997207763671875,-4.322181224822998,-0.4218568205833435,2.1440861225128174
1740247375754189800,7.00718994140625,-4.219581604003906,-0.4709809720516205,2.0852227210998535
1740247375764171000,7.0171708984375,-4.10444974899292,-0.5021028518676758,1.999164342880249
1740247375774152700,7.027152587890625,-3.989835262298584,-0.48941951990127563,1.8966355323791504
1740247375784134000,7.0371337890625,-3.9003491401672363,-0.43117618560791016,1.7767019271850586
1740247375794115800,7.04711572265625,-3.825676441192627,-0.38823485374450684,1.6496186256408691
1740247375804096800,7.0570966796875,-3.759554624557495,-0.40356573462486267,1.5069433450698853
1740247375814078700,7.06707861328125,-3.701120376586914,-0.469287246465683,1.349966287612915
1740247375824059600,7.0770595703125,-3.6538774967193604,-0.5716907978057861,1.178152322769165
1740247375834041900,7.087041748046875,-3.6044607162475586,-0.7122183442115784,0.9738672375679016
1740247375844022800,7.097022705078125,-3.534482955932617,-0.8574541807174683,0.7320348620414734
1740247375854004700,7.107004638671875,-3.4431264400482178,-0.9523037075996399,0.46956536173820496
1740247375863985700,7.116985595703125,-3.3356082439422607,-0.9580066204071045,0.21303629875183105
1740247375873967900,7.1269677734375,-3.20048189163208,-0.8689430952072144,-0.006269960664212704
1740247375883948800,7.13694873046875,-2.9947774410247803,-0.7183687090873718,-0.16665767133235931
1740247375893929700,7.1469296875,-2.701415777206421,-0.5307679176330566,-0.25577399134635925
1740247375903912000,7.156911865234375,-2.3237221240997314,-0.32771098613739014,-0.27743959426879883
1740247375913892900,7.166892822265625,-1.8816404342651367,-0.13527387380599976,-0.2465253323316574
1740247375923874800,7.176874755859375,-1.405208706855774,0.05969587340950966,-0.17878784239292145
1740247375933855700,7.186855712890625,-0.9133755564689636,0.21481914818286896,-0.0927451029419899
1740247375943838000,7.196837890625,-0.4391023516654968,0.29207393527030945,-0.006098823621869087
1740247375953819000,7.20681884765625,0.03072081133723259,0.28877535462379456,0.04925417900085449
1740247375963800800,7.21680078125,0.46355751156806946,0.20709483325481415,0.05363081395626068
1740247375973781800,7.22678173828125,0.8357383012771606,0.08673407882452011,0.0013958393828943372
1740247375983763700,7.236763671875,1.1254180669784546,-0.024462809786200523,-0.09534004330635071
1740247375993745000,7.246744873046875,1.3457320928573608,-0.10331395268440247,-0.20710332691669464
1740247376003726800,7.256726806640625,1.5426900386810303,-0.15780265629291534,-0.31026989221572876
1740247376013707800,7.266707763671875,1.7399104833602905,-0.20566391944885254,-0.40494951605796814
1740247376023689700,7.276689697265625,1.929625391960144,-0.2528652846813202,-0.5095537900924683
1740247376033671000,7.2866708984375,2.101874351501465,-0.28148123621940613,-0.6377250552177429
1740247376043651800,7.29665185546875,2.2475292682647705,-0.24492216110229492,-0.780990481376648
1740247376053633800,7.3066337890625,2.3717715740203857,-0.11236385256052017,-0.9363611340522766
1740247376063614700,7.31661474609375,2.506277322769165,0.098391093313694,-1.0774353742599487
1740247376073596700,7.3265966796875,2.6686367988586426,0.3417496681213379,-1.1964021921157837
1740247376083577900,7.336577880859375,2.8326282501220703,0.5546793341636658,-1.2840808629989624
1740247376093559800,7.346559814453125,2.995198965072632,0.71254563331604,-1.3617621660232544
1740247376103541000,7.356541015625,3.1312601566314697,0.8142215013504028,-1.4373406171798706
1740247376113522700,7.366522705078125,3.241523504257202,0.8846527934074402,-1.5023974180221558
1740247376123503600,7.376503662109375,3.330998659133911,0.9696640372276306,-1.5631736516952515
1740247376133485800,7.38648583984375,3.4161036014556885,1.063536524772644,-1.6035540103912354
1740247376143466800,7.396466796875,3.5176408290863037,1.1117326021194458,-1.6295785903930664
1740247376153448700,7.40644873046875,3.6336171627044678,1.1288388967514038,-1.6363061666488647
1740247376163429600,7.4164296875,3.7760791778564453,1.1207029819488525,-1.6108191013336182
1740247376173411800,7.426411865234375,3.9601056575775146,1.0904853343963623,-1.5452392101287842
1740247376183392800,7.436392822265625,4.186029434204102,1.032486081123352,-1.4374655485153198
1740247376193375000,7.446375,4.430536270141602,0.9384490847587585,-1.30202054977417
1740247376203356000,7.45635595703125,4.643729209899902,0.8124814629554749,-1.1563149690628052
1740247376213337900,7.466337890625,4.814606189727783,0.6700047254562378,-1.0124073028564453
1740247376223318800,7.47631884765625,4.936011791229248,0.5710597038269043,-0.8942423462867737
1740247376233299700,7.4862998046875,5.019959449768066,0.5415571928024292,-0.8097130656242371
1740247376243282000,7.496281982421875,5.0733442306518555,0.5841557383537292,-0.7571532726287842
1740247376253262800,7.506262939453125,5.11739444732666,0.6851537227630615,-0.7290369272232056
1740247376263244800,7.516244873046875,5.164453029632568,0.7772820591926575,-0.7023506164550781
1740247376273225700,7.526225830078125,5.216410160064697,0.8309311866760254,-0.6701735258102417
1740247376283208000,7.5362080078125,5.259681224822998,0.8570907711982727,-0.6297405958175659
1740247376293188900,7.54618896484375,5.306291103363037,0.8727310299873352,-0.5927922129631042
1740247376303170600,7.556170654296875,5.3346266746521,0.8940489888191223,-0.5768659114837646
1740247376313151700,7.56615185546875,5.319439888000488,0.941001832485199,-0.5803890228271484
1740247376323133700,7.5761337890625,5.2586989402771,0.9943491816520691,-0.6112508177757263
1740247376333115000,7.586114990234375,5.16978645324707,1.0298142433166504,-0.6616201996803284
1740247376343096800,7.596096923828125,5.068275451660156,1.0253742933273315,-0.7058431506156921
1740247376353078000,7.606078125,4.945740222930908,0.9677667617797852,-0.7089499831199646
1740247376363059700,7.616059814453125,4.803161144256592,0.8569074869155884,-0.6674319505691528
1740247376373040600,7.62604052734375,4.648329734802246,0.711382269859314,-0.5875200629234314
1740247376383022800,7.63602294921875,4.471723556518555,0.5460468530654907,-0.4887641966342926
1740247376393003800,7.646003662109375,4.270400047302246,0.39561793208122253,-0.38686418533325195
1740247376402985700,7.65598583984375,4.061979293823242,0.2847535312175751,-0.28374922275543213
1740247376412966700,7.665966552734375,3.8686821460723877,0.19395945966243744,-0.19766972959041595
1740247376422947800,7.67594775390625,3.720325231552124,0.07914722710847855,-0.13564974069595337
1740247376432929800,7.6859296875,3.6003739833831787,-0.04549723118543625,-0.11040988564491272
1740247376442911000,7.695910888671875,3.4548306465148926,-0.157532200217247,-0.13750551640987396
1740247376452892700,7.705892578125,3.245107650756836,-0.23476414382457733,-0.21628981828689575
1740247376462873600,7.71587353515625,2.9353394508361816,-0.2858325242996216,-0.35437530279159546
1740247376472855800,7.725855712890625,2.5351736545562744,-0.3637140095233917,-0.5311349034309387
1740247376482836700,7.735836669921875,2.0279810428619385,-0.4656772017478943,-0.7122877240180969
1740247376492819000,7.74581884765625,1.3873075246810913,-0.5552231073379517,-0.8671649098396301
1740247376502800000,7.7557998046875,0.6143569350242615,-0.601850152015686,-0.9670017957687378
1740247376512781800,7.76578173828125,-0.2704465985298157,-0.6117619276046753,-0.9759739637374878
1740247376522762800,7.7757626953125,-1.2716201543807983,-0.586500883102417,-0.8742570877075195
1740247376532745000,7.785744873046875,-2.3417203426361084,-0.5435060262680054,-0.6542000770568848
1740247376542726000,7.795725830078125,-3.363585948944092,-0.438740074634552,-0.31914496421813965
1740247376552707800,7.805707763671875,-4.203704833984375,-0.47517186403274536,0.07299190759658813
1740247376562688800,7.815688720703125,-4.705236434936523,-0.8390185236930847,0.4194619655609131
1740247376572670700,7.825670654296875,-4.889276027679443,-1.4586282968521118,0.6787340044975281
1740247376582652000,7.83565185546875,-4.8369317054748535,-1.9940624237060547,0.8294275999069214
1740247376592633600,7.845633544921875,-4.694218158721924,-2.1886096000671387,0.8796830773353577
1740247376602614800,7.85561474609375,-4.57655668258667,-2.0667481422424316,0.8499483466148376
1740247376612595700,7.865595703125,-4.547118663787842,-1.7480189800262451,0.7740551829338074
1740247376622578000,7.875577880859375,-4.612178325653076,-1.3647193908691406,0.7018109560012817
1740247376632558800,7.885558837890625,-4.7393622398376465,-1.0453273057937622,0.6710711717605591
1740247376642540800,7.895540771484375,-4.867467880249023,-0.9012429118156433,0.7040239572525024
1740247376652521700,7.905521728515625,-4.948467254638672,-0.9294780492782593,0.7643674612045288
1740247376662503700,7.915503662109375,-4.961122512817383,-1.0424662828445435,0.7973539233207703
1740247376672484900,7.92548486328125,-4.924764156341553,-1.1575448513031006,0.7612844109535217
1740247376682466800,7.935466796875,-4.866300106048584,-1.2085506916046143,0.6347612738609314
1740247376692448000,7.945447998046875,-4.829967498779297,-1.1605604887008667,0.42393505573272705
1740247376702429700,7.9554296875,-4.823637008666992,-1.0230605602264404,0.17653582990169525
1740247376712410600,7.96541064453125,-4.852404594421387,-0.8330715894699097,-0.07595980167388916
1740247376722392800,7.975392822265625,-4.889954566955566,-0.60842365026474,-0.270158052444458
1740247376732374000,7.9853740234375,-4.892961025238037,-0.42321062088012695,-0.3731382191181183
1740247376742355700,7.995355712890625,-4.839414596557617,-0.3037497401237488,-0.38344600796699524
1740247376752336600,8.005336669921874,-4.737428665161133,-0.2523384690284729,-0.30395224690437317
1740247376762318800,8.01531884765625,-4.6248016357421875,-0.23387795686721802,-0.1649111658334732
1740247376772299800,8.0252998046875,-4.542961597442627,-0.2196580022573471,0.028622601181268692
1740247376782282000,8.035281982421875,-4.4899210929870605,-0.16828866302967072,0.2689025402069092
1740247376792263000,8.045262939453124,-4.431873798370361,-0.046382199972867966,0.5524013638496399
1740247376802244900,8.055244873046876,-4.326145172119141,0.09930665045976639,0.8441985845565796
1740247376812225800,8.065225830078125,-4.177090644836426,0.213587686419487,1.1072425842285156
1740247376822206700,8.075206787109375,-3.987384080886841,0.3068992793560028,1.2975142002105713
1740247376832189000,8.08518896484375,-3.7962090969085693,0.4290864169597626,1.397634506225586
1740247376842169900,8.095169921875,-3.62178111076355,0.5951682329177856,1.408517837524414
1740247376852151800,8.10515185546875,-3.438124418258667,0.7733326554298401,1.3493645191192627
1740247376862132700,8.1151328125,-3.2090401649475098,0.8607433438301086,1.2301886081695557
1740247376872115000,8.125114990234374,-2.944122552871704,0.761107325553894,1.0589207410812378
1740247376882095900,8.135095947265626,-2.674867868423462,0.4758045971393585,0.823282778263092
1740247376892077800,8.145077880859375,-2.451007127761841,0.11052623391151428,0.5447592735290527
1740247376902058800,8.155058837890625,-2.288426637649536,-0.22020290791988373,0.26451948285102844
1740247376912041000,8.165041015625,-2.1665308475494385,-0.4549643099308014,0.03235998749732971
1740247376922022000,8.17502197265625,-2.0251433849334717,-0.5789059400558472,-0.11783438920974731
1740247376932003800,8.18500390625,-1.8206517696380615,-0.6081485152244568,-0.16870848834514618
1740247376941984800,8.19498486328125,-1.524015188217163,-0.5437580943107605,-0.12996332347393036
1740247376951966700,8.204966796875,-1.1444758176803589,-0.460938036441803,-0.03142077475786209
1740247376961948000,8.214947998046876,-0.7103580832481384,-0.46047958731651306,0.10075443238019943
1740247376971929900,8.224929931640625,-0.3004462420940399,-0.5964419841766357,0.2224867194890976
1740247376981911000,8.2349111328125,0.009957961738109589,-0.805926501750946,0.30171582102775574
1740247376991892000,8.24489208984375,0.1724528670310974,-0.9767073392868042,0.3357542157173157
1740247377001873700,8.254873779296876,0.2301599532365799,-1.0490186214447021,0.3361157774925232
1740247377011854800,8.264854736328125,0.22223305702209473,-1.0280773639678955,0.32865840196609497
1740247377021836800,8.2748369140625,0.21158210933208466,-0.9277604818344116,0.3149632215499878
1740247377031818000,8.28481787109375,0.24460051953792572,-0.7595983743667603,0.2929985523223877
1740247377041799700,8.294799560546876,0.3535993993282318,-0.549831748008728,0.2550296187400818
1740247377051780900,8.30478076171875,0.5645741820335388,-0.36475107073783875,0.1880042403936386
1740247377061762800,8.3147626953125,0.8629634380340576,-0.2558556795120239,0.07216484099626541
1740247377071743700,8.32474365234375,1.217315673828125,-0.20610223710536957,-0.0971813052892685
1740247377081726000,8.334725830078124,1.5803393125534058,-0.16707457602024078,-0.301434725522995
1740247377091707000,8.344706787109375,1.9039298295974731,-0.1002795621752739,-0.5292465686798096
1740247377101687800,8.354687744140625,2.1544644832611084,0.017596321180462837,-0.7669135928153992
1740247377111669800,8.364669677734375,2.3005077838897705,0.18283401429653168,-0.9919664263725281
1740247377121651000,8.37465087890625,2.3464295864105225,0.4023205041885376,-1.184829831123352
1740247377131633000,8.3846328125,2.328056812286377,0.6554659605026245,-1.3300323486328125
1740247377141613800,8.39461376953125,2.2766969203948975,0.9098001718521118,-1.4033985137939453
1740247377151595800,8.404595703125,2.2614939212799072,1.1547797918319702,-1.4074777364730835
1740247377161576700,8.41457666015625,2.3078839778900146,1.3649693727493286,-1.3451987504959106
1740247377171559000,8.424558837890626,2.438751697540283,1.5283713340759277,-1.23802649974823
1740247377181539800,8.434539794921875,2.635866403579712,1.6372385025024414,-1.0859405994415283
1740247377191521800,8.444521728515625,2.8827016353607178,1.679795503616333,-0.9056934118270874
1740247377201502700,8.454502685546874,3.1485016345977783,1.6710410118103027,-0.6981226801872253
1740247377211485000,8.46448486328125,3.4053473472595215,1.621917963027954,-0.47645020484924316
1740247377221465900,8.4744658203125,3.650545120239258,1.5394893884658813,-0.25563767552375793
1740247377231447800,8.48444775390625,3.876728057861328,1.439621925354004,-0.035893067717552185
1740247377241428700,8.4944287109375,4.053782939910889,1.3190653324127197,0.14973421394824982
1740247377251410700,8.50441064453125,4.174542427062988,1.1984007358551025,0.2879807651042938
1740247377261392000,8.514391845703125,4.229780197143555,1.1208010911941528,0.36214902997016907
1740247377271373800,8.524373779296875,4.231475830078125,1.1144899129867554,0.3773207664489746
1740247377281355000,8.53435498046875,4.201088905334473,1.1816177368164062,0.3384692370891571
1740247377291336700,8.544336669921876,4.168849945068359,1.2933179140090942,0.2729112505912781
1740247377301318000,8.55431787109375,4.153665542602539,1.4221006631851196,0.18791931867599487
1740247377311299800,8.5642998046875,4.167330265045166,1.5369001626968384,0.10716535151004791
1740247377321280800,8.57428076171875,4.191258907318115,1.635171890258789,0.030921602621674538
1740247377331262700,8.5842626953125,4.1999664306640625,1.6856215000152588,-0.05578639730811119
1740247377341243600,8.59424365234375,4.182741165161133,1.6718435287475586,-0.1766379326581955
1740247377351224800,8.604224853515625,4.130892276763916,1.6078122854232788,-0.334606796503067
1740247377361206800,8.614206787109374,4.046392917633057,1.5151034593582153,-0.5325947999954224
1740247377371188000,8.62418798828125,3.9304778575897217,1.4176636934280396,-0.7454172968864441
1740247377381170000,8.634169921875,3.801342725753784,1.3075090646743774,-0.966796338558197
1740247377391150800,8.64415087890625,3.680266857147217,1.1684305667877197,-1.1921751499176025
1740247377401132800,8.6541328125,3.576747179031372,0.9883357286453247,-1.3933353424072266
1740247377411113700,8.66411376953125,3.4639081954956055,0.7839418649673462,-1.5658692121505737
1740247377421096000,8.674095947265625,3.340550184249878,0.5718803405761719,-1.6860027313232422
1740247377431076900,8.684076904296875,3.203674077987671,0.35618507862091064,-1.7650882005691528
1740247377441058800,8.694058837890625,3.052330493927002,0.16328464448451996,-1.800467610359192
1740247377451039700,8.704039794921876,2.9017066955566406,-0.016584191471338272,-1.805464744567871
1740247377461022000,8.71402197265625,2.7493960857391357,-0.2019420862197876,-1.7924764156341553
1740247377471003000,8.7240029296875,2.5832483768463135,-0.4282391369342804,-1.7795242071151733
1740247377480984800,8.73398486328125,2.375819206237793,-0.6888401508331299,-1.7701892852783203
1740247377490965800,8.7439658203125,2.047049045562744,-0.9322458505630493,-1.763494849205017
1740247377500948000,8.753947998046876,1.4905215501785278,-1.0430991649627686,-1.7305110692977905
1740247377510929000,8.763928955078125,0.6944235563278198,-1.0033786296844482,-1.6711194515228271
1740247377520910800,8.773910888671875,-0.27998971939086914,-0.8743974566459656,-1.6106641292572021
1740247377530891800,8.783891845703126,-1.3340001106262207,-0.737480103969574,-1.5845489501953125
1740247377540873700,8.793873779296876,-2.2972636222839355,-0.6042705774307251,-1.6046544313430786
1740247377550855000,8.80385498046875,-3.0456278324127197,-0.49757927656173706,-1.6459243297576904
1740247377560836900,8.8138369140625,-3.539872646331787,-0.5206679701805115,-1.690882921218872
1740247377570818000,8.823818115234374,-3.8956665992736816,-0.7322832345962524,-1.724000096321106
1740247377580799700,8.8337998046875,-4.230281829833984,-1.1150726079940796,-1.7466565370559692
1740247377590780700,8.84378076171875,-4.53831672668457,-1.5358357429504395,-1.7522249221801758
1740247377600761900,8.853761962890625,-4.778372287750244,-1.8427040576934814,-1.7155027389526367
1740247377610743800,8.863743896484374,-4.91585636138916,-1.9746145009994507,-1.593683123588562
1740247377620725000,8.87372509765625,-4.935116767883301,-1.906531572341919,-1.367335319519043
1740247377630706700,8.883706787109375,-4.859052658081055,-1.6681312322616577,-1.0439050197601318
1740247377640687900,8.89368798828125,-4.707128047943115,-1.3175220489501953,-0.654846727848053
1740247377650669800,8.903669921875,-4.4913835525512695,-0.9208340644836426,-0.2404485046863556
1740247377660650800,8.913650634765625,-4.2052836418151855,-0.5503225326538086,0.1465725600719452
1740247377670633000,8.923633056640625,-3.8795974254608154,-0.22325226664543152,0.45087549090385437
1740247377680613600,8.933613525390625,-3.5536134243011475,0.05706644430756569,0.6539090275764465
1740247377690595800,8.943595947265624,-3.2611160278320312,0.3060317933559418,0.7544883489608765
1740247377700576800,8.95357666015625,-3.058215618133545,0.5158558487892151,0.803110659122467
1740247377710559000,8.96355908203125,-2.95676326751709,0.6691545844078064,0.8330091238021851
1740247377720540200,8.9735400390625,-2.9288930892944336,0.7451477646827698,0.8796699643135071
1740247377730522400,8.9835224609375,-2.9405252933502197,0.7461155652999878,0.9496280550956726
1740247377740503300,8.99350341796875,-2.964313507080078,0.6911442875862122,1.0286753177642822
1740247377750485500,9.003485595703125,-2.9831042289733887,0.5954118967056274,1.093954086303711
1740247377760466400,9.013466552734375,-2.9938368797302246,0.4796723425388336,1.1346603631973267
1740247377770448400,9.023448486328125,-2.995349407196045,0.36103731393814087,1.1380505561828613
1740247377780429300,9.03342919921875,-2.9758856296539307,0.2653692364692688,1.1154277324676514
1740247377790411300,9.043411376953125,-2.9354186058044434,0.2102157026529312,1.0782638788223267
1740247377800392400,9.053392333984375,-2.8801608085632324,0.1942230463027954,1.0543309450149536
1740247377810374100,9.0633740234375,-2.831312894821167,0.20678332448005676,1.059321641921997
1740247377820355300,9.073355224609376,-2.7808470726013184,0.2300402820110321,1.1264299154281616
1740247377830337300,9.083337158203125,-2.7225773334503174,0.23739513754844666,1.2444024085998535
1740247377840318500,9.093318359375,-2.655810594558716,0.16443437337875366,1.3959403038024902
1740247377850300400,9.103300537109375,-2.600525140762329,0.008232519030570984,1.5403459072113037
1740247377860281300,9.11328125,-2.5682170391082764,-0.2009817659854889,1.6538296937942505
1740247377870263300,9.12326318359375,-2.5697169303894043,-0.3980039954185486,1.7139716148376465
1740247377880244200,9.133244140625,-2.60269832611084,-0.531995952129364,1.7116341590881348
1740247377890225400,9.143225341796875,-2.6682958602905273,-0.557037353515625,1.6450812816619873
1740247377900207400,9.153207275390624,-2.7330336570739746,-0.4697326123714447,1.5292125940322876
1740247377910188500,9.1631884765625,-2.7867026329040527,-0.3283238112926483,1.381413459777832
1740247377920170200,9.173170166015625,-2.827098846435547,-0.17724551260471344,1.2171082496643066
1740247377930151200,9.183151123046875,-2.842090129852295,-0.04729577898979187,1.048160195350647
1740247377940133400,9.19313330078125,-2.8065683841705322,0.03131406754255295,0.8989517688751221
1740247377950114300,9.2031142578125,-2.722541570663452,0.06050524115562439,0.7973324656486511
1740247377960096300,9.21309619140625,-2.6217846870422363,0.10144580900669098,0.745205819606781
1740247377970077200,9.2230771484375,-2.504289150238037,0.17167523503303528,0.7331448793411255
1740247377980059400,9.233059326171874,-2.345118761062622,0.24776573479175568,0.7428894639015198
1740247377990040300,9.243040283203126,-2.1348352432250977,0.3279617428779602,0.7550872564315796
1740247378000022500,9.2530224609375,-1.8905608654022217,0.41485413908958435,0.7707638144493103
1740247378010003500,9.26300341796875,-1.6197584867477417,0.4754274785518646,0.7715886235237122
1740247378019985400,9.2729853515625,-1.3099099397659302,0.4809138774871826,0.7451155781745911
1740247378029966300,9.28296630859375,-0.9692775011062622,0.4207424223423004,0.6909591555595398
1740247378039948300,9.2929482421875,-0.6113062500953674,0.3467056453227997,0.5978333950042725
1740247378049929500,9.302929443359375,-0.25115737318992615,0.30120471119880676,0.4598139822483063
1740247378059911200,9.3129111328125,0.1084342673420906,0.3176203966140747,0.27055275440216064
1740247378069892400,9.322892333984376,0.4783196449279785,0.37087374925613403,0.0373418889939785
1740247378079874300,9.332874267578125,0.8519334197044373,0.44869980216026306,-0.2348962277173996
1740247378089855500,9.34285546875,1.2080936431884766,0.5371236205101013,-0.5404267907142639
1740247378099837200,9.352837158203124,1.5235642194747925,0.6341000199317932,-0.8595373630523682
1740247378109818000,9.362818115234376,1.7827845811843872,0.7439895272254944,-1.1630802154541016
1740247378119800300,9.37280029296875,1.9736756086349487,0.8494030237197876,-1.4215688705444336
1740247378129781200,9.38278125,2.09801983833313,0.9359133839607239,-1.6196486949920654
1740247378139763500,9.392763427734375,2.1809608936309814,0.9737628102302551,-1.7470160722732544
1740247378149744400,9.402744384765626,2.2399985790252686,0.9517712593078613,-1.8058058023452759
1740247378159726300,9.412726318359375,2.305131196975708,0.8565744161605835,-1.816266417503357
1740247378169707300,9.422707275390625,2.3929808139801025,0.7048093676567078,-1.7900422811508179
1740247378179688400,9.4326884765625,2.4970006942749023,0.5258823037147522,-1.748218059539795
1740247378189670400,9.44267041015625,2.623370409011841,0.3357405662536621,-1.6863833665847778
1740247378199651300,9.4526513671875,2.769963264465332,0.16317151486873627,-1.6114641427993774
1740247378209633300,9.46263330078125,2.9328227043151855,0.02324691228568554,-1.5307027101516724
1740247378219614200,9.4726142578125,3.105248212814331,-0.08399391919374466,-1.4364213943481445
1740247378229596400,9.482596435546874,3.2728686332702637,-0.16055448353290558,-1.3331434726715088
1740247378239577300,9.492577392578125,3.438037872314453,-0.22013378143310547,-1.2202409505844116
1740247378249559300,9.502559326171875,3.5854697227478027,-0.2792240083217621,-1.0974361896514893
1740247378259540200,9.512540283203125,3.714784860610962,-0.32833683490753174,-0.9704082608222961
1740247378269522400,9.5225224609375,3.8100502490997314,-0.34779468178749084,-0.8506779074668884
1740247378279503400,9.53250341796875,3.885141134262085,-0.33099743723869324,-0.7492368221282959
1740247378289485600,9.542485595703125,3.9375455379486084,-0.26778891682624817,-0.6660199761390686
1740247378299466500,9.552466552734375,3.9673798084259033,-0.15979881584644318,-0.6082803010940552
1740247378309448200,9.5624482421875,3.9910895824432373,-0.022765852510929108,-0.5700857639312744
1740247378319429400,9.572429443359376,4.001043319702148,0.12752030789852142,-0.5508055090904236
1740247378329411300,9.582411376953125,4.000766754150391,0.2748631238937378,-0.5396229028701782
1740247378339392500,9.592392578125,3.9866156578063965,0.3971279561519623,-0.5239712595939636
1740247378349374200,9.602374267578124,3.9588212966918945,0.481694757938385,-0.5072239637374878
1740247378359355400,9.61235546875,3.9364137649536133,0.5208776593208313,-0.4886990189552307
1740247378369337300,9.62233740234375,3.913076400756836,0.5239456295967102,-0.4727163016796112
1740247378379318300,9.632318359375,3.8929877281188965,0.5007025003433228,-0.46342286467552185
1740247378389300200,9.64230029296875,3.8758292198181152,0.4676268696784973,-0.4630955755710602
1740247378399281200,9.65228125,3.843986988067627,0.44668978452682495,-0.47522178292274475
1740247378409263400,9.662263427734375,3.7966413497924805,0.42797762155532837,-0.47519993782043457
1740247378419244300,9.672244384765625,3.7109317779541016,0.4122646450996399,-0.4534669518470764
1740247378429226500,9.6822265625,3.529279947280884,0.427313894033432,-0.3889702558517456
1740247378439207400,9.69220751953125,3.215372085571289,0.4815847873687744,-0.2838823199272156
1740247378449189400,9.702189453125,2.7699592113494873,0.5524352788925171,-0.13895095884799957
1740247378459170300,9.71217041015625,2.2109477519989014,0.6366647481918335,0.05173139274120331
1740247378469152500,9.722152587890625,1.6110903024673462,0.6826626062393188,0.277266263961792
1740247378479133400,9.732133544921876,1.0533344745635986,0.6883758306503296,0.5286427140235901
1740247378489115100,9.742115234375,0.5778278112411499,0.6746232509613037,0.7878844141960144
1740247378499096300,9.752096435546875,0.20130710303783417,0.6496521830558777,1.0014209747314453
1740247378509078300,9.762078369140625,-0.10234040021896362,0.6318417191505432,1.0989714860916138
1740247378519059500,9.7720595703125,-0.3744729459285736,0.6038550138473511,1.0317909717559814
1740247378529041400,9.78204150390625,-0.65287846326828,0.5551844239234924,0.8066747784614563
1740247378539022300,9.792022216796875,-0.9555360078811646,0.49642476439476013,0.4709307551383972
1740247378549004300,9.80200439453125,-1.2730169296264648,0.4224384129047394,0.09889090806245804
1740247378558985200,9.811985107421876,-1.5555895566940308,0.33051666617393494,-0.24672013521194458
1740247378568966400,9.82196630859375,-1.765088677406311,0.1884647160768509,-0.5280919075012207
1740247378578948400,9.8319482421875,-1.9117178916931152,0.01786399446427822,-0.7214029431343079
1740247378588929500,9.841929443359374,-2.0536108016967773,-0.09016260504722595,-0.8067764043807983
1740247378598911200,9.8519111328125,-2.200474500656128,-0.11781352758407593,-0.7842544913291931
1740247378608892400,9.861892333984375,-2.3605597019195557,-0.08678849786520004,-0.6521002054214478
1740247378618874400,9.871874267578125,-2.5392489433288574,-0.017616745084524155,-0.4266619086265564
1740247378628855300,9.881855224609374,-2.7119300365448,0.09773168712854385,-0.13749375939369202
1740247378638837200,9.891837158203124,-2.841949939727783,0.2575795352458954,0.1896611452102661
1740247378648818200,9.901818115234375,-2.8764889240264893,0.48511919379234314,0.5292269587516785
1740247378658800400,9.91180029296875,-2.768442153930664,0.8076631426811218,0.8704972863197327
1740247378668781300,9.92178125,-2.497011184692383,1.2037127017974854,1.1915802955627441
1740247378678763300,9.93176318359375,-2.107649326324463,1.6181451082229614,1.4505316019058228
1740247378688744200,9.941744140625,-1.6767139434814453,2.0304160118103027,1.5664204359054565
1740247378698726400,9.951726318359375,-1.2611199617385864,2.480847120285034,1.5009270906448364
1740247378708707300,9.961707275390625,-0.9176049828529358,2.924415111541748,1.2704278230667114
1740247378718689000,9.97168896484375,-0.7111015319824219,3.2335667610168457,0.9679035544395447
1740247378728670000,9.981669921875,-0.6588532328605652,3.265307903289795,0.7091217637062073
1740247378738652000,9.99165185546875,-0.7462896108627319,2.9425642490386963,0.5782354474067688
1740247378748632800,10.0016328125,-0.9261688590049744,2.2792093753814697,0.5848991870880127
1740247378758615000,10.011614990234374,-1.1814959049224854,1.381529450416565,0.7233254313468933
1740247378768596000,10.021595947265626,-1.505136251449585,0.4035632312297821,0.9477623105049133
1740247378778578000,10.031577880859375,-1.8703012466430664,-0.58982253074646,1.2156689167022705
1740247378788558800,10.041558837890625,-2.2234325408935547,-1.5408157110214233,1.4665988683700562
1740247378798541000,10.051541015625,-2.57071590423584,-2.344809055328369,1.6292355060577393
1740247378808522000,10.06152197265625,-2.92570424079895,-2.9370315074920654,1.6434029340744019
1740247378818504000,10.07150390625,-3.2843918800354004,-3.273435115814209,1.5004820823669434
1740247378828485000,10.081485107421875,-3.6140778064727783,-3.4035205841064453,1.244529366493225
1740247378838466800,10.091466796875,-3.871216297149658,-3.424198865890503,0.9379369020462036
1740247378848448000,10.101447998046876,-4.032973289489746,-3.376394033432007,0.6510923504829407
1740247378858430000,10.111429931640625,-4.116344928741455,-3.264216184616089,0.4235191345214844
1740247378868411100,10.1214111328125,-4.095551013946533,-3.0958433151245117,0.26642563939094543
1740247378878392800,10.131392822265624,-3.9573607444763184,-2.8613057136535645,0.17705203592777252
1740247378888373800,10.141373779296876,-3.7241382598876953,-2.5655531883239746,0.1707075834274292
1740247378898356000,10.15135595703125,-3.454180955886841,-2.198184013366699,0.24855577945709229
1740247378908337000,10.1613369140625,-3.201479911804199,-1.747302770614624,0.41839566826820374
1740247378918319000,10.171319091796875,-2.9815878868103027,-1.2730205059051514,0.6433429718017578
1740247378928299800,10.1812998046875,-2.7719814777374268,-0.8724323511123657,0.888118326663971
1740247378938282000,10.191281982421875,-2.5405428409576416,-0.6349576115608215,1.11456298828125
1740247378948263000,10.201262939453125,-2.3101601600646973,-0.5447262525558472,1.258532166481018
1740247378958245000,10.2112451171875,-2.0826263427734375,-0.5451232194900513,1.2907098531723022
1740247378968226000,10.22122607421875,-1.8577473163604736,-0.5470452308654785,1.19935142993927
1740247378978208000,10.2312080078125,-1.6139804124832153,-0.47957131266593933,0.9983434081077576
1740247378988189000,10.24118896484375,-1.2922340631484985,-0.3875226378440857,0.7093291282653809
1740247378998169900,10.251169921875,-0.9060149788856506,-0.3495022654533386,0.34490254521369934
1740247379008152000,10.261152099609374,-0.5124844312667847,-0.4038051962852478,-0.08297024667263031
1740247379018133000,10.271133056640625,-0.1574908047914505,-0.5158824324607849,-0.5352572202682495
1740247379028115000,10.281114990234375,0.09560882300138474,-0.7127965688705444,-0.9556001424789429
1740247379038096000,10.291095947265624,0.21738171577453613,-0.9861192107200623,-1.2943553924560547
1740247379048078000,10.301078125,0.2217857837677002,-1.273335337638855,-1.5123708248138428
1740247379058059000,10.31105908203125,0.17148888111114502,-1.5141041278839111,-1.6188174486160278
1740247379068041000,10.321041015625,0.13470317423343658,-1.678045630455017,-1.6493440866470337
1740247379078022000,10.33102197265625,0.15290012955665588,-1.7540634870529175,-1.6270397901535034
1740247379088003800,10.34100390625,0.2524922490119934,-1.7415136098861694,-1.5500110387802124
1740247379097985000,10.350985107421875,0.4500684440135956,-1.6281877756118774,-1.3933583498001099
1740247379107967000,10.360967041015625,0.7297338843345642,-1.3960576057434082,-1.153486967086792
1740247379117948200,10.3709482421875,1.0766613483428955,-1.0755881071090698,-0.8356621861457825
1740247379127929900,10.380929931640624,1.4580347537994385,-0.7182161211967468,-0.45824140310287476
1740247379137910800,10.390910888671876,1.8575479984283447,-0.37003111839294434,-0.06242072582244873
1740247379147893000,10.40089306640625,2.266491174697876,-0.049155108630657196,0.324038028717041
1740247379157874000,10.4108740234375,2.6561596393585205,0.2666739523410797,0.6556845903396606
1740247379167855900,10.42085595703125,2.99108624458313,0.6214637160301208,0.9117826819419861
1740247379177836800,10.4308369140625,3.2670600414276123,1.0075305700302124,1.0938680171966553
1740247379187819000,10.440819091796875,3.488560438156128,1.3908843994140625,1.2058392763137817
1740247379197800000,10.450800048828125,3.662121057510376,1.7522575855255127,1.255292534828186
1740247379207782100,10.4607822265625,3.8123574256896973,2.0581412315368652,1.265709400177002
1740247379217763000,10.47076318359375,3.974902868270874,2.2537074089050293,1.2392113208770752
1740247379227745000,10.4807451171875,4.14520788192749,2.3244168758392334,1.172927737236023
1740247379237726000,10.490725830078125,4.30479097366333,2.2607052326202393,1.070407748222351
1740247379247708000,10.5007080078125,4.436481475830078,2.0975561141967773,0.9258044362068176
1740247379257689000,10.510689208984376,4.519147872924805,1.8805010318756104,0.7357525825500488
1740247379267670800,10.5206708984375,4.5445637702941895,1.6429036855697632,0.5095556974411011
1740247379277652000,10.53065185546875,4.506771087646484,1.4209654331207275,0.2544935941696167
1740247379287634000,10.540634033203125,4.414583206176758,1.2253751754760742,-0.017329687252640724
1740247379297615000,10.550614990234376,4.295691013336182,1.0599255561828613,-0.2923051416873932
1740247379307596800,10.5605966796875,4.188290119171143,0.9179206490516663,-0.5541013479232788
1740247379317578000,10.570577880859375,4.100460052490234,0.7720515727996826,-0.7869622111320496
1740247379327560000,10.580559814453125,4.027669906616211,0.6187312602996826,-0.9711482524871826
1740247379337540900,10.590540771484376,3.9709341526031494,0.4477804899215698,-1.1061651706695557
1740247379347523000,10.600523193359376,3.9239132404327393,0.2983989715576172,-1.2086889743804932
1740247379357504000,10.61050390625,3.869014024734497,0.19908766448497772,-1.2839431762695312
1740247379367486000,10.62048583984375,3.801034927368164,0.17717570066452026,-1.3562275171279907
1740247379377467000,10.630466796875,3.747525691986084,0.21969614923000336,-1.4176609516143799
1740247379387449000,10.640448974609376,3.7337605953216553,0.3191300630569458,-1.463457703590393
1740247379397430000,10.650429931640625,3.7820444107055664,0.4872986376285553,-1.4828128814697266
1740247379407412000,10.660411865234375,3.8866777420043945,0.6927351355552673,-1.4707205295562744
1740247379417393000,10.670392822265624,4.0055060386657715,0.8694813251495361,-1.4244825839996338
1740247379427375000,10.680375,4.062817096710205,0.9538867473602295,-1.333210825920105
1740247379437356000,10.69035595703125,4.046536922454834,0.9920895099639893,-1.203283429145813
1740247379447338000,10.700337890625,3.9694056510925293,1.0355877876281738,-1.0344477891921997
1740247379457319000,10.71031884765625,3.856990098953247,1.062873125076294,-0.843551516532898
1740247379467300900,10.72030078125,3.75018048286438,1.0704338550567627,-0.6378625631332397
1740247379477282000,10.730281982421875,3.66855525970459,1.0618230104446411,-0.4332190155982971
1740247379487264000,10.740263916015625,3.596524477005005,1.0514209270477295,-0.27043649554252625
1740247379497245200,10.7502451171875,3.49245548248291,0.9558261632919312,-0.18173685669898987
1740247379507227000,10.760226806640626,3.3294193744659424,0.733407735824585,-0.18566502630710602
1740247379517207800,10.770207763671875,3.066286325454712,0.44069886207580566,-0.2609306871891022
1740247379527190000,10.78018994140625,2.6573495864868164,0.15141992270946503,-0.37875956296920776
1740247379537171000,10.7901708984375,2.0981428623199463,-0.15404635667800903,-0.5053540468215942
1740247379547153000,10.80015283203125,1.4245426654815674,-0.5041939616203308,-0.634494960308075
1740247379557133800,10.8101337890625,0.6740045547485352,-0.8839110136032104,-0.761599063873291
1740247379567116000,10.820115966796875,-0.13285569846630096,-1.269038200378418,-0.871134877204895
1740247379577097000,10.830096923828124,-0.9583657383918762,-1.609914779663086,-0.9286935925483704
1740247379587079200,10.8400791015625,-1.715646743774414,-1.9127029180526733,-0.9056535363197327
1740247379597059800,10.850059814453125,-2.344162940979004,-2.1201226711273193,-0.7974645495414734
1740247379607042000,10.8600419921875,-2.8611364364624023,-2.1499545574188232,-0.6260315179824829
1740247379617023000,10.87002294921875,-3.3054769039154053,-1.9872995615005493,-0.40738967061042786
1740247379627005000,10.8800048828125,-3.6929636001586914,-1.6839338541030884,-0.16664551198482513
1740247379636986000,10.889986083984375,-4.046444416046143,-1.2986422777175903,0.06363771855831146
1740247379646967800,10.8999677734375,-4.367228984832764,-0.8944841623306274,0.24891357123851776
1740247379656949000,10.909948974609375,-4.652018070220947,-0.4840153455734253,0.3750779330730438
1740247379666931000,10.919930908203124,-4.888146877288818,-0.12388192862272263,0.4559512138366699
1740247379676912000,10.929912109375,-5.06344747543335,0.12108510732650757,0.4963745176792145
1740247379686893800,10.939893798828125,-5.177172660827637,0.25544583797454834,0.5024039149284363
1740247379696874800,10.949874755859375,-5.227781295776367,0.2892046272754669,0.4575672745704651
1740247379706857000,10.95985693359375,-5.215532302856445,0.23847246170043945,0.3553255796432495
1740247379716838100,10.969838134765626,-5.1783270835876465,0.1348932981491089,0.199245423078537
1740247379726820400,10.9798203125,-5.15654993057251,0.006490861531347036,-0.005752732045948505
1740247379736801000,10.989801025390625,-5.1784749031066895,-0.1379612684249878,-0.2532981038093567
1740247379746782200,10.9997822265625,-5.270880222320557,-0.27934661507606506,-0.5351359248161316
1740247379756764200,11.00976416015625,-5.438321113586426,-0.4054770767688751,-0.8033405542373657
1740247379766745300,11.019745361328125,-5.669352054595947,-0.5130786299705505,-1.0128802061080933
1740247379776727300,11.029727294921875,-5.905311107635498,-0.5632436871528625,-1.1120771169662476
1740247379786708200,11.039708251953124,-6.095917701721191,-0.517545223236084,-1.0601142644882202
1740247379796690200,11.049690185546876,-6.205770492553711,-0.41229575872421265,-0.8590126633644104
1740247379806671000,11.059671142578125,-6.228121757507324,-0.3060481548309326,-0.5378021597862244
1740247379816653300,11.0696533203125,-6.149614334106445,-0.19267728924751282,-0.12783974409103394
1740247379826634200,11.07963427734375,-5.944323539733887,-0.05493087321519852,0.3308039903640747
1740247379836616200,11.0896162109375,-5.620941162109375,0.11998044699430466,0.7824916243553162
1740247379846597000,11.09959716796875,-5.248358249664307,0.3414369225502014,1.1847403049468994
1740247379856579300,11.109579345703125,-4.912062168121338,0.6476556658744812,1.5013021230697632
1740247379866560300,11.119560302734374,-4.648403644561768,0.9955042004585266,1.727081537246704
1740247379876542200,11.129542236328126,-4.46088171005249,1.292646050453186,1.8625675439834595
1740247379886523100,11.139523193359375,-4.333540439605713,1.4842647314071655,1.924236536026001
1740247379896505000,11.149505126953125,-4.236717700958252,1.5724605321884155,1.922057032585144
1740247379906486300,11.159486328125,-4.128438949584961,1.5778206586837769,1.8837569952011108
1740247379916468200,11.16946826171875,-3.93094801902771,1.489159345626831,1.8207355737686157
1740247379926449400,11.179449462890625,-3.5774621963500977,1.2885607481002808,1.759061574935913
1740247379936431000,11.18943115234375,-3.047213315963745,0.949770987033844,1.7015492916107178
1740247379946412300,11.199412353515624,-2.3895273208618164,0.4806056022644043,1.6297073364257812
1740247379956394200,11.209394287109374,-1.6798354387283325,-0.0511339008808136,1.5389865636825562
1740247379966375200,11.219375244140625,-0.9974305033683777,-0.5495136380195618,1.4128046035766602
1740247379976357000,11.229357177734375,-0.418973833322525,-0.9412279725074768,1.2370201349258423
1740247379986338000,11.239338134765624,0.024834753945469856,-1.186104416847229,1.004521369934082
1740247379996320300,11.2493203125,0.3137529790401459,-1.2740182876586914,0.7289466857910156
1740247380006301200,11.25930126953125,0.4955826997756958,-1.2259680032730103,0.43805861473083496
1740247380016283400,11.269283447265625,0.6020785570144653,-1.052406907081604,0.15432459115982056
1740247380026264000,11.27926416015625,0.6618819832801819,-0.7636861801147461,-0.09946667402982712
1740247380036246300,11.289246337890624,0.7246677875518799,-0.4435623586177826,-0.3121189773082733
1740247380046227200,11.299227294921875,0.8295185565948486,-0.21047107875347137,-0.473571240901947
1740247380056209400,11.30920947265625,0.9809265732765198,-0.12349680066108704,-0.599218487739563
1740247380066190300,11.3191904296875,1.162049412727356,-0.1185595691204071,-0.7208349704742432
1740247380076172000,11.329172119140624,1.3463448286056519,-0.08541317284107208,-0.8716955780982971
1740247380086153200,11.3391533203125,1.516555905342102,0.021450430154800415,-1.0685501098632812
1740247380096135200,11.34913525390625,1.7002485990524292,0.160931795835495,-1.290156364440918
1740247380106116400,11.359116455078125,1.8992855548858643,0.2977679371833801,-1.4882241487503052
1740247380116098000,11.36909814453125,2.112229585647583,0.42079460620880127,-1.6157710552215576
1740247380126079200,11.379079345703126,2.2987289428710938,0.5474026203155518,-1.6348330974578857
1740247380136061200,11.389061279296875,2.45837664604187,0.6720859408378601,-1.538087248802185
1740247380146042000,11.3990419921875,2.6051650047302246,0.7929351329803467,-1.359964370727539
1740247380156024300,11.4090244140625,2.7566254138946533,0.8925637602806091,-1.1348133087158203
1740247380166005200,11.419005126953126,2.9327876567840576,0.9427273273468018,-0.8893252015113831
1740247380175987200,11.4289873046875,3.132162094116211,0.9495037198066711,-0.650140106678009
1740247380185968000,11.438968017578125,3.3565316200256348,0.9279888272285461,-0.4322511553764343
1740247380195950300,11.448950439453125,3.5894815921783447,0.8833273649215698,-0.2550632953643799
1740247380205931300,11.45893115234375,3.8052923679351807,0.8260752558708191,-0.1238967552781105
1740247380215913200,11.468913330078125,3.98225474357605,0.7779619693756104,-0.03700288385152817
1740247380225894100,11.47889404296875,4.106380939483643,0.753777801990509,0.019083820283412933
1740247380235876400,11.48887646484375,4.197692394256592,0.7761261463165283,0.05298340693116188
1740247380245857300,11.498857177734376,4.276305198669434,0.8204736709594727,0.08085764944553375
1740247380255839200,11.508839111328125,4.346151828765869,0.8446469902992249,0.1116068884730339
1740247380265820200,11.518820068359375,4.410287380218506,0.8325319886207581,0.13992108404636383
1740247380275802000,11.528802001953125,4.460498809814453,0.7737357020378113,0.15296120941638947
1740247380285783300,11.538783203125,4.478259086608887,0.6841536164283752,0.13552629947662354
1740247380295765200,11.54876513671875,4.456477165222168,0.564304769039154,0.0802527666091919
1740247380305746400,11.558746337890625,4.405694484710693,0.4823145270347595,0.004351344890892506
1740247380315728100,11.56872802734375,4.340948581695557,0.45786038041114807,-0.08731774240732193
1740247380325709000,11.578708984375,4.278800010681152,0.4843558967113495,-0.19365191459655762
1740247380335691300,11.588691162109376,4.2317328453063965,0.5360090732574463,-0.3140314817428589
1740247380345672200,11.598672119140625,4.1967058181762695,0.6055132746696472,-0.43326014280319214
1740247380355654100,11.608654052734375,4.163573265075684,0.7000284194946289,-0.5372632741928101
1740247380365635000,11.618635009765624,4.119942665100098,0.8040342330932617,-0.6221233606338501
1740247380375617300,11.6286171875,4.056965351104736,0.8631719946861267,-0.682947039604187
1740247380385598200,11.63859814453125,3.9797935485839844,0.8515864610671997,-0.7243783473968506
1740247380395580400,11.648580322265625,3.8722355365753174,0.7546147704124451,-0.7369466423988342
1740247380405561000,11.65856103515625,3.7379839420318604,0.5644581317901611,-0.7140508890151978
1740247380415543300,11.668543212890626,3.593489170074463,0.3230727016925812,-0.6611006855964661
1740247380425524200,11.678524169921875,3.4474706649780273,0.07666453719139099,-0.5955933332443237
1740247380435506200,11.688506103515625,3.286358594894409,-0.13894496858119965,-0.5297242999076843
1740247380445487400,11.6984873046875,3.1071114540100098,-0.29910531640052795,-0.4759872555732727
1740247380455469000,11.708468994140626,2.90547513961792,-0.3783811926841736,-0.44032320380210876
1740247380465450200,11.7184501953125,2.6633877754211426,-0.3451593220233917,-0.45360279083251953
1740247380475432200,11.72843212890625,2.360562801361084,-0.2431555688381195,-0.5321910977363586
1740247380485413400,11.738413330078124,1.9820164442062378,-0.1042243093252182,-0.7089887857437134
1740247380495395000,11.74839501953125,1.5194767713546753,0.060274120420217514,-0.9727388620376587
1740247380505376000,11.7583759765625,0.9975740909576416,0.23877328634262085,-1.2867286205291748
1740247380515358200,11.768358154296875,0.48539265990257263,0.37196773290634155,-1.5841312408447266
1740247380525339100,11.778339111328124,0.03419511765241623,0.40741682052612305,-1.8161767721176147
1740247380535321300,11.7883212890625,-0.3266829550266266,0.28790727257728577,-1.941482663154602
1740247380545302300,11.79830224609375,-0.596783459186554,0.05017778277397156,-1.9084094762802124
1740247380555284200,11.8082841796875,-0.8049180507659912,-0.2295757681131363,-1.7054238319396973
1740247380565265200,11.81826513671875,-0.9609305262565613,-0.5361564755439758,-1.3519177436828613
1740247380575247400,11.828247314453124,-1.1049188375473022,-0.8221883177757263,-0.8881620764732361
1740247380585228300,11.838228271484375,-1.250713586807251,-1.0786011219024658,-0.37431633472442627
1740247380595210200,11.848210205078125,-1.4215383529663086,-1.2583339214324951,0.15625014901161194
1740247380605191200,11.858191162109375,-1.6146459579467773,-1.3624480962753296,0.6663640141487122
1740247380615173000,11.868173095703124,-1.7921901941299438,-1.3958631753921509,1.1398957967758179
1740247380625155300,11.8781552734375,-1.8677141666412354,-1.4285353422164917,1.5572746992111206
1740247380635136000,11.888135986328125,-1.7350239753723145,-1.4810044765472412,1.8768116235733032
1740247380645118200,11.8981181640625,-1.4278440475463867,-1.4752824306488037,2.0677196979522705
1740247380655099100,11.90809912109375,-1.2146915197372437,-1.2371306419372559,2.086301803588867
1740247380665081300,11.918081298828126,-1.3702070713043213,-0.5749931335449219,1.907004714012146
1740247380675062300,11.928062255859375,-1.996884822845459,0.44899123907089233,1.5536638498306274
1740247380685044200,11.938044189453125,-2.965711832046509,1.635740041732788,1.1352077722549438
1740247380695025200,11.948025146484374,-3.98199725151062,2.686411142349243,0.7980980277061462
1740247380705007400,11.95800732421875,-4.725088119506836,3.311777353286743,0.6685813069343567
1740247380714988300,11.96798828125,-4.957460880279541,3.2286972999572754,0.7153297662734985
1740247380724969500,11.977969482421875,-4.6777215003967285,2.195478677749634,0.8094239830970764
1740247380734950400,11.987950439453124,-4.1661834716796875,0.5300062894821167,0.8225486874580383
1740247380744932400,11.997932373046876,-3.7581963539123535,-0.9166489243507385,0.720433235168457
1740247380754913300,12.007913330078125,-3.6837403774261475,-1.6037015914916992,0.5112990140914917
1740247380764895500,12.0178955078125,-3.9082813262939453,-1.6317811012268066,0.20762355625629425
1740247380774876400,12.02787646484375,-4.251509666442871,-1.2824687957763672,-0.12643437087535858
1740247380784858400,12.0378583984375,-4.536510944366455,-0.8377944231033325,-0.4283044636249542
1740247380794839300,12.04783935546875,-4.633696556091309,-0.5514711737632751,-0.6514467000961304
1740247380804821500,12.057821533203125,-4.552286624908447,-0.5590867400169373,-0.7686918377876282
1740247380814802400,12.067802490234374,-4.404988765716553,-0.7518666386604309,-0.7932246327400208
1740247380824784600,12.07778466796875,-4.310485363006592,-0.9199305176734924,-0.7447449564933777
1740247380834765300,12.087765380859375,-4.285736083984375,-0.9697934985160828,-0.6358107328414917
1740247380844747300,12.097747314453125,-4.276031494140625,-0.9900292754173279,-0.487891286611557
1740247380854728400,12.107728515625,-4.2568817138671875,-1.0189948081970215,-0.3442380428314209
1740247380864710400,12.11771044921875,-4.243618965148926,-0.9842548966407776,-0.24139875173568726
1740247380874691600,12.127691650390625,-4.238811016082764,-0.790376603603363,-0.17921572923660278
1740247380884673300,12.13767333984375,-4.198202610015869,-0.45497381687164307,-0.12835948169231415
1740247380894654500,12.147654541015624,-4.0806427001953125,-0.10878941416740417,-0.06624042987823486
1740247380904636400,12.157636474609374,-3.857944965362549,0.14355041086673737,-0.0025490690022706985
1740247380914617300,12.167617431640625,-3.537775754928589,0.25189676880836487,0.0530247762799263
1740247380924599300,12.177599365234375,-3.179004669189453,0.24384284019470215,0.06730836629867554
1740247380934580200,12.187580322265624,-2.833177328109741,0.20472563803195953,0.03161265328526497
1740247380944562400,12.1975625,-2.5104024410247803,0.19705307483673096,-0.048802297562360764
1740247380954543400,12.20754345703125,-2.158200740814209,0.1914021074771881,-0.17768961191177368
1740247380964525600,12.217525634765625,-1.7628757953643799,0.1513497531414032,-0.33892300724983215
1740247380974506500,12.227506591796875,-1.3352378606796265,0.07678091526031494,-0.5018834471702576
1740247380984487400,12.2374873046875,-0.8888558149337769,-0.01207651849836111,-0.650996208190918
1740247380994469400,12.247469482421875,-0.40944454073905945,-0.20673488080501556,-0.7598342299461365
1740247381004450300,12.2574501953125,0.09775501489639282,-0.5428372621536255,-0.8496139049530029
1740247381014432500,12.2674326171875,0.5857638120651245,-0.8766797184944153,-0.9136816263198853
1740247381024413400,12.277413330078126,1.008792757987976,-1.0390233993530273,-0.9795831441879272
1740247381034395400,12.2873955078125,1.3415418863296509,-1.028359055519104,-1.0554516315460205
1740247381044376300,12.297376220703125,1.6077901124954224,-0.9534280896186829,-1.1225297451019287
1740247381054358500,12.307358642578125,1.8253719806671143,-0.827987790107727,-1.143790364265442
1740247381064339500,12.31733935546875,2.0010390281677246,-0.6470379829406738,-1.0902022123336792
1740247381074321400,12.3273212890625,2.134838581085205,-0.41625431180000305,-0.9567563533782959
1740247381084302300,12.33730224609375,2.234408140182495,-0.14257080852985382,-0.7688687443733215
1740247381094284500,12.347284423828125,2.3367044925689697,0.11290454864501953,-0.5486550331115723
1740247381104265500,12.357265380859374,2.493065357208252,0.2840177118778229,-0.30462291836738586
1740247381114247400,12.367247314453126,2.7151474952697754,0.30529463291168213,-0.053407084196805954
1740247381124228400,12.377228271484375,2.975680351257324,0.19863155484199524,0.18564385175704956
1740247381134210300,12.387210205078125,3.2296998500823975,0.01405697874724865,0.39744052290916443
1740247381144191500,12.39719140625,3.433356761932373,-0.1514510214328766,0.580174446105957
1740247381154173400,12.40717333984375,3.562950849533081,-0.2429913580417633,0.7293529510498047
1740247381164154600,12.417154541015625,3.6321210861206055,-0.26299676299095154,0.8422176837921143
1740247381174136300,12.42713623046875,3.6826210021972656,-0.2330578714609146,0.9246754050254822
1740247381184117200,12.4371171875,3.74521541595459,-0.21502479910850525,0.97990882396698
1740247381194099500,12.447099365234376,3.8200292587280273,-0.21586832404136658,1.0143762826919556
1740247381204080400,12.457080322265625,3.90301513671875,-0.2217283397912979,1.038918375968933
1740247381214062300,12.467062255859375,3.969545602798462,-0.21554125845432281,1.0535482168197632
1740247381224043300,12.477043212890624,4.01680326461792,-0.19993087649345398,1.0641140937805176
1740247381234025500,12.487025390625,4.035317897796631,-0.17815616726875305,1.0620181560516357
1740247381244006400,12.49700634765625,4.032626628875732,-0.14405491948127747,1.06003999710083
1740247381253988600,12.506988525390625,4.021546363830566,-0.10285312682390213,1.0506060123443604
1740247381263969500,12.516969482421874,4.01731014251709,-0.06808502972126007,1.0441057682037354
1740247381273951500,12.526951416015624,4.012209892272949,-0.0273263119161129,1.035155177116394
1740247381283933400,12.536933349609376,4.0166096687316895,0.03091861680150032,1.0159803628921509
1740247381293914400,12.546914306640625,4.0156941413879395,0.10839433968067169,0.9803638458251953
1740247381303896300,12.556896240234375,4.004943370819092,0.188114732503891,0.9419243335723877
1740247381313877200,12.566877197265624,3.971709728240967,0.25745800137519836,0.8950243592262268
1740247381323859500,12.576859375,3.9131922721862793,0.3148406147956848,0.8540161848068237
1740247381333840400,12.58684033203125,3.8353304862976074,0.39570775628089905,0.8158477544784546
1740247381343822600,12.596822509765625,3.73828125,0.49437013268470764,0.7898752689361572
1740247381353803500,12.606803466796874,3.643308639526367,0.5647903680801392,0.7863937616348267
1740247381363785500,12.616785400390626,3.543640613555908,0.598795473575592,0.8003007769584656
1740247381373766400,12.626766357421875,3.437223434448242,0.6238147020339966,0.8190757632255554
