time,seconds_elapsed,z,y,x
1740246553183588600,0.031588623046875,-0.98553466796875,-0.301727294921875,0.2093505859375
1740246553193570300,0.0415703125,-0.9702606201171875,-0.3015289306640625,0.2159423828125
1740246553203552500,0.051552490234375,-0.9741973876953125,-0.3114166259765625,0.2466278076171875
1740246553213534500,0.061534423828125,-0.92657470703125,-0.2633819580078125,0.324432373046875
1740246553223516400,0.071516357421875,-0.8235015869140625,-0.1874237060546875,0.36285400390625
1740246553233498600,0.08149853515625,-0.702728271484375,-0.245025634765625,0.3653106689453125
1740246553243480300,0.091480224609375,-0.5767059326171875,-0.297271728515625,0.3630828857421875
1740246553253462500,0.101462646484375,-0.5260467529296875,-0.3437957763671875,0.33709716796875
1740246553263444500,0.111444580078125,-0.5351715087890625,-0.3773040771484375,0.314697265625
1740246553273426400,0.121426513671875,-0.6453399658203125,-0.417694091796875,0.2689971923828125
1740246553283408400,0.131408447265625,-0.8065338134765625,-0.4954071044921875,0.19342041015625
1740246553293390600,0.141390625,-0.9142913818359375,-0.555419921875,0.1629791259765625
1740246553303372300,0.151372314453125,-0.9648284912109375,-0.5502166748046875,0.162322998046875
1740246553313354500,0.1613544921875,-0.9346771240234375,-0.482574462890625,0.1818389892578125
1740246553323336400,0.17133642578125,-0.8842010498046875,-0.3930511474609375,0.1956787109375
1740246553333318400,0.181318359375,-0.8292083740234375,-0.34490966796875,0.1685333251953125
1740246553343300600,0.191300537109375,-0.7411956787109375,-0.338897705078125,0.188323974609375
1740246553353282600,0.201282470703125,-0.6718292236328125,-0.3370819091796875,0.253448486328125
1740246553363264500,0.211264404296875,-0.64202880859375,-0.3484649658203125,0.3460235595703125
1740246553373246500,0.22124658203125,-0.69403076171875,-0.3787841796875,0.38330078125
1740246553383228400,0.231228515625,-0.7789764404296875,-0.4117279052734375,0.339202880859375
1740246553393210400,0.24121044921875,-0.808624267578125,-0.46942138671875,0.356689453125
1740246553403192600,0.251192626953125,-0.8765411376953125,-0.5082550048828125,0.220672607421875
1740246553413174300,0.26117431640625,-0.8631134033203125,-0.5435943603515625,0.16845703125
1740246553423156500,0.271156494140625,-0.8770904541015625,-0.5560150146484375,0.2211456298828125
1740246553433138400,0.281138427734375,-0.8311614990234375,-0.4820404052734375,0.2070159912109375
1740246553443120400,0.291120361328125,-0.789306640625,-0.3290863037109375,0.139678955078125
1740246553453102300,0.301102294921875,-0.8521881103515625,-0.2526092529296875,-0.04925537109375
1740246553463084500,0.31108447265625,-0.8472747802734375,-0.3333740234375,0.0578155517578125
1740246553473066500,0.32106640625,-0.9387664794921875,-0.4281463623046875,0.161285400390625
1740246553483048400,0.33104833984375,-1.039031982421875,-0.4827117919921875,0.2265777587890625
1740246553493030700,0.34103076171875,-1.1254119873046875,-0.4749298095703125,0.37799072265625
1740246553503012400,0.351012451171875,-1.176849365234375,-0.3621826171875,0.5343017578125
1740246553512994600,0.36099462890625,-1.2083892822265625,-0.2530670166015625,0.5949859619140625
1740246553522976500,0.3709765625,-1.26513671875,-0.20965576171875,0.5367279052734375
1740246553532958500,0.38095849609375,-1.290740966796875,-0.2233734130859375,0.40960693359375
1740246553542940400,0.3909404296875,-1.2523345947265625,-0.2430267333984375,0.280242919921875
1740246553552923000,0.4009228515625,-1.197113037109375,-0.260650634765625,0.212066650390625
1740246553562905000,0.410905029296875,-1.1622772216796875,-0.2596282958984375,0.2039031982421875
1740246553572887000,0.420886962890625,-1.12786865234375,-0.2376708984375,0.248687744140625
1740246553582869000,0.430868896484375,-1.085357666015625,-0.2235565185546875,0.2806854248046875
1740246553592851000,0.440850830078125,-1.0229949951171875,-0.2369384765625,0.2821502685546875
1740246553602833200,0.450833251953125,-0.9568939208984375,-0.2555389404296875,0.2646636962890625
1740246553612814800,0.46081494140625,-0.896453857421875,-0.2519989013671875,0.25018310546875
1740246553622797000,0.470797119140625,-0.8376617431640625,-0.2433013916015625,0.2509307861328125
1740246553632779000,0.480779052734375,-0.7867889404296875,-0.2686767578125,0.248931884765625
1740246553642761000,0.490760986328125,-0.744903564453125,-0.292510986328125,0.2787628173828125
1740246553652743000,0.500742919921875,-0.7027130126953125,-0.29559326171875,0.2686309814453125
1740246553662724900,0.510724853515625,-0.66864013671875,-0.2894439697265625,0.239044189453125
1740246553672707000,0.52070703125,-0.660186767578125,-0.2734375,0.20330810546875
1740246553682689000,0.53068896484375,-0.6626129150390625,-0.2509613037109375,0.1427459716796875
1740246553692671000,0.5406708984375,-0.6884765625,-0.2361907958984375,0.048797607421875
1740246553702653000,0.55065283203125,-0.727691650390625,-0.246826171875,-0.036346435546875
1740246553712635100,0.56063525390625,-0.7501220703125,-0.2681732177734375,-0.0855560302734375
1740246553722616800,0.570616943359375,-0.734130859375,-0.2999114990234375,-0.040679931640625
1740246553732599000,0.58059912109375,-0.7114410400390625,-0.28436279296875,0.0679931640625
1740246553742581000,0.5905810546875,-0.6884307861328125,-0.196197509765625,0.20697021484375
1740246553752563000,0.60056298828125,-0.6411285400390625,-0.1734161376953125,0.1801605224609375
1740246553762545000,0.610544921875,-0.62213134765625,-0.2115020751953125,0.1343536376953125
1740246553772527000,0.620527099609375,-0.58935546875,-0.2387847900390625,0.012542724609375
1740246553782508800,0.6305087890625,-0.5893096923828125,-0.2796478271484375,-0.042083740234375
1740246553792491000,0.640490966796875,-0.65362548828125,-0.316009521484375,0.0145111083984375
1740246553802473000,0.650472900390625,-0.7151641845703125,-0.3647613525390625,0.066680908203125
1740246553812455000,0.660454833984375,-0.773406982421875,-0.416534423828125,0.1236419677734375
1740246553822437000,0.67043701171875,-0.8115081787109375,-0.4674530029296875,0.140716552734375
1740246553832418800,0.680418701171875,-0.8210906982421875,-0.513641357421875,0.1190032958984375
1740246553842401000,0.690401123046875,-0.7946929931640625,-0.567657470703125,0.086517333984375
1740246553852383000,0.700383056640625,-0.74822998046875,-0.640167236328125,0.00531005859375
1740246553862365000,0.710364990234375,-0.7276763916015625,-0.71954345703125,-0.0612945556640625
1740246553872347000,0.720346923828125,-0.7468719482421875,-0.7867584228515625,-0.0541839599609375
1740246553882329000,0.7303291015625,-0.796173095703125,-0.8119049072265625,0.0046234130859375
1740246553892310800,0.740310791015625,-0.8365631103515625,-0.79290771484375,0.0551910400390625
1740246553902293000,0.75029296875,-0.8440704345703125,-0.7299957275390625,0.09814453125
1740246553912275200,0.760275146484375,-0.8107757568359375,-0.6115570068359375,0.1615447998046875
1740246553922257000,0.7702568359375,-0.7061920166015625,-0.4541168212890625,0.21673583984375
1740246553932239000,0.780239013671875,-0.660888671875,-0.38824462890625,0.2738494873046875
1740246553942220800,0.790220703125,-0.7624969482421875,-0.4733428955078125,0.3007049560546875
1740246553952203000,0.800203125,-0.8554229736328125,-0.497802734375,0.314971923828125
1740246553962185000,0.81018505859375,-0.89703369140625,-0.513641357421875,0.3504180908203125
1740246553972167000,0.8201669921875,-0.8629150390625,-0.4816436767578125,0.3185272216796875
1740246553982148900,0.83014892578125,-0.8140411376953125,-0.405548095703125,0.269744873046875
1740246553992131000,0.840131103515625,-0.76446533203125,-0.3472747802734375,0.268707275390625
1740246554002112800,0.85011279296875,-0.7041015625,-0.3402252197265625,0.3322296142578125
1740246554012095000,0.860094970703125,-0.6475982666015625,-0.3687744140625,0.41552734375
1740246554022078000,0.870077880859375,-0.602386474609375,-0.3708343505859375,0.4494781494140625
1740246554032060000,0.880059814453125,-0.5825958251953125,-0.302337646484375,0.4460906982421875
1740246554042041000,0.890041015625,-0.6045379638671875,-0.1804351806640625,0.437469482421875
1740246554052023800,0.90002392578125,-0.6065521240234375,-0.0557098388671875,0.4169921875
1740246554062006000,0.910006103515625,-0.6010894775390625,0.0470733642578125,0.4347991943359375
1740246554071988000,0.919988037109375,-0.6142120361328125,0.1677093505859375,0.4886474609375
1740246554081970000,0.929969970703125,-0.641754150390625,0.2539825439453125,0.5145721435546875
1740246554091951900,0.939951904296875,-0.6463623046875,0.1847991943359375,0.5868377685546875
1740246554101934000,0.94993408203125,-0.6027069091796875,0.14178466796875,0.6378936767578125
1740246554111916000,0.959916015625,-0.574462890625,0.1832122802734375,0.66900634765625
1740246554121898000,0.96989794921875,-0.553680419921875,0.3058624267578125,0.7873077392578125
1740246554131880000,0.9798798828125,-0.427703857421875,0.437408447265625,0.7987518310546875
1740246554141862000,0.98986181640625,-0.4355010986328125,0.4849700927734375,0.7433929443359375
1740246554151844000,0.999843994140625,-0.55828857421875,0.4876708984375,0.7345123291015625
1740246554161825800,1.00982568359375,-0.77435302734375,0.434783935546875,0.6540679931640625
1740246554171808000,1.01980810546875,-0.96600341796875,0.40106201171875,0.557342529296875
1740246554181790000,1.0297900390625,-1.0854339599609375,0.4105987548828125,0.5014801025390625
1740246554191772000,1.03977197265625,-1.142822265625,0.3947296142578125,0.52679443359375
1740246554201753900,1.04975390625,-1.1161346435546875,0.3565673828125,0.6001129150390625
1740246554211736000,1.059736083984375,-1.0442352294921875,0.3263702392578125,0.6829071044921875
1740246554221718000,1.069718017578125,-0.9712066650390625,0.310821533203125,0.7520599365234375
1740246554231700000,1.079699951171875,-0.87481689453125,0.3037872314453125,0.7918243408203125
1740246554241682200,1.08968212890625,-0.7658843994140625,0.2971649169921875,0.7416839599609375
1740246554251664000,1.099663818359375,-0.6729583740234375,0.2403411865234375,0.7209930419921875
1740246554261646000,1.10964599609375,-0.6103363037109375,0.17120361328125,0.7589263916015625
1740246554271627800,1.119627685546875,-0.5539703369140625,0.165863037109375,0.7433624267578125
1740246554281610000,1.12960986328125,-0.5099639892578125,0.1734771728515625,0.7346954345703125
1740246554291592000,1.139592041015625,-0.5212554931640625,0.1511688232421875,0.7972259521484375
1740246554301574000,1.149573974609375,-0.61334228515625,0.1597900390625,0.8497467041015625
1740246554311555800,1.159555908203125,-0.6779327392578125,0.24945068359375,0.8193511962890625
1740246554321538000,1.1695380859375,-0.653228759765625,0.2598419189453125,0.93218994140625
1740246554331520000,1.17952001953125,-0.5707550048828125,0.2622528076171875,0.9925079345703125
1740246554341502000,1.189501953125,-0.459991455078125,0.284423828125,0.9763946533203125
1740246554351484200,1.199484130859375,-0.3566436767578125,0.2897186279296875,0.9594879150390625
1740246554361465900,1.2094658203125,-0.24285888671875,0.2878875732421875,0.94879150390625
1740246554371448000,1.219447998046875,-0.116973876953125,0.3063507080078125,0.9644012451171875
1740246554381430000,1.229429931640625,-0.1520843505859375,0.3952178955078125,1.0589752197265625
1740246554391412000,1.239411865234375,-0.2329254150390625,0.4803466796875,1.1638336181640625
1740246554401394000,1.249393798828125,-0.3491973876953125,0.4889984130859375,1.2938232421875
1740246554411375900,1.2593759765625,-0.444091796875,0.4937286376953125,1.4351806640625
1740246554421357800,1.26935791015625,-0.448272705078125,0.5472564697265625,1.563995361328125
1740246554431340000,1.279340087890625,-0.3770294189453125,0.6071014404296875,1.6038665771484375
1740246554441321700,1.28932177734375,-0.2618865966796875,0.6497039794921875,1.5346221923828125
1740246554451304000,1.299303955078125,-0.1387786865234375,0.721832275390625,1.470001220703125
1740246554461286100,1.3092861328125,-0.099212646484375,0.8075714111328125,1.4752349853515625
1740246554471267800,1.319267822265625,-0.130523681640625,0.827484130859375,1.520477294921875
1740246554481250000,1.32925,-0.1971282958984375,0.7817535400390625,1.586181640625
1740246554491232000,1.33923193359375,-0.2639312744140625,0.7037506103515625,1.59027099609375
1740246554501214000,1.3492138671875,-0.3159027099609375,0.5934295654296875,1.53973388671875
1740246554511196000,1.35919580078125,-0.3855743408203125,0.4654998779296875,1.49090576171875
1740246554521178000,1.36917822265625,-0.437286376953125,0.3511962890625,1.379913330078125
1740246554531159800,1.379159912109375,-0.467437744140625,0.28070068359375,1.23382568359375
1740246554541142000,1.38914208984375,-0.47113037109375,0.2633056640625,1.1209259033203125
1740246554551123500,1.39912353515625,-0.470001220703125,0.273529052734375,1.062530517578125
1740246554561105200,1.409105224609375,-0.48406982421875,0.2927703857421875,1.0537872314453125
1740246554571087400,1.41908740234375,-0.503143310546875,0.2996063232421875,1.078369140625
1740246554581069300,1.4290693359375,-0.50653076171875,0.291717529296875,1.1072845458984375
1740246554591051300,1.43905126953125,-0.483673095703125,0.2846832275390625,1.1506195068359375
1740246554601033200,1.449033203125,-0.4558258056640625,0.26947021484375,1.2505950927734375
1740246554611015400,1.459015380859375,-0.4385986328125,0.23211669921875,1.357269287109375
1740246554620997000,1.4689970703125,-0.415771484375,0.2035980224609375,1.4355316162109375
1740246554630979300,1.478979248046875,-0.366973876953125,0.1895294189453125,1.4674224853515625
1740246554640961500,1.48896142578125,-0.2987060546875,0.164306640625,1.43853759765625
1740246554650943200,1.498943115234375,-0.2255706787109375,0.1076507568359375,1.3490753173828125
1740246554660925400,1.508925537109375,-0.1554412841796875,0.039154052734375,1.225128173828125
1740246554670907100,1.5189072265625,-0.0809478759765625,-0.01708984375,1.0867462158203125
1740246554680889300,1.528889404296875,-0.0094146728515625,-0.05780029296875,0.948577880859375
1740246554690871300,1.538871337890625,0.043487548828125,-0.093109130859375,0.832366943359375
1740246554700854300,1.548854248046875,0.058868408203125,-0.12548828125,0.7642974853515625
1740246554710836500,1.55883642578125,0.0544281005859375,-0.1502685546875,0.727783203125
1740246554720818200,1.568818115234375,0.0415191650390625,-0.1683349609375,0.7137908935546875
1740246554730800400,1.57880029296875,0.031646728515625,-0.1678314208984375,0.7136688232421875
1740246554740782300,1.5887822265625,0.02642822265625,-0.1556854248046875,0.7128143310546875
1740246554750764300,1.598764404296875,0.0198974609375,-0.14703369140625,0.6938934326171875
1740246554760746200,1.608746337890625,0.0169219970703125,-0.1400909423828125,0.644012451171875
1740246554770728400,1.618728515625,0.01470947265625,-0.1315460205078125,0.5764312744140625
1740246554780710100,1.628710205078125,0.00567626953125,-0.1235198974609375,0.51641845703125
1740246554790692400,1.6386923828125,-0.005584716796875,-0.10968017578125,0.476715087890625
1740246554800674300,1.64867431640625,-0.018035888671875,-0.097259521484375,0.478759765625
1740246554810656300,1.65865625,-0.027557373046875,-0.0814056396484375,0.521514892578125
1740246554820638200,1.66863818359375,-0.0236053466796875,-0.0446929931640625,0.55120849609375
1740246554830620400,1.678620361328125,-0.02459716796875,0.00823974609375,0.611724853515625
1740246554840602400,1.688602294921875,-0.052978515625,0.0620574951171875,0.6790618896484375
1740246554850584300,1.698584228515625,-0.08428955078125,0.084686279296875,0.7323455810546875
1740246554860566300,1.708566162109375,-0.1195220947265625,0.089599609375,0.7781829833984375
1740246554870548200,1.71854833984375,-0.13177490234375,0.1089630126953125,0.8213958740234375
1740246554880530400,1.728530517578125,-0.131988525390625,0.139892578125,0.9068756103515625
1740246554890512100,1.73851220703125,-0.1304779052734375,0.178436279296875,1.0297698974609375
1740246554900494300,1.748494384765625,-0.134857177734375,0.2223358154296875,1.152130126953125
1740246554910476300,1.758476318359375,-0.150482177734375,0.2752532958984375,1.2929534912109375
1740246554920458200,1.768458251953125,-0.1697998046875,0.31658935546875,1.442291259765625
1740246554930440200,1.778440185546875,-0.2039031982421875,0.312469482421875,1.5615234375
1740246554940422400,1.78842236328125,-0.251708984375,0.2756500244140625,1.68389892578125
1740246554950404400,1.798404296875,-0.2831268310546875,0.2710418701171875,1.8187713623046875
1740246554960386300,1.80838623046875,-0.287017822265625,0.329681396484375,1.988525390625
1740246554970368500,1.818368408203125,-0.27105712890625,0.4184417724609375,2.1616668701171875
1740246554980350200,1.82835009765625,-0.2441864013671875,0.4920196533203125,2.266693115234375
1740246554990332400,1.83833251953125,-0.2224273681640625,0.523773193359375,2.287445068359375
1740246555000314000,1.848314208984375,-0.211029052734375,0.50030517578125,2.2063751220703125
1740246555010296300,1.85829638671875,-0.215911865234375,0.4137725830078125,2.0362701416015625
1740246555020278300,1.8682783203125,-0.23284912109375,0.3079071044921875,1.8428497314453125
1740246555030260200,1.87826025390625,-0.2427825927734375,0.243560791015625,1.693328857421875
1740246555040242200,1.8882421875,-0.218048095703125,0.26025390625,1.6219940185546875
1740246555050224400,1.898224365234375,-0.1589813232421875,0.3509979248046875,1.63922119140625
1740246555060206300,1.908206298828125,-0.090240478515625,0.47076416015625,1.6901397705078125
1740246555070188300,1.918188232421875,-0.036468505859375,0.55633544921875,1.689056396484375
1740246555080170500,1.92817041015625,-0.0129547119140625,0.593170166015625,1.6412353515625
1740246555090152200,1.938152099609375,-0.0052490234375,0.610809326171875,1.589324951171875
1740246555100134400,1.948134521484375,0.001495361328125,0.6229400634765625,1.5423736572265625
1740246555110116400,1.958116455078125,0.0231170654296875,0.60003662109375,1.4712371826171875
1740246555120098300,1.968098388671875,0.058197021484375,0.5554962158203125,1.35821533203125
1740246555130080300,1.978080322265625,0.0829620361328125,0.500091552734375,1.2218017578125
1740246555140062200,1.988062255859375,0.0854644775390625,0.4439849853515625,1.1007843017578125
1740246555150044200,1.998044189453125,0.070526123046875,0.3871307373046875,1.005950927734375
1740246555160026400,2.0080263671875,0.046722412109375,0.3369598388671875,0.9226531982421875
1740246555170009300,2.01800927734375,0.01910400390625,0.2877044677734375,0.8522796630859375
1740246555179991300,2.0279912109375,-0.0324554443359375,0.2383270263671875,0.817169189453125
1740246555189973200,2.03797314453125,-0.077362060546875,0.2021942138671875,0.8128662109375
1740246555199955200,2.047955078125,-0.0904541015625,0.195159912109375,0.8175506591796875
1740246555209937400,2.0579375,-0.0819854736328125,0.2075347900390625,0.8236236572265625
1740246555219919000,2.067919189453125,-0.0727691650390625,0.2205047607421875,0.831024169921875
1740246555229901300,2.0779013671875,-0.06689453125,0.2357025146484375,0.8318023681640625
1740246555239883300,2.08788330078125,-0.069305419921875,0.2469482421875,0.8149566650390625
1740246555249865200,2.097865234375,-0.081817626953125,0.2598876953125,0.79669189453125
1740246555259847400,2.107847412109375,-0.1036529541015625,0.27154541015625,0.77099609375
1740246555269829400,2.117829345703125,-0.12628173828125,0.2772979736328125,0.7457733154296875
1740246555279811300,2.127811279296875,-0.13775634765625,0.279022216796875,0.72991943359375
1740246555289793300,2.137793212890625,-0.1355438232421875,0.2940521240234375,0.7371368408203125
1740246555299775500,2.147775390625,-0.112884521484375,0.32733154296875,0.744781494140625
1740246555309757200,2.157757080078125,-0.0866546630859375,0.3606414794921875,0.74200439453125
1740246555319739400,2.167739501953125,-0.0629730224609375,0.3821258544921875,0.72186279296875
1740246555329721000,2.17772119140625,-0.0418853759765625,0.3948516845703125,0.689605712890625
1740246555339703300,2.187703369140625,-0.0237884521484375,0.3963165283203125,0.6590423583984375
1740246555349685200,2.197685302734375,-0.0126495361328125,0.4034423828125,0.6351776123046875
1740246555359667200,2.207667236328125,-0.0018310546875,0.4229736328125,0.607452392578125
1740246555369649400,2.2176494140625,0.0068206787109375,0.4419708251953125,0.5883026123046875
1740246555379631400,2.22763134765625,0.0112457275390625,0.4564208984375,0.5773468017578125
1740246555389613300,2.23761328125,0.00469970703125,0.471923828125,0.5698394775390625
1740246555399595300,2.24759521484375,-0.0059814453125,0.4822235107421875,0.56536865234375
1740246555409577500,2.257577392578125,-0.01434326171875,0.492889404296875,0.5639190673828125
1740246555419559200,2.26755908203125,-0.022674560546875,0.5048675537109375,0.562164306640625
1740246555429541400,2.277541259765625,-0.029693603515625,0.5141143798828125,0.55792236328125
1740246555439523300,2.2875234375,-0.04315185546875,0.5155181884765625,0.5354156494140625
1740246555449505300,2.29750537109375,-0.05810546875,0.507415771484375,0.5072174072265625
1740246555459487200,2.3074873046875,-0.0672149658203125,0.50958251953125,0.494171142578125
1740246555469469200,2.31746923828125,-0.0579071044921875,0.540557861328125,0.4990692138671875
1740246555479451100,2.327451171875,-0.0251007080078125,0.5873870849609375,0.517242431640625
1740246555489433300,2.337433349609375,0.009765625,0.625274658203125,0.5356292724609375
1740246555499415300,2.347415283203125,0.04107666015625,0.64337158203125,0.539794921875
1740246555509397200,2.357397216796875,0.077056884765625,0.63275146484375,0.5398101806640625
1740246555519379500,2.36737939453125,0.10626220703125,0.5861663818359375,0.5369873046875
1740246555529361200,2.377361083984375,0.11639404296875,0.524566650390625,0.535980224609375
1740246555539343400,2.38734326171875,0.117919921875,0.4743804931640625,0.5542755126953125
1740246555549325800,2.397325927734375,0.1132965087890625,0.4450836181640625,0.6163787841796875
1740246555559307800,2.407307861328125,0.132110595703125,0.44970703125,0.7016143798828125
1740246555569289700,2.417289794921875,0.162384033203125,0.4851837158203125,0.8166046142578125
1740246555579272700,2.427272705078125,0.203857421875,0.55126953125,0.9615020751953125
1740246555589255000,2.4372548828125,0.2194366455078125,0.62603759765625,1.079376220703125
1740246555599236600,2.447236572265625,0.2077484130859375,0.6865386962890625,1.18682861328125
1740246555609218800,2.45721875,0.1989593505859375,0.754425048828125,1.3137359619140625
1740246555619200800,2.46720068359375,0.1776580810546875,0.8321380615234375,1.4253082275390625
1740246555629182700,2.4771826171875,0.1108245849609375,0.88690185546875,1.5793914794921875
1740246555639164700,2.48716455078125,0.0119476318359375,0.8919830322265625,1.7762451171875
1740246555649147000,2.49714697265625,-0.0707244873046875,0.8426513671875,1.9752349853515625
1740246555659128800,2.50712890625,-0.127288818359375,0.7494354248046875,2.161834716796875
1740246555669110800,2.51711083984375,-0.184173583984375,0.6558380126953125,2.28326416015625
1740246555679093000,2.527093017578125,-0.2394561767578125,0.5536041259765625,2.3339080810546875
1740246555689074700,2.53707470703125,-0.2673492431640625,0.432586669921875,2.3048248291015625
1740246555699057000,2.547056884765625,-0.2584075927734375,0.304962158203125,2.2000885009765625
1740246555709038800,2.557038818359375,-0.21942138671875,0.1920013427734375,2.0450897216796875
1740246555719020800,2.567020751953125,-0.1833343505859375,0.1029510498046875,1.8845062255859375
1740246555729002800,2.577002685546875,-0.15625,0.0313720703125,1.739013671875
1740246555738984700,2.586984619140625,-0.1327056884765625,-0.0349884033203125,1.6262664794921875
1740246555748966700,2.596966552734375,-0.1197662353515625,-0.0790557861328125,1.5369720458984375
1740246555758948900,2.606948974609375,-0.1066131591796875,-0.0932159423828125,1.4375762939453125
1740246555768930800,2.616930908203125,-0.1024017333984375,-0.083892822265625,1.332794189453125
1740246555778912800,2.626912841796875,-0.1142425537109375,-0.0668182373046875,1.2237701416015625
1740246555788895000,2.63689501953125,-0.117919921875,-0.043426513671875,1.119110107421875
1740246555798876700,2.646876708984375,-0.127899169921875,-0.0176544189453125,1.03729248046875
1740246555808859000,2.65685888671875,-0.1423492431640625,0.0011749267578125,0.9868316650390625
1740246555818840800,2.6668408203125,-0.1569976806640625,0.0176544189453125,0.969390869140625
1740246555828822800,2.67682275390625,-0.1666717529296875,0.025360107421875,0.9677734375
1740246555838804700,2.6868046875,-0.155487060546875,0.01605224609375,0.9638214111328125
1740246555848787000,2.696786865234375,-0.141082763671875,0.005615234375,0.9770965576171875
1740246555858768600,2.7067685546875,-0.1227569580078125,-0.0005950927734375,0.9584808349609375
1740246555868750800,2.716750732421875,-0.097747802734375,-0.0023345947265625,0.9135894775390625
1740246555878732800,2.72673291015625,-0.0721282958984375,0.0060882568359375,0.872528076171875
1740246555888714800,2.73671484375,-0.0560455322265625,0.016510009765625,0.8567962646484375
1740246555898697000,2.746697021484375,-0.053009033203125,0.0177154541015625,0.8554229736328125
1740246555908678700,2.7566787109375,-0.0726318359375,0.013153076171875,0.9085235595703125
1740246555918660900,2.766660888671875,-0.10162353515625,0.0137176513671875,1.001068115234375
1740246555928642800,2.776642822265625,-0.1107177734375,0.0066680908203125,1.119110107421875
1740246555938624800,2.786624755859375,-0.1168365478515625,-0.02178955078125,1.2522430419921875
1740246555948607700,2.796607666015625,-0.1328125,-0.0717620849609375,1.3492431640625
1740246555958589000,2.8065888671875,-0.146331787109375,-0.1325836181640625,1.4302978515625
1740246555968572000,2.816572021484375,-0.153564453125,-0.200439453125,1.51837158203125
1740246555978553900,2.826553955078125,-0.1583251953125,-0.2723236083984375,1.593658447265625
1740246555988535800,2.836535888671875,-0.1584930419921875,-0.3330535888671875,1.69305419921875
1740246555998517800,2.846517822265625,-0.11578369140625,-0.363372802734375,1.80120849609375
1740246556008500000,2.8565,-0.0557861328125,-0.3271484375,1.9130401611328125
1740246556018481700,2.866481689453125,-0.0163421630859375,-0.2309417724609375,2.0245361328125
1740246556028463900,2.8764638671875,-0.0018768310546875,-0.125,2.0948333740234375
1740246556038445800,2.88644580078125,-0.0181732177734375,-0.0492401123046875,2.1415557861328125
1740246556048427800,2.896427734375,-0.0794677734375,-0.0139312744140625,2.1765594482421875
1740246556058409700,2.90640966796875,-0.14801025390625,-0.016693115234375,2.187164306640625
1740246556068391700,2.9163916015625,-0.1705474853515625,-0.0270538330078125,2.149444580078125
1740246556078374000,2.926373779296875,-0.1343231201171875,-0.0035247802734375,2.0917510986328125
1740246556088355800,2.93635595703125,-0.07464599609375,0.065216064453125,2.07421875
1740246556098337800,2.946337890625,-0.024871826171875,0.1806182861328125,2.093719482421875
1740246556108319700,2.95631982421875,0.010162353515625,0.3265228271484375,2.0699615478515625
1740246556118302000,2.966302001953125,0.0171661376953125,0.4566192626953125,2.0099029541015625
1740246556128283600,2.97628369140625,-0.012359619140625,0.548919677734375,1.945281982421875
1740246556138265900,2.986265869140625,-0.0552978515625,0.615081787109375,1.8899688720703125
1740246556148247800,2.996247802734375,-0.1021881103515625,0.668548583984375,1.851715087890625
1740246556158229800,3.006229736328125,-0.1421356201171875,0.7084503173828125,1.8199005126953125
1740246556168211700,3.016211669921875,-0.1700286865234375,0.7298583984375,1.7991790771484375
1740246556178194000,3.02619384765625,-0.183197021484375,0.7494659423828125,1.8057403564453125
1740246556188176000,3.03617578125,-0.1661529541015625,0.7845611572265625,1.828155517578125
1740246556198157800,3.04615771484375,-0.1331329345703125,0.8079986572265625,1.821136474609375
1740246556208139800,3.056139892578125,-0.10498046875,0.7977294921875,1.7617950439453125
1740246556218121700,3.066121826171875,-0.0921478271484375,0.766937255859375,1.6920928955078125
1740246556228104000,3.07610400390625,-0.0742340087890625,0.7354583740234375,1.619384765625
1740246556238085600,3.086085693359375,-0.0500335693359375,0.7060699462890625,1.5517578125
1740246556248067800,3.09606787109375,-0.0369720458984375,0.6824798583984375,1.494415283203125
1740246556258049800,3.1060498046875,-0.0375823974609375,0.660186767578125,1.441558837890625
1740246556268031700,3.11603173828125,-0.045623779296875,0.639984130859375,1.40338134765625
1740246556278013700,3.126013671875,-0.0632171630859375,0.629608154296875,1.395965576171875
1740246556287996700,3.13599658203125,-0.0886993408203125,0.6309051513671875,1.3928375244140625
1740246556297979000,3.145978759765625,-0.110321044921875,0.6327362060546875,1.380157470703125
1740246556307960800,3.1559609375,-0.1302032470703125,0.6345672607421875,1.3610382080078125
1740246556317942800,3.16594287109375,-0.157318115234375,0.6378936767578125,1.33941650390625
1740246556327924700,3.1759248046875,-0.1807708740234375,0.63970947265625,1.3028411865234375
1740246556337907000,3.185906982421875,-0.2010650634765625,0.6373138427734375,1.261810302734375
1740246556347888600,3.195888671875,-0.2134246826171875,0.631317138671875,1.2135009765625
1740246556357870800,3.205870849609375,-0.21435546875,0.6189727783203125,1.1644287109375
1740246556367852800,3.215852783203125,-0.209503173828125,0.61053466796875,1.1231689453125
1740246556377834800,3.225834716796875,-0.199615478515625,0.61761474609375,1.085357666015625
1740246556387817000,3.23581689453125,-0.1866455078125,0.6403961181640625,1.0239715576171875
1740246556397798700,3.245798583984375,-0.1724853515625,0.65350341796875,0.973724365234375
1740246556407780900,3.25578076171875,-0.155242919921875,0.66790771484375,0.9674530029296875
1740246556417762800,3.2657626953125,-0.1345367431640625,0.7122039794921875,0.9845733642578125
1740246556427744800,3.275744873046875,-0.1126556396484375,0.7689666748046875,0.977020263671875
1740246556437726700,3.285726806640625,-0.101318359375,0.7977447509765625,0.91644287109375
1740246556447709000,3.295708984375,-0.09197998046875,0.7941131591796875,0.829742431640625
1740246556457690600,3.305690673828125,-0.0803070068359375,0.7830047607421875,0.74993896484375
1740246556467672800,3.3156728515625,-0.05926513671875,0.7714691162109375,0.6743621826171875
1740246556477654800,3.32565478515625,-0.0347137451171875,0.749847412109375,0.6081085205078125
1740246556487636700,3.33563671875,-0.0153656005859375,0.724639892578125,0.548187255859375
1740246556497619000,3.345618896484375,-0.005889892578125,0.6961212158203125,0.4936981201171875
1740246556507601000,3.355600830078125,0.0046234130859375,0.6805877685546875,0.44671630859375
1740246556517582800,3.365582763671875,0.0341644287109375,0.707550048828125,0.412261962890625
1740246556527564800,3.375564697265625,0.0677642822265625,0.7574920654296875,0.394927978515625
1740246556537546800,3.385546630859375,0.09356689453125,0.8008575439453125,0.37152099609375
1740246556547528700,3.39552880859375,0.1084136962890625,0.8249969482421875,0.363311767578125
1740246556557510700,3.4055107421875,0.1067657470703125,0.8212432861328125,0.3554840087890625
1740246556567492600,3.41549267578125,0.0963592529296875,0.76971435546875,0.3062744140625
1740246556577474600,3.425474609375,0.0829620361328125,0.686279296875,0.2255401611328125
1740246556587457500,3.43545751953125,0.0687713623046875,0.602630615234375,0.1603851318359375
1740246556597439500,3.445439453125,0.055267333984375,0.55389404296875,0.136688232421875
1740246556607421700,3.455421630859375,0.0306854248046875,0.527923583984375,0.154327392578125
1740246556617403400,3.4654033203125,0.0158538818359375,0.5145111083984375,0.2354278564453125
1740246556627385600,3.475385498046875,0.016876220703125,0.519775390625,0.34686279296875
1740246556637367600,3.485367431640625,0.021759033203125,0.5350799560546875,0.46929931640625
1740246556647349500,3.495349609375,0.0390625,0.547576904296875,0.60858154296875
1740246556657331500,3.50533154296875,0.0741424560546875,0.565673828125,0.75848388671875
1740246556667313700,3.515313720703125,0.1137237548828125,0.6044921875,0.841888427734375
1740246556677295400,3.52529541015625,0.14288330078125,0.6514129638671875,0.8914031982421875
1740246556687277600,3.535277587890625,0.163360595703125,0.68499755859375,0.920166015625
1740246556697259800,3.545259765625,0.160919189453125,0.6877288818359375,0.96343994140625
1740246556707241500,3.555241455078125,0.174774169921875,0.695281982421875,1.0704193115234375
1740246556717223700,3.5652236328125,0.213623046875,0.740020751953125,1.2264556884765625
1740246556727205600,3.57520556640625,0.234619140625,0.785888671875,1.42926025390625
1740246556737187600,3.5851875,0.2239532470703125,0.802490234375,1.6054534912109375
1740246556747169500,3.59516943359375,0.182037353515625,0.798614501953125,1.72222900390625
1740246556757151500,3.6051513671875,0.1317901611328125,0.7740478515625,1.8082733154296875
1740246556767133400,3.615133544921875,0.093109130859375,0.7523651123046875,1.8637847900390625
1740246556777115600,3.62511572265625,0.05322265625,0.7324371337890625,1.8971099853515625
1740246556787097300,3.635097412109375,0.0047607421875,0.6819305419921875,1.9282684326171875
1740246556797079600,3.64507958984375,-0.024078369140625,0.6103668212890625,1.921630859375
1740246556807061500,3.6550615234375,-0.0507049560546875,0.5490570068359375,1.8968505859375
1740246556817043500,3.66504345703125,-0.093292236328125,0.504913330078125,1.904998779296875
1740246556827025700,3.675025634765625,-0.15386962890625,0.4400482177734375,1.938201904296875
1740246556837007600,3.685007568359375,-0.203765869140625,0.3536529541015625,1.9584808349609375
1740246556846989600,3.694989501953125,-0.23712158203125,0.2674713134765625,1.95269775390625
1740246556856971500,3.704971435546875,-0.25830078125,0.1909332275390625,1.928466796875
1740246556866953700,3.71495361328125,-0.2725982666015625,0.1353607177734375,1.9128265380859375
1740246556876935400,3.724935302734375,-0.2718353271484375,0.1106414794921875,1.9228515625
1740246556886918700,3.734918701171875,-0.26361083984375,0.106597900390625,1.9214324951171875
1740246556896900600,3.744900634765625,-0.2620391845703125,0.095123291015625,1.87786865234375
1740246556906882600,3.754882568359375,-0.2759857177734375,0.0822601318359375,1.8224639892578125
1740246556916864500,3.764864501953125,-0.2891998291015625,0.0716705322265625,1.7793731689453125
1740246556926846500,3.774846435546875,-0.299835205078125,0.0670166015625,1.744537353515625
1740246556936828700,3.78482861328125,-0.3058319091796875,0.0608673095703125,1.73828125
1740246556946810400,3.794810302734375,-0.3106689453125,0.0450897216796875,1.7296600341796875
1740246556956792600,3.80479248046875,-0.31512451171875,0.02069091796875,1.7059173583984375
1740246556966774500,3.8147744140625,-0.3047027587890625,0.0026397705078125,1.6920013427734375
1740246556976756500,3.824756591796875,-0.285125732421875,-0.015960693359375,1.6884002685546875
1740246556986738400,3.834738525390625,-0.2589569091796875,-0.05194091796875,1.68170166015625
1740246556996720600,3.844720703125,-0.2137298583984375,-0.0948486328125,1.6550140380859375
1740246557006703600,3.85470361328125,-0.157623291015625,-0.1360931396484375,1.6176910400390625
1740246557016685600,3.864685546875,-0.115447998046875,-0.1863861083984375,1.5959320068359375
1740246557026667500,3.87466748046875,-0.0767974853515625,-0.230682373046875,1.56781005859375
1740246557036649500,3.8846494140625,-0.218597412109375,-0.303558349609375,1.7786407470703125
1740246557046631700,3.894631591796875,-0.933502197265625,-0.578582763671875,2.6972808837890625
1740246557056613400,3.90461328125,-0.8902130126953125,-0.5205841064453125,1.9730072021484375
1740246557066595600,3.914595703125,-0.2412109375,-0.384124755859375,0.9627532958984375
1740246557076577500,3.92457763671875,0.1114349365234375,-0.3126220703125,1.081390380859375
1740246557086559500,3.9345595703125,0.002471923828125,-0.3180084228515625,1.5967864990234375
1740246557096541700,3.944541748046875,-0.1458892822265625,-0.260284423828125,1.886505126953125
1740246557106523400,3.9545234375,-0.2069244384765625,-0.231536865234375,2.01007080078125
1740246557116505600,3.964505615234375,-0.1902008056640625,-0.2675628662109375,2.0390625
1740246557126487600,3.974487548828125,-0.1600189208984375,-0.310089111328125,2.0288848876953125
1740246557136469500,3.984469482421875,-0.1453399658203125,-0.3462371826171875,1.996795654296875
1740246557146451500,3.994451416015625,-0.1532440185546875,-0.356170654296875,1.919647216796875
1740246557156433700,4.00443359375,-0.15380859375,-0.3243408203125,1.8232421875
1740246557166415400,4.014415283203125,-0.0950469970703125,-0.2097625732421875,1.79541015625
1740246557176397600,4.0243974609375,0.106292724609375,-0.048065185546875,1.808319091796875
1740246557186379500,4.034379638671875,0.2355804443359375,0.08917236328125,1.813079833984375
1740246557196361500,4.044361572265625,0.13702392578125,0.1552276611328125,1.8041534423828125
1740246557206343700,4.05434375,-0.000335693359375,0.193572998046875,1.8032684326171875
1740246557216325600,4.06432568359375,-0.0895233154296875,0.249786376953125,1.8397979736328125
1740246557226307600,4.0743076171875,-0.135711669921875,0.29425048828125,1.9256591796875
1740246557236289500,4.08428955078125,-0.16162109375,0.3640594482421875,1.9786834716796875
1740246557246272500,4.0942724609375,-0.1612396240234375,0.5036163330078125,2.0467376708984375
1740246557256254500,4.10425439453125,-0.13238525390625,0.6090240478515625,2.082061767578125
1740246557266236400,4.114236328125,-0.105682373046875,0.6754150390625,2.0661468505859375
1740246557276218600,4.124218505859375,-0.1006317138671875,0.7052001953125,1.992034912109375
1740246557286200600,4.13420068359375,-0.09893798828125,0.69781494140625,1.883453369140625
1740246557296182500,4.1441826171875,-0.0985870361328125,0.699066162109375,1.780242919921875
1740246557306164500,4.15416455078125,-0.0845947265625,0.7138671875,1.697662353515625
1740246557316146700,4.164146728515625,-0.06890869140625,0.729522705078125,1.6483306884765625
1740246557326128400,4.17412841796875,-0.0711669921875,0.735137939453125,1.6182708740234375
1740246557336110600,4.184110595703125,-0.092315673828125,0.7373809814453125,1.5971832275390625
1740246557346092500,4.194092529296875,-0.1228179931640625,0.748077392578125,1.57745361328125
1740246557356074500,4.204074462890625,-0.156524658203125,0.7660064697265625,1.553436279296875
1740246557366056400,4.214056396484375,-0.1897125244140625,0.7789764404296875,1.5179290771484375
1740246557376037600,4.22403759765625,-0.215850830078125,0.784393310546875,1.47027587890625
1740246557386019600,4.23401953125,-0.232177734375,0.78057861328125,1.4207916259765625
1740246557396001500,4.24400146484375,-0.238616943359375,0.7771148681640625,1.3886566162109375
1740246557405983500,4.2539833984375,-0.2330474853515625,0.7779693603515625,1.360595703125
1740246557415965400,4.26396533203125,-0.2174530029296875,0.7731781005859375,1.320159912109375
1740246557425948700,4.27394873046875,-0.1927032470703125,0.7640228271484375,1.2801055908203125
1740246557435930400,4.283930419921875,-0.16156005859375,0.7479400634765625,1.2251129150390625
1740246557445912600,4.29391259765625,-0.1342926025390625,0.7238616943359375,1.165313720703125
1740246557455894500,4.30389453125,-0.1138763427734375,0.6982421875,1.1079559326171875
1740246557465876500,4.31387646484375,-0.10107421875,0.6815032958984375,1.0694732666015625
1740246557475858400,4.3238583984375,-0.0936126708984375,0.6781158447265625,1.044952392578125
1740246557485840600,4.333840576171875,-0.0916748046875,0.6846160888671875,1.017852783203125
1740246557495822300,4.343822265625,-0.088470458984375,0.6925811767578125,0.9709014892578125
1740246557505804500,4.353804443359375,-0.0793304443359375,0.69451904296875,0.901763916015625
1740246557515786800,4.363786865234375,-0.0682525634765625,0.6866912841796875,0.8444061279296875
1740246557525768400,4.3737685546875,-0.0584259033203125,0.6741790771484375,0.7941131591796875
1740246557535750700,4.383750732421875,-0.0420074462890625,0.6604461669921875,0.7352142333984375
1740246557545732600,4.393732666015625,-0.012969970703125,0.649444580078125,0.6671905517578125
1740246557555714800,4.40371484375,0.01812744140625,0.631500244140625,0.5870208740234375
1740246557565697000,4.413697021484375,0.0441741943359375,0.606964111328125,0.5102386474609375
1740246557575678700,4.4236787109375,0.0673675537109375,0.595550537109375,0.473358154296875
1740246557585661000,4.433660888671875,0.0826873779296875,0.6142120361328125,0.4797821044921875
1740246557595643000,4.443642822265625,0.07977294921875,0.643646240234375,0.506072998046875
1740246557605624800,4.453624755859375,0.0684051513671875,0.6740570068359375,0.53472900390625
1740246557615607000,4.46360693359375,0.063720703125,0.698577880859375,0.5454559326171875
1740246557625589000,4.473589111328125,0.05126953125,0.6946868896484375,0.4870147705078125
1740246557635571000,4.483571044921875,0.0323944091796875,0.6336212158203125,0.37060546875
1740246557645553000,4.493552978515625,0.0247955322265625,0.54388427734375,0.258544921875
1740246557655535000,4.50353515625,0.0263671875,0.47021484375,0.19140625
1740246557665516800,4.513516845703125,0.04266357421875,0.4248809814453125,0.169586181640625
1740246557675500000,4.5235,0.0569915771484375,0.397796630859375,0.17523193359375
1740246557685482000,4.53348193359375,0.0538787841796875,0.4001007080078125,0.217193603515625
1740246557695464000,4.5434638671875,0.04827880859375,0.4250335693359375,0.3027191162109375
1740246557705446000,4.55344580078125,0.0343780517578125,0.45843505859375,0.4159088134765625
1740246557715427800,4.563427734375,0.0223388671875,0.4944915771484375,0.5108642578125
1740246557725410000,4.57341015625,0.0029449462890625,0.5251007080078125,0.6082763671875
1740246557735391700,4.583391845703125,0.0008087158203125,0.54290771484375,0.698516845703125
1740246557745374000,4.5933740234375,0.0252685546875,0.5728759765625,0.76153564453125
1740246557755356000,4.60335595703125,0.051055908203125,0.6005096435546875,0.8440399169921875
1740246557765337900,4.613337890625,0.0753936767578125,0.6194305419921875,0.9204254150390625
1740246557775319800,4.62331982421875,0.09637451171875,0.6281280517578125,1.0117645263671875
1740246557785302000,4.633302001953125,0.1144866943359375,0.6237945556640625,1.1477203369140625
1740246557795284000,4.643283935546875,0.1484832763671875,0.602386474609375,1.3148193359375
1740246557805266000,4.653265869140625,0.1937255859375,0.5919647216796875,1.4708099365234375
1740246557815248100,4.663248046875,0.209625244140625,0.5969085693359375,1.59930419921875
1740246557825229800,4.673229736328125,0.1919097900390625,0.591339111328125,1.6669769287109375
1740246557835212000,4.6832119140625,0.1531524658203125,0.561431884765625,1.6626129150390625
1740246557845194000,4.693194091796875,0.091156005859375,0.505584716796875,1.6367034912109375
1740246557855176000,4.703176025390625,0.0218505859375,0.441986083984375,1.60418701171875
1740246557865158000,4.713157958984375,-0.0228271484375,0.3812103271484375,1.5926055908203125
1740246557875139800,4.723139892578125,-0.0668182373046875,0.31829833984375,1.6081390380859375
1740246557885121800,4.733121826171875,-0.12762451171875,0.2593536376953125,1.6587677001953125
1740246557895104000,4.74310400390625,-0.2271270751953125,0.1431427001953125,1.7187347412109375
1740246557905086000,4.7530859375,-0.2963409423828125,0.1195526123046875,1.789642333984375
1740246557915069000,4.76306884765625,-0.3479461669921875,0.044647216796875,1.8151092529296875
1740246557925051000,4.77305078125,-0.4259033203125,-0.0299072265625,1.80682373046875
1740246557935032800,4.78303271484375,-0.4669189453125,-0.0340118408203125,1.7745361328125
1740246557945015000,4.79301513671875,-0.4626312255859375,-0.003570556640625,1.7135467529296875
1740246557954996700,4.802996826171875,-0.451904296875,0.0510101318359375,1.6287384033203125
1740246557964979000,4.81297900390625,-0.4584197998046875,0.0733795166015625,1.5219268798828125
1740246557974961200,4.822961181640625,-0.4751129150390625,0.050262451171875,1.4291839599609375
1740246557984942800,4.83294287109375,-0.483978271484375,0.0157318115234375,1.3804779052734375
1740246557994925000,4.842925048828125,-0.4813079833984375,-0.0002288818359375,1.364471435546875
1740246558004907000,4.852906982421875,-0.472442626953125,0.0153961181640625,1.3773040771484375
1740246558014889000,4.862888916015625,-0.4827117919921875,0.0251312255859375,1.41851806640625
1740246558024871000,4.872870849609375,-0.5028076171875,0.020965576171875,1.458587646484375
1740246558034852900,4.882852783203125,-0.5047149658203125,0.002532958984375,1.506011962890625
1740246558044834800,4.892834716796875,-0.4839630126953125,-0.01641845703125,1.536834716796875
1740246558054817000,4.902817138671875,-0.4503326416015625,-0.0407867431640625,1.5783843994140625
1740246558064798700,4.912798828125,-0.4139251708984375,-0.0781097412109375,1.6213226318359375
1740246558074781000,4.922781005859375,-0.365570068359375,-0.122711181640625,1.6220855712890625
1740246558084763000,4.932762939453125,-0.3331756591796875,-0.16180419921875,1.6003570556640625
1740246558094744800,4.942744873046875,-0.301910400390625,-0.1987762451171875,1.5664825439453125
1740246558104727000,4.95272705078125,-0.270233154296875,-0.2309722900390625,1.5489349365234375
1740246558114709000,4.962708984375,-0.247955322265625,-0.229888916015625,1.570220947265625
1740246558124691000,4.97269091796875,-0.2406768798828125,-0.2117767333984375,1.6119842529296875
1740246558134673000,4.9826728515625,-0.2384796142578125,-0.2047576904296875,1.6464080810546875
1740246558144656000,4.99265576171875,-0.2480621337890625,-0.2242584228515625,1.674713134765625
1740246558154637800,5.002637939453125,-0.2772674560546875,-0.2675628662109375,1.7253570556640625
1740246558164620000,5.0126201171875,-0.3106536865234375,-0.3182830810546875,1.76556396484375
1740246558174602000,5.02260205078125,-0.34234619140625,-0.37603759765625,1.76214599609375
1740246558184584000,5.032583984375,-0.36358642578125,-0.4443359375,1.753570556640625
1740246558194566000,5.04256591796875,-0.3701324462890625,-0.500579833984375,1.7350616455078125
1740246558204547800,5.0525478515625,-0.34735107421875,-0.5018768310546875,1.7105255126953125
1740246558214530000,5.062530029296875,-0.296051025390625,-0.4301605224609375,1.7048187255859375
1740246558224511700,5.07251171875,-0.236114501953125,-0.312286376953125,1.703216552734375
1740246558234494000,5.082493896484375,-0.1900787353515625,-0.2088775634765625,1.67626953125
1740246558244476000,5.092475830078125,-0.1842193603515625,-0.1342010498046875,1.65887451171875
1740246558254457900,5.102457763671875,-0.2135009765625,-0.07281494140625,1.692291259765625
1740246558264439800,5.112439697265625,-0.24017333984375,-0.0093536376953125,1.7459259033203125
1740246558274422000,5.122422119140625,-0.236541748046875,0.0526885986328125,1.7861785888671875
1740246558284404000,5.132404052734375,-0.2035675048828125,0.1183929443359375,1.7874908447265625
1740246558294386000,5.142385986328125,-0.16943359375,0.176513671875,1.7698974609375
1740246558304368000,5.1523681640625,-0.1431732177734375,0.2231597900390625,1.7390899658203125
1740246558314349800,5.162349853515625,-0.1203765869140625,0.2584228515625,1.694610595703125
1740246558324332000,5.17233203125,-0.1127471923828125,0.2919921875,1.6501617431640625
1740246558334314000,5.18231396484375,-0.122833251953125,0.3267822265625,1.615325927734375
1740246558344296000,5.1922958984375,-0.1378631591796875,0.347015380859375,1.5944671630859375
1740246558354278000,5.20227783203125,-0.1363067626953125,0.357391357421875,1.5797882080078125
1740246558364260900,5.2122607421875,-0.1136474609375,0.3760833740234375,1.5552978515625
1740246558374243000,5.2222431640625,-0.0853271484375,0.3934173583984375,1.5373077392578125
1740246558384224800,5.232224853515625,-0.055023193359375,0.41217041015625,1.5193634033203125
1740246558394207000,5.24220703125,-0.0274200439453125,0.4395294189453125,1.4965362548828125
1740246558404189000,5.25218896484375,-0.0162506103515625,0.4676971435546875,1.473175048828125
1740246558414171000,5.2621708984375,-0.0216064453125,0.4842529296875,1.449615478515625
1740246558424152800,5.27215283203125,-0.0423736572265625,0.4928436279296875,1.425537109375
1740246558434135000,5.282135009765625,-0.071075439453125,0.502227783203125,1.410400390625
1740246558444116700,5.29211669921875,-0.088653564453125,0.5186767578125,1.397979736328125
1740246558454099000,5.302098876953125,-0.1008758544921875,0.5423583984375,1.3799591064453125
1740246558464081000,5.312080810546875,-0.1056060791015625,0.554046630859375,1.35595703125
1740246558474062800,5.322062744140625,-0.1041107177734375,0.55975341796875,1.334930419921875
1740246558484045000,5.332045166015625,-0.0985870361328125,0.5606536865234375,1.3296356201171875
1740246558494027000,5.342027099609375,-0.0806732177734375,0.5650177001953125,1.3230133056640625
1740246558504009000,5.352009033203125,-0.0475311279296875,0.574615478515625,1.302398681640625
1740246558513991000,5.361990966796875,-0.0194244384765625,0.592498779296875,1.27362060546875
1740246558523972900,5.371972900390625,-0.0093536376953125,0.6154937744140625,1.23486328125
1740246558533954800,5.381954833984375,-0.0079193115234375,0.6357269287109375,1.19110107421875
1740246558543937000,5.39193701171875,-0.0152435302734375,0.6580657958984375,1.1456451416015625
1740246558553918500,5.40191845703125,-0.02056884765625,0.6772613525390625,1.090728759765625
1740246558563900200,5.411900146484375,-0.0180511474609375,0.7003173828125,1.0282440185546875
1740246558573883400,5.42188330078125,-0.012664794921875,0.7232208251953125,0.9518585205078125
1740246558583865300,5.431865234375,-0.0057830810546875,0.7327728271484375,0.8618927001953125
1740246558593847300,5.441847412109375,0.0052490234375,0.728424072265625,0.7714080810546875
1740246558603829500,5.45182958984375,0.0273895263671875,0.7117919921875,0.67254638671875
1740246558613811200,5.461811279296875,0.0555572509765625,0.6923828125,0.5824127197265625
1740246558623793400,5.47179345703125,0.080230712890625,0.691253662109375,0.523651123046875
1740246558633775400,5.481775390625,0.1018829345703125,0.7065887451171875,0.504241943359375
1740246558643757300,5.49175732421875,0.10919189453125,0.735626220703125,0.5124053955078125
1740246558653739500,5.501739501953125,0.1021728515625,0.7566375732421875,0.5240020751953125
1740246558663721200,5.51172119140625,0.084503173828125,0.7531280517578125,0.5047149658203125
1740246558673703400,5.521703369140625,0.05279541015625,0.7091827392578125,0.44781494140625
1740246558683685400,5.531685302734375,0.017852783203125,0.6423492431640625,0.37176513671875
1740246558693667300,5.541667236328125,-0.0055389404296875,0.5732879638671875,0.295379638671875
1740246558703649300,5.551649169921875,-0.0189971923828125,0.5012359619140625,0.22833251953125
1740246558713631500,5.561631591796875,-0.027862548828125,0.4394683837890625,0.195526123046875
1740246558723613200,5.57161328125,-0.0313873291015625,0.401092529296875,0.1996002197265625
1740246558733595400,5.581595458984375,-0.0404510498046875,0.384124755859375,0.2614593505859375
1740246558743577300,5.591577392578125,-0.0596771240234375,0.386322021484375,0.3726043701171875
1740246558753559300,5.601559326171875,-0.0712432861328125,0.402069091796875,0.502471923828125
1740246558763541200,5.611541259765625,-0.061279296875,0.4116363525390625,0.63812255859375
1740246558773524200,5.621524169921875,-0.026702880859375,0.42388916015625,0.7801666259765625
1740246558783506400,5.63150634765625,0.0191497802734375,0.454345703125,0.9104156494140625
1740246558793488400,5.64148828125,0.0543365478515625,0.47491455078125,1.0265045166015625
1740246558803470300,5.65147021484375,0.0877685546875,0.4796905517578125,1.120025634765625
1740246558813452300,5.661452392578125,0.122528076171875,0.4714202880859375,1.165313720703125
1740246558823434200,5.671434326171875,0.1480255126953125,0.4610443115234375,1.18548583984375
1740246558833416200,5.681416259765625,0.1577606201171875,0.454498291015625,1.2116546630859375
1740246558843398400,5.6913984375,0.1704864501953125,0.45819091796875,1.23907470703125
1740246558853380400,5.70138037109375,0.1910858154296875,0.46490478515625,1.2550201416015625
1740246558863362300,5.7113623046875,0.201690673828125,0.472503662109375,1.2797393798828125
1740246558873344500,5.721344482421875,0.1775665283203125,0.4603271484375,1.32806396484375
1740246558883326200,5.731326171875,0.1385345458984375,0.4330902099609375,1.3391876220703125
1740246558893308400,5.741308349609375,0.09600830078125,0.4075469970703125,1.3073577880859375
1740246558903290400,5.751290283203125,0.0382537841796875,0.3899993896484375,1.2763214111328125
1740246558913272300,5.761272216796875,-0.0276031494140625,0.37786865234375,1.2380523681640625
1740246558923254300,5.771254150390625,-0.10400390625,0.356781005859375,1.2217559814453125
1740246558933236500,5.781236572265625,-0.1946563720703125,0.3045806884765625,1.257720947265625
1740246558943218200,5.79121826171875,-0.2454071044921875,-0.1024322509765625,1.68585205078125
1740246558953200400,5.801200439453125,-0.084930419921875,0.0218048095703125,1.34771728515625
1740246558963182300,5.811182373046875,-0.21728515625,0.2900238037109375,1.350830078125
1740246558973165300,5.821165283203125,-0.46240234375,0.0305328369140625,1.67169189453125
1740246558983147300,5.831147216796875,-0.49334716796875,-0.0430145263671875,1.629852294921875
1740246558993129200,5.841129150390625,-0.4714508056640625,-0.0813751220703125,1.6166534423828125
1740246559003111400,5.851111328125,-0.45587158203125,-0.0662078857421875,1.63250732421875
1740246559013093000,5.861093017578125,-0.484893798828125,-0.048828125,1.6220245361328125
1740246559023075300,5.871075439453125,-0.4913482666015625,-0.0996856689453125,1.5417022705078125
1740246559033057500,5.8810576171875,-0.45208740234375,-0.1614227294921875,1.4384307861328125
1740246559043039200,5.891039306640625,-0.403961181640625,-0.2034454345703125,1.3433380126953125
1740246559053021400,5.901021484375,-0.38623046875,-0.2118377685546875,1.2791748046875
1740246559063003400,5.91100341796875,-0.3971099853515625,-0.18634033203125,1.26287841796875
1740246559072985300,5.9209853515625,-0.432525634765625,-0.1623382568359375,1.2972869873046875
1740246559082967300,5.93096728515625,-0.48583984375,-0.155792236328125,1.37335205078125
1740246559092949500,5.940949462890625,-0.52618408203125,-0.1734619140625,1.4521942138671875
1740246559102931200,5.95093115234375,-0.5191650390625,-0.19580078125,1.5002288818359375
1740246559112913400,5.960913330078125,-0.45855712890625,-0.201751708984375,1.5004119873046875
1740246559122895400,5.970895263671875,-0.3850860595703125,-0.2006683349609375,1.4770660400390625
1740246559132877300,5.980877197265625,-0.346954345703125,-0.205596923828125,1.4514923095703125
1740246559142859500,5.990859619140625,-0.3435821533203125,-0.2160491943359375,1.443359375
1740246559152841200,6.00084130859375,-0.3511810302734375,-0.216522216796875,1.479888916015625
1740246559162823400,6.010823486328125,-0.38330078125,-0.2300262451171875,1.581573486328125
1740246559172806100,6.02080615234375,-0.390411376953125,-0.25067138671875,1.6601715087890625
1740246559182788400,6.030788330078125,-0.3832244873046875,-0.2767181396484375,1.712493896484375
1740246559192770300,6.040770263671875,-0.3810882568359375,-0.3219757080078125,1.754425048828125
1740246559202752300,6.050752197265625,-0.3781585693359375,-0.37445068359375,1.7610626220703125
1740246559212734200,6.060734130859375,-0.37274169921875,-0.4250335693359375,1.73175048828125
1740246559222716400,6.07071630859375,-0.375244140625,-0.4784393310546875,1.6847991943359375
1740246559232698400,6.080698486328125,-0.3739166259765625,-0.5273895263671875,1.6152496337890625
1740246559242680300,6.090680419921875,-0.3580780029296875,-0.5450286865234375,1.5709381103515625
1740246559252662500,6.10066259765625,-0.3459014892578125,-0.496978759765625,1.5755767822265625
1740246559262644200,6.110644287109375,-0.3313446044921875,-0.3873443603515625,1.610565185546875
1740246559272626400,6.12062646484375,-0.3132171630859375,-0.259521484375,1.6500701904296875
1740246559282608400,6.1306083984375,-0.29217529296875,-0.1342926025390625,1.662933349609375
1740246559292590300,6.14059033203125,-0.271881103515625,-0.02093505859375,1.645233154296875
1740246559302572300,6.150572265625,-0.251678466796875,0.0644378662109375,1.6085968017578125
1740246559312554200,6.16055419921875,-0.2274169921875,0.1252288818359375,1.5638580322265625
1740246559322536200,6.1705361328125,-0.205474853515625,0.169677734375,1.5125274658203125
1740246559332518400,6.180518310546875,-0.192291259765625,0.196044921875,1.4607391357421875
1740246559342500400,6.190500244140625,-0.178070068359375,0.2108154296875,1.4284515380859375
1740246559352482300,6.200482421875,-0.163787841796875,0.21942138671875,1.44635009765625
1740246559362465300,6.21046533203125,-0.1397247314453125,0.2315673828125,1.4775238037109375
1740246559372447200,6.220447265625,-0.11041259765625,0.2501220703125,1.4727783203125
1740246559382429400,6.230429443359375,-0.0825958251953125,0.266937255859375,1.4512481689453125
1740246559392411100,6.2404111328125,-0.0563201904296875,0.275634765625,1.420928955078125
1740246559402393300,6.250393310546875,-0.031768798828125,0.2769927978515625,1.3828277587890625
1740246559412375600,6.26037548828125,-0.01947021484375,0.274200439453125,1.34490966796875
1740246559422357200,6.270357177734375,-0.00262451171875,0.2674407958984375,1.3101654052734375
1740246559432339500,6.28033935546875,0.022491455078125,0.2667694091796875,1.2850799560546875
1740246559442321400,6.2903212890625,0.0323333740234375,0.2703094482421875,1.295440673828125
1740246559452303400,6.300303466796875,0.0111236572265625,0.273681640625,1.3283538818359375
1740246559462285300,6.310285400390625,-0.0084381103515625,0.290618896484375,1.35223388671875
1740246559472267300,6.320267333984375,-0.0189666748046875,0.328094482421875,1.3691864013671875
1740246559482249200,6.330249267578125,-0.0511016845703125,0.3655548095703125,1.3623046875
1740246559492231400,6.3402314453125,-0.0951995849609375,0.3914947509765625,1.340911865234375
1740246559502213000,6.350213134765625,-0.1342010498046875,0.400421142578125,1.313385009765625
1740246559512195300,6.3601953125,-0.15484619140625,0.4097442626953125,1.2850799560546875
1740246559522177500,6.370177490234375,-0.15240478515625,0.4316864013671875,1.25030517578125
1740246559532159200,6.3801591796875,-0.1433563232421875,0.4576263427734375,1.219451904296875
1740246559542142500,6.390142578125,-0.143951416015625,0.477203369140625,1.201263427734375
1740246559552124200,6.400124267578125,-0.1501312255859375,0.48956298828125,1.2193450927734375
1740246559562107000,6.41010693359375,-0.165985107421875,0.50958251953125,1.264495849609375
1740246559572088800,6.4200888671875,-0.1790008544921875,0.5362396240234375,1.2890777587890625
1740246559582070800,6.43007080078125,-0.1911468505859375,0.56475830078125,1.3000030517578125
1740246559592053000,6.440052978515625,-0.2048492431640625,0.5932769775390625,1.29052734375
1740246559602034700,6.45003466796875,-0.20745849609375,0.6343231201171875,1.276458740234375
1740246559612017000,6.460016845703125,-0.2005462646484375,0.6683502197265625,1.2434539794921875
1740246559621998800,6.469998779296875,-0.18896484375,0.6913909912109375,1.19549560546875
1740246559631980800,6.479980712890625,-0.1763458251953125,0.6991424560546875,1.1301727294921875
1740246559641962800,6.489962646484375,-0.160736083984375,0.69586181640625,1.04669189453125
1740246559651945000,6.499945068359375,-0.1431732177734375,0.6930084228515625,0.962066650390625
1740246559661926700,6.5099267578125,-0.1267242431640625,0.6905975341796875,0.8857879638671875
1740246559671908900,6.519908935546875,-0.1097564697265625,0.694305419921875,0.8181610107421875
1740246559681890800,6.529890869140625,-0.094512939453125,0.70745849609375,0.761566162109375
1740246559691872800,6.539872802734375,-0.0777587890625,0.721038818359375,0.7076263427734375
1740246559701855000,6.54985498046875,-0.06109619140625,0.714691162109375,0.6403656005859375
1740246559711837000,6.5598369140625,-0.0475616455078125,0.692657470703125,0.5652008056640625
1740246559721820000,6.56981982421875,-0.0374603271484375,0.6581268310546875,0.4829254150390625
1740246559731801900,6.5798017578125,-0.0316314697265625,0.60321044921875,0.3915557861328125
1740246559741783800,6.58978369140625,-0.01849365234375,0.5383758544921875,0.298126220703125
1740246559751765800,6.599765869140625,0.0041351318359375,0.4783935546875,0.213470458984375
1740246559761747700,6.609747802734375,0.0227203369140625,0.4294281005859375,0.1540069580078125
1740246559771730000,6.61972998046875,0.0365142822265625,0.3842620849609375,0.120361328125
1740246559781712000,6.6297119140625,0.0499267578125,0.3479461669921875,0.122161865234375
1740246559791693800,6.63969384765625,0.06243896484375,0.3308868408203125,0.1572723388671875
1740246559801675800,6.64967578125,0.068817138671875,0.3355712890625,0.21795654296875
1740246559811658000,6.659657958984375,0.0644378662109375,0.3475494384765625,0.302978515625
1740246559821639700,6.6696396484375,0.065521240234375,0.353363037109375,0.399322509765625
1740246559831622000,6.679621826171875,0.076446533203125,0.3652496337890625,0.4898834228515625
1740246559841603800,6.689603759765625,0.0944671630859375,0.39788818359375,0.5657501220703125
1740246559851585800,6.699585693359375,0.1083526611328125,0.4525909423828125,0.646514892578125
1740246559861567700,6.709567626953125,0.109527587890625,0.5048370361328125,0.741424560546875
1740246559871550000,6.719550048828125,0.0987091064453125,0.5402069091796875,0.8087921142578125
1740246559881532000,6.729531982421875,0.0844268798828125,0.5567626953125,0.868377685546875
1740246559891515000,6.739514892578125,0.0707244873046875,0.57464599609375,0.9402313232421875
1740246559901496800,6.749496826171875,0.06787109375,0.60150146484375,1.017486572265625
1740246559911478800,6.759478759765625,0.065826416015625,0.6232757568359375,1.114410400390625
1740246559921461000,6.7694609375,0.0538787841796875,0.6300048828125,1.208740234375
1740246559931442700,6.779442626953125,0.0285797119140625,0.6317596435546875,1.2969207763671875
1740246559941425000,6.7894248046875,-0.0132293701171875,0.626678466796875,1.375
1740246559951406800,6.79940673828125,-0.0737152099609375,0.61322021484375,1.4297637939453125
1740246559961388800,6.809388916015625,-0.14990234375,0.5728302001953125,1.4873046875
1740246559971371000,6.81937109375,-0.2161865234375,0.5159912109375,1.54058837890625
1740246559981352700,6.829352783203125,-0.2730865478515625,0.47515869140625,1.573333740234375
1740246559991335000,6.8393349609375,-0.33642578125,0.451416015625,1.6112213134765625
1740246560001316900,6.84931689453125,-0.39764404296875,0.40972900390625,1.62396240234375
1740246560011298800,6.859298828125,-0.440032958984375,0.34356689453125,1.615966796875
1740246560021280800,6.86928076171875,-0.4651947021484375,0.264923095703125,1.5934295654296875
1740246560031263000,6.879262939453125,-0.474029541015625,0.2120208740234375,1.5732574462890625
1740246560041244700,6.88924462890625,-0.4737701416015625,0.1869964599609375,1.54815673828125
1740246560051228000,6.899227783203125,-0.4688720703125,0.1610870361328125,1.57025146484375
1740246560061209900,6.9092099609375,-0.4632568359375,0.1237640380859375,1.59136962890625
1740246560071191800,6.91919189453125,-0.440582275390625,0.0846710205078125,1.5762939453125
1740246560081174000,6.929174072265625,-0.422943115234375,0.062896728515625,1.562835693359375
1740246560091155700,6.93915576171875,-0.4139556884765625,0.0636444091796875,1.5705108642578125
1740246560101138000,6.949137939453125,-0.388427734375,0.0750732421875,1.5887451171875
1740246560111120000,6.959119873046875,-0.3450775146484375,0.0825653076171875,1.5993804931640625
1740246560121101800,6.969101806640625,-0.30047607421875,0.0977783203125,1.6031646728515625
1740246560131083800,6.979083740234375,-0.26263427734375,0.1274566650390625,1.5841827392578125
1740246560141065700,6.989065673828125,-0.233917236328125,0.15625,1.563201904296875
1740246560151048000,6.9990478515625,-0.2198638916015625,0.1706695556640625,1.543853759765625
1740246560161030000,7.00902978515625,-0.2188568115234375,0.17059326171875,1.521942138671875
1740246560171011800,7.01901171875,-0.2241973876953125,0.1505584716796875,1.5140228271484375
1740246560180993800,7.028993896484375,-0.22845458984375,0.1136474609375,1.510650634765625
1740246560190976000,7.03897607421875,-0.228546142578125,0.07196044921875,1.5226593017578125
1740246560200957700,7.048957763671875,-0.217071533203125,0.0322723388671875,1.5777130126953125
1740246560210940000,7.05893994140625,-0.1898193359375,-0.0019989013671875,1.64544677734375
1740246560220923000,7.0689228515625,-0.1597747802734375,-0.011688232421875,1.688140869140625
1740246560230904800,7.07890478515625,-0.13739013671875,-0.00067138671875,1.7449188232421875
1740246560240887000,7.088886962890625,-0.134796142578125,-0.006072998046875,1.78131103515625
1740246560250868700,7.09886865234375,-0.142578125,-0.0441741943359375,1.79022216796875
1740246560260851000,7.108850830078125,-0.1493377685546875,-0.113433837890625,1.7776336669921875
1740246560270833000,7.1188330078125,-0.1427459716796875,-0.1990509033203125,1.71929931640625
1740246560280814800,7.12881494140625,-0.1097869873046875,-0.2740020751953125,1.6261138916015625
1740246560290796800,7.138796875,-0.0670318603515625,-0.3180694580078125,1.52728271484375
1740246560300778800,7.14877880859375,-0.0256195068359375,-0.3079833984375,1.467987060546875
1740246560310760700,7.1587607421875,0.0328216552734375,-0.2282257080078125,1.4748077392578125
1740246560320743000,7.168742919921875,0.0867767333984375,-0.0933685302734375,1.5572357177734375
1740246560330724900,7.178724853515625,0.098968505859375,0.0594482421875,1.655609130859375
1740246560340706800,7.188706787109375,0.0823211669921875,0.197601318359375,1.7193756103515625
1740246560350689000,7.19868896484375,0.03997802734375,0.30242919921875,1.737884521484375
1740246560360670700,7.208670654296875,-0.0137176513671875,0.36993408203125,1.731842041015625
1740246560370653000,7.21865283203125,-0.0744476318359375,0.401153564453125,1.7126617431640625
1740246560380635000,7.228634765625,-0.123138427734375,0.411224365234375,1.6744842529296875
1740246560390617900,7.238617919921875,-0.1435546875,0.4105072021484375,1.6428985595703125
1740246560400600000,7.24860009765625,-0.1562957763671875,0.4002685546875,1.624420166015625
1740246560410581800,7.258581787109375,-0.1653900146484375,0.386444091796875,1.6129608154296875
1740246560420564000,7.26856396484375,-0.1647186279296875,0.3740081787109375,1.5908355712890625
1740246560430546000,7.2785458984375,-0.1785736083984375,0.367095947265625,1.57232666015625
1740246560440528000,7.28852783203125,-0.199615478515625,0.366668701171875,1.547088623046875
1740246560450509800,7.298509765625,-0.219482421875,0.3698272705078125,1.5252532958984375
1740246560460491800,7.30849169921875,-0.242889404296875,0.3826446533203125,1.5175628662109375
1740246560470473700,7.3184736328125,-0.2606658935546875,0.40240478515625,1.49652099609375
1740246560480456000,7.3284560546875,-0.27020263671875,0.4125213623046875,1.4584808349609375
1740246560490437600,7.338437744140625,-0.2668304443359375,0.423492431640625,1.4143829345703125
1740246560500419800,7.348419921875,-0.25701904296875,0.446014404296875,1.3703460693359375
1740246560510401800,7.35840185546875,-0.2444915771484375,0.4688262939453125,1.3293914794921875
1740246560520383700,7.3683837890625,-0.237518310546875,0.489288330078125,1.2939910888671875
1740246560530366000,7.378365966796875,-0.239898681640625,0.5119476318359375,1.2826690673828125
1740246560540348000,7.388347900390625,-0.2479400634765625,0.540130615234375,1.2904052734375
1740246560550331000,7.398330810546875,-0.2570037841796875,0.558135986328125,1.296905517578125
1740246560560313000,7.40831298828125,-0.2578887939453125,0.5736083984375,1.2989044189453125
1740246560570294800,7.418294677734375,-0.2500457763671875,0.60223388671875,1.30657958984375
1740246560580277000,7.428277099609375,-0.2381134033203125,0.637847900390625,1.315216064453125
1740246560590259000,7.438259033203125,-0.225341796875,0.676849365234375,1.310760498046875
1740246560600241000,7.448240966796875,-0.21343994140625,0.711151123046875,1.29986572265625
1740246560610222800,7.458222900390625,-0.204620361328125,0.7420196533203125,1.2843170166015625
1740246560620204800,7.468204833984375,-0.20098876953125,0.763641357421875,1.24969482421875
1740246560630187000,7.47818701171875,-0.192413330078125,0.776947021484375,1.2065887451171875
1740246560640169000,7.4881689453125,-0.1728515625,0.808624267578125,1.1722412109375
1740246560650151000,7.49815087890625,-0.148468017578125,0.8532562255859375,1.119110107421875
1740246560660132900,7.5081328125,-0.1164093017578125,0.8975677490234375,1.045257568359375
1740246560670115000,7.518114990234375,-0.08343505859375,0.92877197265625,0.94964599609375
1740246560680096800,7.5280966796875,-0.062286376953125,0.925567626953125,0.8355865478515625
1740246560690079000,7.538078857421875,-0.044891357421875,0.896087646484375,0.7074737548828125
1740246560700062000,7.54806201171875,-0.019439697265625,0.865203857421875,0.57489013671875
1740246560710044000,7.5580439453125,0.0171966552734375,0.8422698974609375,0.4544830322265625
1740246560720026000,7.568026123046875,0.0643768310546875,0.8332977294921875,0.3746795654296875
1740246560730007800,7.5780078125,0.10546875,0.84857177734375,0.3286895751953125
1740246560739990000,7.587989990234375,0.1236572265625,0.8521881103515625,0.3001861572265625
1740246560749972000,7.597971923828125,0.1085357666015625,0.8186492919921875,0.2736053466796875
1740246560759954000,7.607953857421875,0.067626953125,0.759124755859375,0.2555694580078125
1740246560769936000,7.617935791015625,0.0175933837890625,0.7006072998046875,0.253936767578125
1740246560779918000,7.62791796875,-0.0370330810546875,0.63873291015625,0.2594146728515625
1740246560789899800,7.637899658203125,-0.082183837890625,0.573272705078125,0.2702178955078125
1740246560799882000,7.647882080078125,-0.1081695556640625,0.5096588134765625,0.2985076904296875
1740246560809863700,7.65786376953125,-0.1013946533203125,0.467071533203125,0.34381103515625
1740246560819846000,7.667845947265625,-0.080810546875,0.44921875,0.3961639404296875
1740246560829828000,7.677828125,-0.0524139404296875,0.458099365234375,0.48712158203125
1740246560839809800,7.687809814453125,-0.012451171875,0.473297119140625,0.594207763671875
1740246560849792000,7.6977919921875,0.0296630859375,0.4904022216796875,0.6942596435546875
1740246560859774700,7.707774658203125,0.0751800537109375,0.5212249755859375,0.7841796875
1740246560869757000,7.7177568359375,0.1189117431640625,0.5683746337890625,0.8741912841796875
1740246560879739000,7.72773876953125,0.151214599609375,0.6236419677734375,0.969146728515625
1740246560889720800,7.737720947265625,0.168365478515625,0.66497802734375,1.042236328125
1740246560899703000,7.747703125,0.173797607421875,0.6798858642578125,1.1012115478515625
1740246560909685000,7.75768505859375,0.1732330322265625,0.6873779296875,1.1747283935546875
1740246560919667000,7.7676669921875,0.1630859375,0.708404541015625,1.2701263427734375
1740246560929649000,7.77764892578125,0.1506195068359375,0.7309417724609375,1.354644775390625
1740246560939631000,7.787631103515625,0.1314239501953125,0.740814208984375,1.42596435546875
1740246560949612800,7.79761279296875,0.1023712158203125,0.723297119140625,1.4720611572265625
1740246560959595000,7.807594970703125,0.068359375,0.68011474609375,1.4683074951171875
1740246560969577000,7.817576904296875,0.02203369140625,0.631134033203125,1.4364013671875
1740246560979559000,7.827558837890625,-0.0222015380859375,0.5878753662109375,1.4058685302734375
1740246560989540900,7.837540771484375,-0.0598297119140625,0.549591064453125,1.3709259033203125
1740246560999522800,7.847522705078125,-0.1041412353515625,0.505767822265625,1.3438720703125
1740246561009506000,7.857506103515625,-0.1509552001953125,0.4530792236328125,1.3360748291015625
1740246561019487700,7.86748779296875,-0.1865234375,0.4022064208984375,1.3569488525390625
1740246561029470000,7.877469970703125,-0.205535888671875,0.3340301513671875,1.3890533447265625
1740246561039452000,7.887451904296875,-0.2131500244140625,0.2688140869140625,1.410552978515625
1740246561049435000,7.897434814453125,-0.2020721435546875,0.208831787109375,1.4243011474609375
1740246561059417000,7.9074169921875,-0.177337646484375,0.1675262451171875,1.42498779296875
1740246561069398800,7.917398681640625,-0.151519775390625,0.1474456787109375,1.410308837890625
1740246561079381000,7.927381103515625,-0.1251068115234375,0.1422271728515625,1.3759002685546875
1740246561089363000,7.937363037109375,-0.0941162109375,0.1530914306640625,1.335205078125
1740246561099345000,7.947344970703125,-0.0757293701171875,0.17242431640625,1.31829833984375
1740246561109326800,7.957326904296875,-0.063690185546875,0.190673828125,1.3187408447265625
1740246561119309000,7.96730908203125,-0.0498199462890625,0.2110595703125,1.340850830078125
1740246561129290800,7.977290771484375,-0.0441741943359375,0.24285888671875,1.403717041015625
1740246561139273000,7.98727294921875,-0.040008544921875,0.276702880859375,1.4611358642578125
1740246561149255000,7.9972548828125,-0.0405120849609375,0.2961578369140625,1.497314453125
1740246561159236900,8.00723681640625,-0.046142578125,0.3056640625,1.531463623046875
1740246561169219000,8.017218994140626,-0.0511016845703125,0.3019561767578125,1.5664520263671875
1740246561179200800,8.02720068359375,-0.0484619140625,0.28009033203125,1.58905029296875
1740246561189183000,8.037182861328125,-0.035888671875,0.24420166015625,1.61444091796875
1740246561199165000,8.0471650390625,-0.0203094482421875,0.1878509521484375,1.65826416015625
1740246561209148000,8.05714794921875,-0.00860595703125,0.1119842529296875,1.7029876708984375
1740246561219130000,8.067130126953124,-0.0120697021484375,0.0216217041015625,1.727569580078125
1740246561229111800,8.07711181640625,-0.030975341796875,-0.0750579833984375,1.7370758056640625
1740246561239094000,8.087093994140625,-0.0455780029296875,-0.156463623046875,1.7646484375
1740246561249076000,8.097075927734375,-0.03936767578125,-0.1947479248046875,1.8251190185546875
1740246561259058000,8.107057861328125,-0.0270233154296875,-0.18914794921875,1.912017822265625
1740246561269039900,8.117039794921874,-0.0274810791015625,-0.1574554443359375,2.00091552734375
1740246561279022000,8.12702197265625,-0.0442962646484375,-0.1287689208984375,2.0472259521484375
1740246561289003800,8.137003662109375,-0.081207275390625,-0.1224365234375,2.031036376953125
1740246561298986000,8.146986083984375,-0.1287384033203125,-0.145599365234375,1.961669921875
1740246561308968000,8.156968017578125,-0.1536102294921875,-0.188018798828125,1.863555908203125
1740246561318950000,8.166949951171874,-0.15557861328125,-0.225189208984375,1.770751953125
1740246561328931800,8.176931884765626,-0.133514404296875,-0.236602783203125,1.6707305908203125
1740246561338913800,8.186913818359375,-0.0968475341796875,-0.195037841796875,1.595306396484375
1740246561348897000,8.19689697265625,-0.046783447265625,-0.1105194091796875,1.5371856689453125
1740246561358879000,8.20687890625,-0.0037384033203125,-0.014007568359375,1.4853973388671875
1740246561368861000,8.21686083984375,0.0108489990234375,0.0782928466796875,1.4391937255859375
1740246561378841900,8.226841796875,-0.0091094970703125,0.149871826171875,1.4105377197265625
1740246561388824800,8.236824951171876,-0.04608154296875,0.1998748779296875,1.4110870361328125
1740246561398806800,8.246806884765626,-0.0710906982421875,0.2442626953125,1.44451904296875
1740246561408789000,8.2567890625,-0.07958984375,0.29241943359375,1.4962615966796875
1740246561418771000,8.26677099609375,-0.078369140625,0.3197479248046875,1.53363037109375
1740246561428753000,8.2767529296875,-0.071807861328125,0.3284759521484375,1.5521240234375
1740246561438735000,8.286735107421874,-0.06854248046875,0.32330322265625,1.569366455078125
1740246561448716800,8.296716796875,-0.0773468017578125,0.310882568359375,1.5623321533203125
1740246561458699000,8.306698974609375,-0.0895233154296875,0.3043060302734375,1.5561981201171875
1740246561468681000,8.316680908203125,-0.0959014892578125,0.314666748046875,1.5639801025390625
1740246561478663000,8.326662841796875,-0.0893402099609375,0.3262176513671875,1.5572052001953125
1740246561488644900,8.336644775390624,-0.082550048828125,0.3330535888671875,1.55047607421875
1740246561498627000,8.346626953125,-0.067474365234375,0.33502197265625,1.54571533203125
1740246561508608800,8.35660888671875,-0.03839111328125,0.345123291015625,1.5308380126953125
1740246561518591000,8.366591064453125,0.0028228759765625,0.36114501953125,1.505706787109375
1740246561528574000,8.376573974609375,0.03424072265625,0.3749542236328125,1.4833221435546875
1740246561538556000,8.386555908203125,0.0438232421875,0.386566162109375,1.473846435546875
1740246561548537900,8.396537841796874,0.04833984375,0.4030303955078125,1.4566650390625
1740246561558520000,8.40652001953125,0.050811767578125,0.4306182861328125,1.43450927734375
1740246561568502000,8.416501953125,0.040313720703125,0.4581451416015625,1.404541015625
1740246561578484000,8.42648388671875,0.0150604248046875,0.48016357421875,1.3851318359375
1740246561588466000,8.4364658203125,-0.0191192626953125,0.508697509765625,1.3827056884765625
1740246561598448000,8.4464482421875,-0.0487518310546875,0.540435791015625,1.3805999755859375
1740246561608429800,8.456429931640624,-0.072967529296875,0.5730133056640625,1.3673553466796875
1740246561618412000,8.466412109375,-0.0953826904296875,0.6031494140625,1.352081298828125
1740246561628394000,8.47639404296875,-0.1184539794921875,0.6343841552734375,1.3342742919921875
1740246561638376000,8.4863759765625,-0.1432037353515625,0.663299560546875,1.30621337890625
1740246561648358000,8.49635791015625,-0.165740966796875,0.679779052734375,1.27569580078125
1740246561658340000,8.506340087890624,-0.1834869384765625,0.695709228515625,1.2463226318359375
1740246561668323000,8.516322998046874,-0.199676513671875,0.710205078125,1.2116851806640625
1740246561678305000,8.526304931640626,-0.2033538818359375,0.72198486328125,1.1735992431640625
1740246561688287000,8.536286865234375,-0.2005615234375,0.738739013671875,1.1423797607421875
1740246561698269000,8.54626904296875,-0.1916656494140625,0.7606048583984375,1.1157073974609375
1740246561708251000,8.5562509765625,-0.175689697265625,0.7836456298828125,1.091827392578125
1740246561718232800,8.56623291015625,-0.153717041015625,0.79888916015625,1.0509033203125
1740246561728215000,8.576215087890626,-0.135284423828125,0.79400634765625,0.9696197509765625
1740246561738196700,8.58619677734375,-0.1094512939453125,0.7778778076171875,0.8464202880859375
1740246561748179000,8.596178955078125,-0.0734710693359375,0.7575836181640625,0.7130584716796875
1740246561758161200,8.6061611328125,-0.031951904296875,0.74127197265625,0.60028076171875
1740246561768142800,8.616142822265624,0.018829345703125,0.74346923828125,0.506805419921875
1740246561778125000,8.626125,0.062896728515625,0.765594482421875,0.4396514892578125
1740246561788107000,8.63610693359375,0.1015472412109375,0.7830047607421875,0.386505126953125
1740246561798090000,8.646090087890625,0.121551513671875,0.7773284912109375,0.333404541015625
1740246561808072000,8.656072021484375,0.1113128662109375,0.733245849609375,0.2906951904296875
1740246561818054000,8.666053955078125,0.083099365234375,0.6688079833984375,0.2640380859375
1740246561828036000,8.6760361328125,0.0365753173828125,0.600006103515625,0.2611846923828125
1740246561838018000,8.68601806640625,-0.0060577392578125,0.5320892333984375,0.2733001708984375
1740246561848000000,8.696,-0.0399169921875,0.465576171875,0.2785797119140625
1740246561857982000,8.70598193359375,-0.060791015625,0.4071807861328125,0.293060302734375
1740246561867964000,8.7159638671875,-0.06817626953125,0.3654327392578125,0.32196044921875
1740246561877945900,8.72594580078125,-0.061981201171875,0.3660888671875,0.3843231201171875
1740246561887928000,8.735927978515624,-0.0328521728515625,0.40106201171875,0.4710693359375
1740246561897909800,8.74590966796875,0.008148193359375,0.4457550048828125,0.5635833740234375
1740246561907892000,8.75589208984375,0.0666656494140625,0.4825439453125,0.6642303466796875
1740246561917874000,8.7658740234375,0.1326141357421875,0.520965576171875,0.771575927734375
1740246561927857000,8.77585693359375,0.173583984375,0.56689453125,0.8592071533203125
1740246561937839000,8.785839111328125,0.187286376953125,0.6081695556640625,0.932220458984375
1740246561947820800,8.79582080078125,0.1800994873046875,0.6326751708984375,0.9924468994140625
1740246561957803000,8.805802978515626,0.1598968505859375,0.640716552734375,1.0502777099609375
1740246561967785000,8.815784912109375,0.1508636474609375,0.6298828125,1.1044921875
1740246561977767000,8.825766845703125,0.180938720703125,0.6171112060546875,1.160797119140625
1740246561987748900,8.835748779296875,0.23419189453125,0.60467529296875,1.231475830078125
1740246561997731000,8.84573095703125,0.2907867431640625,0.6019134521484375,1.2830047607421875
1740246562007713000,8.855713134765624,0.340362548828125,0.61737060546875,1.3212432861328125
1740246562017695000,8.865695068359376,0.354583740234375,0.642669677734375,1.347991943359375
1740246562027677200,8.87567724609375,0.3072662353515625,0.6635894775390625,1.362457275390625
1740246562037659000,8.885658935546875,0.200042724609375,0.660552978515625,1.359619140625
1740246562047641000,8.89564111328125,0.078643798828125,0.6459808349609375,1.338287353515625
1740246562057622800,8.905622802734374,-0.025146484375,0.6266632080078125,1.317169189453125
1740246562067606000,8.91560595703125,-0.1004791259765625,0.6202850341796875,1.3151702880859375
1740246562077588000,8.925587890625,-0.161041259765625,0.609649658203125,1.32958984375
1740246562087570000,8.93556982421875,-0.2398529052734375,0.5744171142578125,1.3866729736328125
1740246562097552100,8.94555224609375,-0.312774658203125,0.51898193359375,1.4456024169921875
1740246562107533800,8.955533935546875,-0.3604583740234375,0.4438018798828125,1.463104248046875
1740246562117516000,8.96551611328125,-0.3943634033203125,0.3767242431640625,1.4766998291015625
1740246562127498000,8.975498046875,-0.413116455078125,0.336151123046875,1.4775543212890625
1740246562137480000,8.98547998046875,-0.4166259765625,0.311004638671875,1.47119140625
1740246562147462000,8.9954619140625,-0.4073028564453125,0.302154541015625,1.4647979736328125
1740246562157444000,9.005444091796875,-0.3818359375,0.3141937255859375,1.4630126953125
1740246562167425800,9.01542578125,-0.35003662109375,0.326873779296875,1.45782470703125
1740246562177408000,9.025407958984376,-0.3155670166015625,0.3388519287109375,1.4511260986328125
1740246562187390000,9.035389892578126,-0.2806549072265625,0.3498992919921875,1.4571380615234375
1740246562197373000,9.045373046875,-0.25433349609375,0.35552978515625,1.4769439697265625
1740246562207355100,9.055355224609375,-0.230926513671875,0.3504791259765625,1.50048828125
1740246562217336800,9.0653369140625,-0.204345703125,0.3423614501953125,1.5391845703125
1740246562227319000,9.075319091796874,-0.178863525390625,0.3370513916015625,1.5753631591796875
1740246562237301000,9.085301025390624,-0.166412353515625,0.330535888671875,1.619110107421875
1740246562247283000,9.095282958984376,-0.1629180908203125,0.302001953125,1.666168212890625
1740246562257265000,9.105264892578125,-0.15972900390625,0.2481689453125,1.7018890380859375
1740246562267246800,9.115246826171875,-0.1483306884765625,0.1833648681640625,1.7261810302734375
1740246562277229000,9.12522900390625,-0.135284423828125,0.121429443359375,1.7525787353515625
1740246562287211000,9.1352109375,-0.1169586181640625,0.0732879638671875,1.8138580322265625
1740246562297193000,9.14519287109375,-0.091705322265625,0.041107177734375,1.912567138671875
1740246562307175000,9.1551748046875,-0.0624847412109375,0.0430755615234375,2.035247802734375
1740246562317157000,9.1651572265625,-0.0415802001953125,0.045013427734375,2.14154052734375
1740246562327138800,9.175138916015625,-0.029083251953125,0.014739990234375,2.199462890625
1740246562337122000,9.1851220703125,-0.0106048583984375,-0.032958984375,2.208984375
1740246562347104000,9.19510400390625,-0.00244140625,-0.1320648193359375,2.1494598388671875
1740246562357086000,9.2050859375,0.0099029541015625,-0.2602691650390625,2.032623291015625
1740246562367068200,9.215068115234375,0.022491455078125,-0.356231689453125,1.8861846923828125
1740246562377049900,9.2250498046875,0.026214599609375,-0.3716278076171875,1.7555999755859375
1740246562387032000,9.235031982421875,0.0397796630859375,-0.29595947265625,1.6646881103515625
1740246562397014000,9.245013916015624,0.07568359375,-0.1494598388671875,1.6035308837890625
1740246562406996000,9.254995849609376,0.108184814453125,0.0186309814453125,1.5691986083984375
1740246562416978000,9.26497802734375,0.1119537353515625,0.1602783203125,1.537139892578125
1740246562426960000,9.2749599609375,0.085479736328125,0.2584991455078125,1.5075836181640625
1740246562436941800,9.28494189453125,0.0420379638671875,0.321868896484375,1.4838409423828125
1740246562446924000,9.294924072265625,0.003936767578125,0.3636932373046875,1.4848175048828125
1740246562456906000,9.304906005859374,-0.0079803466796875,0.392547607421875,1.48724365234375
1740246562466889000,9.314888916015626,0.0039825439453125,0.4097900390625,1.4703826904296875
1740246562476871000,9.324870849609376,0.0117950439453125,0.41375732421875,1.4476318359375
1740246562486852900,9.334852783203125,0.0056915283203125,0.4043731689453125,1.423492431640625
1740246562496835000,9.3448349609375,0.00750732421875,0.4045867919921875,1.38787841796875
1740246562506816800,9.354816650390624,0.016143798828125,0.417755126953125,1.3633575439453125
1740246562516799000,9.364799072265624,0.019622802734375,0.432708740234375,1.347930908203125
1740246562526781200,9.37478125,0.0121307373046875,0.4396820068359375,1.3325653076171875
1740246562536763000,9.384762939453125,0.015350341796875,0.4449920654296875,1.3162384033203125
1740246562546745000,9.3947451171875,0.008544921875,0.443450927734375,1.3178863525390625
1740246562556727000,9.40472705078125,0.0132598876953125,0.442108154296875,1.3433990478515625
1740246562566709000,9.414708984375,0.02825927734375,0.435028076171875,1.3643035888671875
1740246562576691200,9.424691162109376,0.025726318359375,0.4409942626953125,1.3709716796875
1740246562586674000,9.434673828125,0.0239410400390625,0.451812744140625,1.3634490966796875
1740246562596656000,9.44465625,0.0211181640625,0.4664764404296875,1.3538665771484375
1740246562606638000,9.45463818359375,0.016510009765625,0.48370361328125,1.3480224609375
1740246562616620000,9.4646201171875,0.0055694580078125,0.5059967041015625,1.3471527099609375
1740246562626602200,9.474602294921874,-0.0081634521484375,0.5276947021484375,1.3433074951171875
1740246562636584000,9.484583984375,-0.034332275390625,0.551361083984375,1.34063720703125
1740246562646566100,9.494566162109376,-0.068572998046875,0.5739898681640625,1.338897705078125
1740246562656548000,9.504548095703125,-0.10260009765625,0.5994415283203125,1.3403167724609375
1740246562666530000,9.514530029296875,-0.13262939453125,0.629974365234375,1.350189208984375
1740246562676512000,9.524511962890625,-0.1581878662109375,0.6699066162109375,1.3593292236328125
1740246562686494200,9.534494140625,-0.1892242431640625,0.70599365234375,1.3466644287109375
1740246562696476000,9.544475830078126,-0.21148681640625,0.7321014404296875,1.30914306640625
1740246562706458000,9.5544580078125,-0.231170654296875,0.7496795654296875,1.2571563720703125
1740246562716441000,9.564441162109375,-0.2429046630859375,0.755340576171875,1.21527099609375
1740246562726423000,9.574423095703125,-0.2440643310546875,0.770111083984375,1.191131591796875
1740246562736405200,9.5844052734375,-0.235809326171875,0.79840087890625,1.1979827880859375
1740246562746387000,9.594386962890624,-0.21502685546875,0.837493896484375,1.20928955078125
1740246562756369200,9.604369140625,-0.1817474365234375,0.880615234375,1.18756103515625
1740246562766351000,9.61435107421875,-0.1395416259765625,0.9084320068359375,1.1231689453125
1740246562776333000,9.6243330078125,-0.105316162109375,0.9091644287109375,1.0306549072265625
1740246562786315300,9.634315185546875,-0.0796051025390625,0.89239501953125,0.9260711669921875
1740246562796297000,9.644296875,-0.0590667724609375,0.868377685546875,0.818145751953125
1740246562806279200,9.654279052734376,-0.03021240234375,0.85821533203125,0.746368408203125
1740246562816261000,9.66426123046875,0.007476806640625,0.8822021484375,0.7228240966796875
1740246562826243000,9.6742431640625,0.0398712158203125,0.9247283935546875,0.7293243408203125
1740246562836226000,9.68422607421875,0.0613861083984375,0.951507568359375,0.7217254638671875
1740246562846208000,9.6942080078125,0.06396484375,0.9408111572265625,0.67828369140625
1740246562856190200,9.704190185546874,0.0552215576171875,0.89215087890625,0.6054229736328125
1740246562866172200,9.714172119140626,0.0347442626953125,0.816925048828125,0.509307861328125
1740246562876154000,9.724154052734375,0.0051727294921875,0.7263641357421875,0.40936279296875
1740246562886136000,9.734135986328125,-0.0206756591796875,0.633453369140625,0.32501220703125
1740246562896118300,9.7441181640625,-0.0481414794921875,0.544219970703125,0.2550506591796875
1740246562906100000,9.754099853515624,-0.0707855224609375,0.4639739990234375,0.2079315185546875
1740246562916082200,9.764082275390624,-0.0824127197265625,0.4170074462890625,0.2125701904296875
1740246562926064000,9.774064208984376,-0.0737457275390625,0.4246063232421875,0.30072021484375
1740246562936046000,9.784046142578125,-0.0460357666015625,0.477020263671875,0.413543701171875
1740246562946028000,9.794028076171875,-0.0161285400390625,0.5160369873046875,0.50469970703125
1740246562956011000,9.804010986328125,0.01898193359375,0.537445068359375,0.5941314697265625
1740246562965993200,9.8139931640625,0.0603179931640625,0.56915283203125,0.6915130615234375
1740246562975975000,9.823974853515624,0.1020355224609375,0.6064605712890625,0.792327880859375
1740246562985957000,9.83395703125,0.148101806640625,0.6436614990234375,0.8945770263671875
1740246562995939000,9.84393896484375,0.19610595703125,0.65985107421875,0.974517822265625
1740246563005921000,9.853921142578125,0.243133544921875,0.6390838623046875,1.016571044921875
1740246563015903000,9.863903076171875,0.2825164794921875,0.587982177734375,1.0294189453125
1740246563025885200,9.87388525390625,0.311798095703125,0.5429534912109375,1.0260162353515625
1740246563035867000,9.883866943359376,0.3267822265625,0.532867431640625,1.03485107421875
1740246563045849000,9.89384912109375,0.3328857421875,0.5462493896484375,1.06201171875
1740246563055831300,9.903831298828125,0.3441619873046875,0.5500640869140625,1.0678558349609375
1740246563065813000,9.91381298828125,0.370819091796875,0.538604736328125,1.0538482666015625
1740246563075796200,9.923796142578125,0.4145050048828125,0.54766845703125,1.048675537109375
1740246563085778000,9.93377783203125,0.4388275146484375,0.572479248046875,1.0966339111328125
1740246563095760100,9.943760009765626,0.439178466796875,0.5692901611328125,1.1877288818359375
1740246563105742000,9.9537421875,0.4021453857421875,0.56024169921875,1.2241058349609375
1740246563115724000,9.96372412109375,0.3398284912109375,0.5986328125,1.2342071533203125
1740246563125706200,9.973706298828125,0.264434814453125,0.6346588134765625,1.212493896484375
1740246563135688200,9.983688232421875,0.1824951171875,0.637786865234375,1.18365478515625
1740246563145670100,9.993670166015624,0.11138916015625,0.6313323974609375,1.172943115234375
1740246563155652000,10.003652099609376,0.055267333984375,0.6284332275390625,1.1982574462890625
1740246563165634000,10.013634033203125,0.02435302734375,0.6017913818359375,1.282073974609375
1740246563175616000,10.023615966796875,0.0561676025390625,0.5372467041015625,1.340728759765625
1740246563185598200,10.03359814453125,-0.0376434326171875,0.55743408203125,1.4041748046875
1740246563195580000,10.043579833984374,-0.1506500244140625,0.572784423828125,1.5184326171875
1740246563205563100,10.053563232421874,-0.2119598388671875,0.519866943359375,1.6013946533203125
1740246563215545000,10.063545166015626,-0.2472686767578125,0.4488677978515625,1.629425048828125
1740246563225527000,10.073527099609375,-0.2950286865234375,0.38641357421875,1.6584625244140625
1740246563235509200,10.08350927734375,-0.3303985595703125,0.33282470703125,1.6966094970703125
1740246563245491000,10.093490966796875,-0.3400726318359375,0.285430908203125,1.7392730712890625
1740246563255473200,10.10347314453125,-0.32757568359375,0.2509918212890625,1.7781829833984375
1740246563265455000,10.113455078125,-0.3114471435546875,0.2178497314453125,1.8303375244140625
1740246563275437000,10.12343701171875,-0.294525146484375,0.1828155517578125,1.9282989501953125
1740246563285419000,10.1334189453125,-0.2546539306640625,0.1530914306640625,2.0251312255859375
1740246563295401200,10.143401123046875,-0.199005126953125,0.1409454345703125,2.1014862060546875
1740246563305383200,10.153383056640624,-0.132232666015625,0.1364288330078125,2.1157073974609375
1740246563315365000,10.163365234375,-0.0593414306640625,0.1239776611328125,2.045623779296875
1740246563325348000,10.17334814453125,0.0069427490234375,0.083648681640625,1.9350128173828125
1740246563335330000,10.183330078125,0.089111328125,0.0370025634765625,1.8106231689453125
1740246563345312000,10.19331201171875,0.1724090576171875,0.00244140625,1.707183837890625
1740246563355294000,10.2032939453125,0.2352294921875,-0.0103302001953125,1.6572723388671875
1740246563365276200,10.213276123046874,0.2703857421875,0.01763916015625,1.676239013671875
1740246563375258000,10.223258056640624,0.280670166015625,0.063079833984375,1.7513580322265625
1740246563385240000,10.233239990234376,0.294708251953125,0.082916259765625,1.835845947265625
1740246563395222300,10.24322216796875,0.32232666015625,0.086151123046875,1.88165283203125
1740246563405204000,10.253203857421875,0.3382415771484375,0.06585693359375,1.8522491455078125
1740246563415186200,10.263186279296875,0.3216552734375,-0.0060577392578125,1.747711181640625
1740246563425168100,10.273168212890624,0.291046142578125,-0.1192626953125,1.6385498046875
1740246563435150000,10.283150146484376,0.2590179443359375,-0.2234649658203125,1.5468292236328125
1740246563445133300,10.29313330078125,0.2311248779296875,-0.27508544921875,1.497772216796875
1740246563455115000,10.303114990234375,0.210296630859375,-0.252685546875,1.4936676025390625
1740246563465097200,10.31309716796875,0.2020721435546875,-0.1661834716796875,1.51519775390625
1740246563475079200,10.3230791015625,0.190704345703125,-0.04815673828125,1.5197601318359375
1740246563485061000,10.33306103515625,0.16302490234375,0.069244384765625,1.5165557861328125
1740246563495043000,10.34304296875,0.1184844970703125,0.1649932861328125,1.504974365234375
1740246563505025000,10.35302490234375,0.062957763671875,0.2437896728515625,1.4989166259765625
1740246563515007000,10.363007080078125,0.0135955810546875,0.325286865234375,1.5117645263671875
1740246563524989200,10.3729892578125,-0.0226593017578125,0.379974365234375,1.52874755859375
1740246563534971000,10.382970947265624,-0.047943115234375,0.3999176025390625,1.5532073974609375
1740246563544953000,10.392953125,-0.0681610107421875,0.402557373046875,1.590179443359375
1740246563554935000,10.40293505859375,-0.074432373046875,0.4054412841796875,1.629974365234375
1740246563564917200,10.412917236328125,-0.064056396484375,0.4235076904296875,1.6639251708984375
1740246563574899200,10.422899169921875,-0.0450439453125,0.454742431640625,1.6860198974609375
1740246563584881400,10.43288134765625,-0.0258941650390625,0.4807281494140625,1.6804656982421875
1740246563594863400,10.44286328125,-0.019805908203125,0.5017547607421875,1.65557861328125
1740246563604845300,10.45284521484375,-0.0158233642578125,0.5269317626953125,1.62677001953125
1740246563614827500,10.46282763671875,-0.0141143798828125,0.5599212646484375,1.5980377197265625
1740246563624809200,10.472809326171875,-0.0207977294921875,0.5940093994140625,1.577789306640625
1740246563634791400,10.48279150390625,-0.0386199951171875,0.6243438720703125,1.56097412109375
1740246563644773000,10.492773193359374,-0.0581817626953125,0.6410675048828125,1.548126220703125
1740246563654755300,10.50275537109375,-0.07452392578125,0.66015625,1.543609619140625
1740246563664737300,10.5127373046875,-0.08197021484375,0.6832733154296875,1.5340728759765625
1740246563674720300,10.52272021484375,-0.0768280029296875,0.704833984375,1.512451171875
1740246563684702500,10.532702392578125,-0.06256103515625,0.7222900390625,1.4787139892578125
1740246563694684200,10.54268408203125,-0.04595947265625,0.7332000732421875,1.4331512451171875
1740246563704666400,10.552666259765624,-0.0401763916015625,0.73663330078125,1.38232421875
1740246563714648300,10.5626484375,-0.038055419921875,0.7281036376953125,1.3353729248046875
1740246563724630300,10.57263037109375,-0.0359649658203125,0.717498779296875,1.3022613525390625
1740246563734612200,10.5826123046875,-0.0332489013671875,0.7169189453125,1.29522705078125
1740246563744594400,10.592594482421875,-0.029571533203125,0.7262420654296875,1.2967529296875
1740246563754576100,10.602576171875,-0.025848388671875,0.7284698486328125,1.284576416015625
1740246563764558300,10.612558349609374,-0.0266265869140625,0.7283782958984375,1.2619476318359375
1740246563774540300,10.622540283203126,-0.034088134765625,0.7271728515625,1.2320098876953125
1740246563784522200,10.632522216796875,-0.0454864501953125,0.7222442626953125,1.195220947265625
1740246563794505500,10.64250537109375,-0.053985595703125,0.7212677001953125,1.1642303466796875
1740246563804487200,10.652487060546875,-0.0603485107421875,0.727752685546875,1.1334381103515625
1740246563814469400,10.662469482421875,-0.0653839111328125,0.7391357421875,1.1027984619140625
1740246563824451300,10.672451416015624,-0.0680389404296875,0.751190185546875,1.0692901611328125
1740246563834433300,10.682433349609376,-0.071868896484375,0.75653076171875,1.0186614990234375
1740246563844415200,10.692415283203125,-0.0765533447265625,0.7510833740234375,0.95233154296875
1740246563854397200,10.702397216796875,-0.0689697265625,0.7497100830078125,0.864288330078125
1740246563864379400,10.71237939453125,-0.05706787109375,0.742156982421875,0.75494384765625
1740246563874361300,10.722361328125,-0.0445709228515625,0.714111328125,0.6535491943359375
1740246563884343300,10.73234326171875,-0.0226287841796875,0.700653076171875,0.5844573974609375
1740246563894325200,10.7423251953125,0.0070037841796875,0.72760009765625,0.5483245849609375
1740246563904308200,10.75230810546875,0.0316314697265625,0.7637786865234375,0.522216796875
1740246563914290200,10.762290283203125,0.044342041015625,0.7723541259765625,0.48046875
1740246563924272400,10.7722724609375,0.0459136962890625,0.7476654052734375,0.426971435546875
1740246563934254300,10.78225439453125,0.0313873291015625,0.7027130126953125,0.377593994140625
1740246563944236300,10.792236328125,0.0067291259765625,0.638397216796875,0.3223114013671875
1740246563954218500,10.802218505859376,-0.0205535888671875,0.557586669921875,0.268585205078125
1740246563964200200,10.8122001953125,-0.040069580078125,0.475067138671875,0.232574462890625
1740246563974182400,10.822182373046875,-0.042266845703125,0.4202728271484375,0.23175048828125
1740246563984164400,10.832164306640625,-0.02276611328125,0.4061431884765625,0.262786865234375
1740246563994146300,10.842146240234374,0.0092926025390625,0.4174346923828125,0.3191680908203125
1740246564004128300,10.852128173828126,0.0401153564453125,0.428741455078125,0.399566650390625
1740246564014111200,10.862111328125,0.0700836181640625,0.4353179931640625,0.4780120849609375
1740246564024093400,10.872093505859375,0.09124755859375,0.4472808837890625,0.539703369140625
1740246564034075100,10.8820751953125,0.108978271484375,0.4846954345703125,0.6043548583984375
1740246564044057300,10.892057373046875,0.1273040771484375,0.5326080322265625,0.66400146484375
1740246564054039300,10.902039306640624,0.154296875,0.58587646484375,0.7155609130859375
1740246564064021200,10.912021240234376,0.1781463623046875,0.6204833984375,0.7835845947265625
1740246564074003200,10.922003173828125,0.18450927734375,0.6269378662109375,0.877288818359375
1740246564083985400,10.9319853515625,0.1837921142578125,0.624847412109375,0.98431396484375
1740246564093967000,10.941967041015625,0.17218017578125,0.6253662109375,1.0873870849609375
1740246564103949300,10.95194921875,0.165985107421875,0.62701416015625,1.1709442138671875
1740246564113931500,10.961931640625,0.1711578369140625,0.63348388671875,1.2501220703125
1740246564123913200,10.971913330078126,0.1659393310546875,0.6364593505859375,1.316986083984375
1740246564133896400,10.981896484375,0.1451568603515625,0.6363677978515625,1.36126708984375
1740246564143878100,10.991878173828125,0.1007080078125,0.626312255859375,1.39385986328125
1740246564153860400,11.0018603515625,0.034820556640625,0.5950775146484375,1.39990234375
1740246564163842300,11.01184228515625,-0.024169921875,0.5630340576171875,1.3975067138671875
1740246564173824300,11.02182421875,-0.0777740478515625,0.53802490234375,1.4120941162109375
1740246564183806200,11.03180615234375,-0.1486358642578125,0.5083770751953125,1.462249755859375
1740246564193788400,11.041788330078125,-0.2567596435546875,0.462677001953125,1.60040283203125
1740246564203770400,11.051770263671875,-0.3843841552734375,0.3826446533203125,1.7752532958984375
1740246564213752300,11.06175244140625,-0.517913818359375,0.291015625,1.9451141357421875
1740246564223734300,11.071734375,-0.61334228515625,0.1852264404296875,1.9880828857421875
1740246564233716200,11.08171630859375,-0.645843505859375,0.101348876953125,1.81988525390625
1740246564243699200,11.09169921875,-0.60931396484375,0.0102081298828125,1.5333099365234375
1740246564253681200,11.10168115234375,-0.517730712890625,-0.1239166259765625,1.24664306640625
1740246564263663400,11.111663330078125,-0.404998779296875,-0.2409515380859375,1.099273681640625
1740246564273645300,11.121645263671875,-0.3141632080078125,-0.29248046875,1.110198974609375
1740246564283627300,11.131627197265624,-0.23974609375,-0.2774658203125,1.2360687255859375
1740246564293609500,11.141609375,-0.1814422607421875,-0.2255401611328125,1.367584228515625
1740246564303591200,11.151591064453125,-0.11767578125,-0.1575469970703125,1.4537811279296875
1740246564313573400,11.161573486328125,-0.0239715576171875,-0.104766845703125,1.497467041015625
1740246564323555300,11.171555419921875,0.0326080322265625,-0.0860443115234375,1.5016937255859375
1740246564333537300,11.181537353515624,0.0247650146484375,-0.096405029296875,1.4691009521484375
1740246564343519200,11.191519287109376,0.0067901611328125,-0.10479736328125,1.4236907958984375
1740246564353502200,11.201502197265626,0.0215911865234375,-0.1007080078125,1.400848388671875
1740246564363484400,11.211484375,0.0404052734375,-0.0773162841796875,1.39947509765625
1740246564373466400,11.22146630859375,0.0243682861328125,-0.0690765380859375,1.4134674072265625
1740246564383448300,11.2314482421875,-0.0220184326171875,-0.0802459716796875,1.443450927734375
1740246564393430300,11.24143017578125,-0.075408935546875,-0.093475341796875,1.4765777587890625
1740246564403412200,11.251412109375,-0.110565185546875,-0.10015869140625,1.5204620361328125
1740246564413394200,11.261394287109376,-0.1356201171875,-0.0961761474609375,1.5953521728515625
1740246564423376400,11.27137646484375,-0.1488800048828125,-0.087646484375,1.7208251953125
1740246564433358000,11.281358154296875,-0.1342926025390625,-0.08465576171875,1.856719970703125
1740246564443340300,11.29134033203125,-0.10675048828125,-0.0976104736328125,1.938385009765625
1740246564453322500,11.301322509765624,-0.078216552734375,-0.1095123291015625,1.96185302734375
1740246564463305200,11.31130517578125,-0.065185546875,-0.13592529296875,1.92059326171875
1740246564473287400,11.321287353515626,-0.088958740234375,-0.217803955078125,1.809661865234375
1740246564483269000,11.33126904296875,-0.131256103515625,-0.326904296875,1.6970367431640625
1740246564493251300,11.341251220703125,-0.1721038818359375,-0.4209747314453125,1.619964599609375
1740246564503233300,11.3512333984375,-0.1979522705078125,-0.4649658203125,1.596282958984375
1740246564513215200,11.36121533203125,-0.171356201171875,-0.4160308837890625,1.631134033203125
1740246564523197400,11.371197509765626,-0.1042022705078125,-0.280731201171875,1.7005615234375
1740246564533179400,11.381179443359375,-0.0435791015625,-0.115631103515625,1.73046875
1740246564543161300,11.391161376953125,-0.00860595703125,0.022552490234375,1.716156005859375
1740246564553143300,11.401143310546875,0.001434326171875,0.11163330078125,1.6512908935546875
1740246564563125800,11.411125732421874,-0.00531005859375,0.146392822265625,1.5493621826171875
1740246564573109000,11.42110888671875,-0.0196380615234375,0.151123046875,1.4609222412109375
1740246564583090700,11.431090576171876,-0.04132080078125,0.146728515625,1.4294281005859375
1740246564593073000,11.441072998046875,-0.065216064453125,0.1488494873046875,1.46649169921875
1740246564603054800,11.451054931640625,-0.063201904296875,0.1607208251953125,1.505584716796875
1740246564613036800,11.461036865234375,-0.0453948974609375,0.18133544921875,1.5403289794921875
1740246564623018800,11.471018798828124,-0.0260772705078125,0.2050018310546875,1.5615386962890625
1740246564633001000,11.4810009765625,-0.010345458984375,0.225433349609375,1.5543365478515625
1740246564642982700,11.490982666015626,0.0079803466796875,0.2379913330078125,1.515655517578125
1740246564652964900,11.50096484375,0.015777587890625,0.24053955078125,1.443145751953125
1740246564662946800,11.51094677734375,0.0065460205078125,0.2438507080078125,1.371551513671875
1740246564672928800,11.5209287109375,0.009857177734375,0.261383056640625,1.3271636962890625
1740246564682912000,11.530912109375,-0.0536651611328125,0.261810302734375,1.3078765869140625
1740246564692893700,11.540893798828124,-0.0520477294921875,0.241973876953125,1.322784423828125
1740246564702876000,11.5508759765625,-0.0493927001953125,0.2635650634765625,1.3294830322265625
1740246564712857600,11.560857666015625,-0.11968994140625,0.3005218505859375,1.3495941162109375
1740246564722839800,11.57083984375,-0.1466522216796875,0.33526611328125,1.3404541015625
1740246564732821800,11.58082177734375,-0.164031982421875,0.35272216796875,1.306793212890625
1740246564742803700,11.5908037109375,-0.200439453125,0.3692626953125,1.273101806640625
1740246564752785700,11.60078564453125,-0.224578857421875,0.3880767822265625,1.248046875
1740246564762768000,11.610767822265625,-0.2318267822265625,0.4058380126953125,1.2448577880859375
1740246564772749800,11.620749755859375,-0.22247314453125,0.430145263671875,1.2622528076171875
1740246564782732800,11.63073291015625,-0.21807861328125,0.454254150390625,1.280181884765625
1740246564792714800,11.64071484375,-0.2159576416015625,0.472930908203125,1.291259765625
1740246564802696700,11.65069677734375,-0.212799072265625,0.5008697509765625,1.3050994873046875
1740246564812679000,11.660678955078126,-0.2270050048828125,0.53558349609375,1.3313446044921875
1740246564822660600,11.67066064453125,-0.2414398193359375,0.5614471435546875,1.3366241455078125
1740246564832642800,11.680642822265625,-0.2337799072265625,0.5851898193359375,1.3228912353515625
1740246564842625000,11.690625,-0.2156829833984375,0.6140289306640625,1.29693603515625
1740246564852606700,11.700606689453124,-0.1943359375,0.6465911865234375,1.276397705078125
1740246564862589000,11.7105888671875,-0.17681884765625,0.6907196044921875,1.2602691650390625
1740246564872571000,11.72057080078125,-0.1560211181640625,0.73553466796875,1.222412109375
1740246564882552800,11.730552734375,-0.13067626953125,0.7782745361328125,1.16278076171875
1740246564892535800,11.740535888671875,-0.110809326171875,0.82110595703125,1.074371337890625
1740246564902517800,11.750517822265625,-0.0965423583984375,0.8466796875,0.9606781005859375
1740246564912500000,11.7605,-0.08074951171875,0.8452911376953125,0.8297882080078125
1740246564922481700,11.770481689453124,-0.062347412109375,0.8295440673828125,0.70220947265625
1740246564932463900,11.7804638671875,-0.034332275390625,0.8217315673828125,0.6168365478515625
1740246564942445800,11.79044580078125,-0.0114593505859375,0.8339080810546875,0.568817138671875
1740246564952427800,11.800427734375,-0.0081939697265625,0.8412628173828125,0.5530548095703125
1740246564962409700,11.81040966796875,-0.0175323486328125,0.84393310546875,0.563507080078125
1740246564972392000,11.820391845703124,-0.038482666015625,0.83477783203125,0.56622314453125
1740246564982373600,11.83037353515625,-0.0711517333984375,0.8002166748046875,0.539794921875
1740246564992356900,11.84035693359375,-0.1115875244140625,0.739593505859375,0.493927001953125
1740246565002338800,11.8503388671875,-0.1428375244140625,0.675323486328125,0.4454803466796875
1740246565012320800,11.86032080078125,-0.160736083984375,0.6037445068359375,0.4207763671875
1740246565022303000,11.870302978515625,-0.15277099609375,0.54315185546875,0.4209442138671875
1740246565032284700,11.88028466796875,-0.135009765625,0.5013427734375,0.43157958984375
1740246565042267000,11.890266845703126,-0.1158447265625,0.4750518798828125,0.4713897705078125
1740246565052248800,11.900248779296875,-0.085205078125,0.4744720458984375,0.5424346923828125
1740246565062230800,11.910230712890625,-0.0270538330078125,0.4855804443359375,0.6265869140625
1740246565072214000,11.920214111328125,0.04840087890625,0.4986572265625,0.72186279296875
1740246565082195700,11.93019580078125,0.110687255859375,0.522125244140625,0.82720947265625
1740246565092178000,11.940177978515624,0.1488037109375,0.545318603515625,0.9276275634765625
1740246565102159600,11.95015966796875,0.1701202392578125,0.5566864013671875,0.99871826171875
1740246565112141800,11.960141845703125,0.1751556396484375,0.5451202392578125,1.048919677734375
1740246565122123800,11.970123779296875,0.1651153564453125,0.526885986328125,1.0802764892578125
1740246565132105700,11.980105712890625,0.1435394287109375,0.513824462890625,1.1170501708984375
1740246565142087700,11.990087646484374,0.13214111328125,0.5097198486328125,1.1504974365234375
1740246565152070000,12.00006982421875,0.1373748779296875,0.52081298828125,1.16461181640625
1740246565162051800,12.0100517578125,0.1331329345703125,0.534454345703125,1.166412353515625
1740246565172033800,12.02003369140625,0.1231231689453125,0.5349578857421875,1.141082763671875
1740246565182016800,12.030016845703125,0.10833740234375,0.530517578125,1.099517822265625
1740246565191998700,12.039998779296875,0.07574462890625,0.5377197265625,1.0806121826171875
1740246565201981000,12.04998095703125,0.02508544921875,0.5396575927734375,1.0876617431640625
1740246565211962600,12.059962646484376,-0.0366363525390625,0.5210418701171875,1.1173095703125
1740246565221944800,12.06994482421875,-0.0909576416015625,0.492706298828125,1.15838623046875
1740246565231926800,12.0799267578125,-0.1328125,0.463836669921875,1.221038818359375
1740246565241908700,12.08990869140625,-0.1742401123046875,0.4155426025390625,1.2901763916015625
1740246565251891000,12.099890869140625,-0.2034912109375,0.35321044921875,1.3601531982421875
1740246565261873000,12.109872802734374,-0.2323455810546875,0.29901123046875,1.419647216796875
1740246565271854800,12.119854736328126,-0.2582550048828125,0.2545318603515625,1.45233154296875
1740246565281837800,12.129837890625,-0.2623138427734375,0.262359619140625,1.4894561767578125
1740246565291819800,12.13981982421875,-0.258819580078125,0.2499237060546875,1.4888916015625
1740246565301801700,12.1498017578125,-0.2725830078125,0.2025604248046875,1.453094482421875
1740246565311783700,12.15978369140625,-0.2959747314453125,0.1579132080078125,1.4011077880859375
1740246565321766000,12.169765869140624,-0.3120880126953125,0.12518310546875,1.3776092529296875
1740246565331747800,12.179747802734376,-0.3185272216796875,0.08074951171875,1.3965606689453125
1740246565341729800,12.189729736328125,-0.3125,0.0479888916015625,1.449615478515625
1740246565351711700,12.199711669921875,-0.2928619384765625,0.0308990478515625,1.524017333984375
1740246565361694000,12.20969384765625,-0.2598724365234375,0.0082244873046875,1.5991668701171875
1740246565371675600,12.219675537109374,-0.2219696044921875,-0.014495849609375,1.6513519287109375
1740246565381657900,12.229657958984374,-0.1901092529296875,-0.0325164794921875,1.6806488037109375
1740246565391639800,12.239639892578126,-0.17669677734375,-0.0576171875,1.6980743408203125
1740246565401621800,12.249621826171875,-0.17193603515625,-0.078399658203125,1.7015533447265625
1740246565411603700,12.259603759765625,-0.15557861328125,-0.079254150390625,1.6988677978515625
1740246565421586000,12.2695859375,-0.13720703125,-0.069122314453125,1.722808837890625
1740246565431568000,12.27956787109375,-0.1180419921875,-0.0654449462890625,1.7620849609375
1740246565441550800,12.28955078125,-0.0997314453125,-0.074493408203125,1.7816162109375
1740246565451532800,12.29953271484375,-0.09014892578125,-0.086334228515625,1.7913970947265625
1740246565461514800,12.3095146484375,-0.0786590576171875,-0.0888824462890625,1.8092193603515625
1740246565471496700,12.31949658203125,-0.061431884765625,-0.078155517578125,1.8509674072265625
1740246565481478700,12.329478759765625,-0.04510498046875,-0.0611724853515625,1.8916778564453125
1740246565491460900,12.3394609375,-0.034942626953125,-0.046539306640625,1.912261962890625
1740246565501442800,12.34944287109375,-0.0218353271484375,-0.0488433837890625,1.9111328125
1740246565511424800,12.3594248046875,-0.011688232421875,-0.0663299560546875,1.8577423095703125
1740246565521407000,12.369406982421875,-0.014068603515625,-0.1163330078125,1.7545623779296875
1740246565531388700,12.379388671875,-0.023193359375,-0.186370849609375,1.6450958251953125
1740246565541372000,12.389371826171875,-0.0259857177734375,-0.2433624267578125,1.5568084716796875
1740246565551353600,12.399353515625,-0.0292816162109375,-0.2657318115234375,1.518035888671875
1740246565561335600,12.40933544921875,-0.0215301513671875,-0.2273406982421875,1.49224853515625
1740246565571317500,12.4193173828125,0.004974365234375,-0.134735107421875,1.465545654296875
1740246565581299500,12.429299560546875,0.0155487060546875,-0.0320892333984375,1.420501708984375
1740246565591281700,12.43928173828125,0.009521484375,0.045379638671875,1.377655029296875
1740246565601263600,12.449263671875,-0.0149688720703125,0.1079254150390625,1.344573974609375
1740246565611245600,12.45924560546875,-0.041717529296875,0.1597442626953125,1.3292694091796875
1740246565621227500,12.4692275390625,-0.0615234375,0.209259033203125,1.33538818359375
1740246565631209700,12.479209716796875,-0.073333740234375,0.2447052001953125,1.3624267578125
1740246565641192400,12.4891923828125,-0.0716094970703125,0.2564544677734375,1.394500732421875
1740246565651174700,12.499174560546875,-0.0471954345703125,0.2482452392578125,1.43182373046875
1740246565661156600,12.509156494140624,-0.01605224609375,0.2434234619140625,1.4724273681640625
1740246565671138600,12.519138671875,0.014862060546875,0.24639892578125,1.4943084716796875
1740246565681120500,12.52912060546875,0.02484130859375,0.258575439453125,1.5000457763671875
1740246565691102500,12.5391025390625,0.025146484375,0.276580810546875,1.482513427734375
1740246565701084700,12.549084716796875,0.0453643798828125,0.2968292236328125,1.4445343017578125
1740246565711066400,12.55906640625,0.0539398193359375,0.2982025146484375,1.429718017578125
1740246565721048600,12.569048583984374,0.048187255859375,0.3054351806640625,1.4136810302734375
1740246565731030500,12.579030517578126,0.0218658447265625,0.2859039306640625,1.424285888671875
1740246565741013500,12.589013427734375,0.0546722412109375,0.30047607421875,1.4183502197265625
1740246565750995700,12.59899560546875,0.0035552978515625,0.3313446044921875,1.4115447998046875
1740246565760977400,12.608977294921875,-0.0525970458984375,0.34228515625,1.4036865234375
1740246565770959600,12.618959716796875,-0.0681610107421875,0.349822998046875,1.4136199951171875
1740246565780941600,12.628941650390624,-0.0992431640625,0.3668975830078125,1.4198455810546875
1740246565790923500,12.638923583984376,-0.11761474609375,0.39996337890625,1.4200439453125
1740246565800905500,12.648905517578125,-0.1208038330078125,0.4326324462890625,1.400634765625
1740246565810887700,12.6588876953125,-0.1248626708984375,0.4624786376953125,1.374298095703125
1740246565820869400,12.668869384765625,-0.1352081298828125,0.4824371337890625,1.3501434326171875
1740246565830852600,12.6788525390625,-0.1486968994140625,0.4918670654296875,1.329833984375
1740246565840834600,12.68883447265625,-0.157989501953125,0.5034027099609375,1.3131256103515625
1740246565850816500,12.69881640625,-0.164581298828125,0.52593994140625,1.3015594482421875
1740246565860798700,12.708798828125,-0.1746826171875,0.5506134033203125,1.293731689453125
1740246565870780400,12.718780517578125,-0.1822967529296875,0.5768890380859375,1.296142578125
1740246565880762600,12.7287626953125,-0.181915283203125,0.6074676513671875,1.29229736328125
1740246565890744300,12.738744384765624,-0.180877685546875,0.628692626953125,1.2752838134765625
1740246565900726500,12.7487265625,-0.1668853759765625,0.6479949951171875,1.2512359619140625
1740246565910708700,12.758708740234376,-0.13702392578125,0.6858367919921875,1.2102203369140625
1740246565920690400,12.7686904296875,-0.0994720458984375,0.73822021484375,1.127227783203125
1740246565930673700,12.778673583984375,-0.0637054443359375,0.775634765625,1.0232696533203125
1740246565940655400,12.7886552734375,-0.0327301025390625,0.7861328125,0.9114990234375
1740246565950637600,12.798637451171874,-0.003814697265625,0.7885894775390625,0.80487060546875
1740246565960619500,12.80861962890625,0.0193634033203125,0.78857421875,0.71087646484375
1740246565970601500,12.8186015625,0.0438232421875,0.7830963134765625,0.63275146484375
1740246565980583700,12.828583740234375,0.06805419921875,0.7812652587890625,0.5815887451171875
1740246565990565600,12.838565673828125,0.0826873779296875,0.80364990234375,0.58746337890625
1740246566000547600,12.848547607421875,0.085479736328125,0.8467254638671875,0.6345977783203125
1740246566010529500,12.858529541015624,0.066802978515625,0.8713226318359375,0.666259765625
1740246566020511700,12.86851171875,0.022003173828125,0.8421783447265625,0.655242919921875
1740246566030494500,12.878494384765625,-0.03277587890625,0.771514892578125,0.586761474609375
1740246566040476700,12.8884765625,-0.0876617431640625,0.667449951171875,0.4673919677734375
1740246566050458400,12.898458251953125,-0.1234588623046875,0.55810546875,0.3414306640625
1740246566060440600,12.908440673828125,-0.1192779541015625,0.479522705078125,0.2523193359375
1740246566070422500,12.918422607421874,-0.0865478515625,0.4398956298828125,0.2190093994140625
1740246566080404500,12.928404541015626,-0.0560302734375,0.4295654296875,0.2386322021484375
1740246566090386700,12.93838671875,-0.0360260009765625,0.4340362548828125,0.3063201904296875
1740246566100368400,12.948368408203125,-0.0078277587890625,0.440887451171875,0.4139862060546875
1740246566110350600,12.9583505859375,0.0304718017578125,0.4517669677734375,0.552978515625
1740246566120332500,12.96833251953125,0.070037841796875,0.4810028076171875,0.702301025390625
1740246566130315500,12.9783154296875,0.1015472412109375,0.5155792236328125,0.8212432861328125
1740246566140297700,12.988297607421876,0.1133270263671875,0.5447235107421875,0.894439697265625
1740246566150279400,12.998279541015625,0.107696533203125,0.5622406005859375,0.9485015869140625
1740246566160261600,13.00826171875,0.09112548828125,0.56842041015625,0.9945220947265625
