time,seconds_elapsed,z,y,x
1740246553212287500,0.06028759765625,-1.066548228263855,-1.11956787109375,0.7437658905982971
1740246553222269400,0.07026953125,-1.1663604974746704,-1.663532018661499,0.3968811333179474
1740246553232251400,0.08025146484375,-1.1392828226089478,-1.487952470779419,-0.12588751316070557
1740246553242233600,0.090233642578125,-0.9881719350814819,-0.568600058555603,-0.6422781348228455
1740246553252215300,0.10021533203125,-0.7735933065414429,0.5685973763465881,-0.9152548313140869
1740246553262197500,0.110197509765625,-0.4841012954711914,1.3987574577331543,-0.9421173930168152
1740246553272179500,0.120179443359375,-0.17053963243961334,1.7122613191604614,-0.7457225918769836
1740246553282161400,0.130161376953125,0.09615979343652725,1.563209056854248,-0.43515273928642273
1740246553292143600,0.1401435546875,0.28322795033454895,1.071062445640564,-0.07803509384393692
1740246553302125600,0.15012548828125,0.3660879135131836,0.44608771800994873,0.22642388939857483
1740246553312107500,0.160107421875,0.3868805170059204,-0.0851745754480362,0.39674103260040283
1740246553322089500,0.17008935546875,0.3527594804763794,-0.4506809413433075,0.48106348514556885
1740246553332071400,0.180071533203125,0.3062164783477783,-0.4130270481109619,0.5099436044692993
1740246553342053400,0.190053466796875,0.31012827157974243,0.06153799965977669,0.48526766896247864
1740246553352035600,0.20003564453125,0.44393160939216614,0.7787307500839233,0.42015019059181213
1740246553362017300,0.210017333984375,0.7562876343727112,1.5267751216888428,0.3071053922176361
1740246553371999500,0.21999951171875,1.0429508686065674,1.9234594106674194,0.231520876288414
1740246553381981400,0.2299814453125,1.1943340301513672,1.5302906036376953,0.08014091104269028
1740246553391963400,0.23996337890625,1.1316306591033936,0.4240063726902008,-0.10246831178665161
1740246553401945300,0.2499453125,0.8290801644325256,-0.34488368034362793,-0.21039246022701263
1740246553411927600,0.259927490234375,0.5003582239151001,-0.6963847279548645,-0.289241760969162
1740246553421909500,0.269909423828125,0.33602216839790344,-0.7484958171844482,-0.3156718909740448
1740246553431891500,0.279891357421875,0.317716121673584,-0.22809526324272156,-0.37113460898399353
1740246553441873700,0.289873779296875,0.2361745834350586,0.23161855340003967,-0.3926243782043457
1740246553451855400,0.29985546875,0.057060495018959045,0.7522454857826233,-0.36778855323791504
1740246553461837600,0.309837646484375,-0.1774454116821289,1.25016188621521,-0.3277074992656708
1740246553471819500,0.319819580078125,-0.3523312211036682,1.4420745372772217,-0.34635600447654724
1740246553481801500,0.329801513671875,-0.4258946180343628,1.2780518531799316,-0.45634379982948303
1740246553491783400,0.339783447265625,-0.3364768624305725,0.9455588459968567,-0.693466067314148
1740246553501765400,0.349765380859375,-0.06305412203073502,0.433253675699234,-0.9590207934379578
1740246553511747300,0.359747314453125,0.23788973689079285,-0.03700491786003113,-1.095004916191101
1740246553521729500,0.3697294921875,0.43492719531059265,-0.34350964426994324,-1.038133144378662
1740246553531711500,0.37971142578125,0.4899555444717407,-0.44190627336502075,-0.8061097860336304
1740246553541693400,0.389693359375,0.4253571629524231,-0.31126758456230164,-0.4891798496246338
1740246553551676200,0.39967626953125,0.3140101432800293,-0.03175869956612587,-0.17321258783340454
1740246553561657900,0.409657958984375,0.24796338379383087,0.2117777168750763,0.04842004179954529
1740246553571640000,0.41964013671875,0.2538149058818817,0.2832668125629425,0.152019664645195
1740246553581621800,0.429621826171875,0.2767096161842346,0.24757710099220276,0.17760758101940155
1740246553591604000,0.43960400390625,0.25604987144470215,0.17170338332653046,0.1586109846830368
1740246553601586000,0.4495859375,0.18872997164726257,0.08888748288154602,0.1037394255399704
1740246553611567900,0.45956787109375,0.12308677285909653,0.10024746507406235,0.032292675226926804
1740246553621550000,0.469550048828125,0.09129870682954788,0.20908774435520172,-0.018991239368915558
1740246553631532000,0.479531982421875,0.11754922568798065,0.25851866602897644,-0.06023747846484184
1740246553641514000,0.489513916015625,0.1852254569530487,0.232436403632164,-0.13613194227218628
1740246553651496000,0.499495849609375,0.2689695954322815,0.18510723114013672,-0.2667695879936218
1740246553661478100,0.50947802734375,0.3445402979850769,0.049547627568244934,-0.415924996137619
1740246553671459800,0.5194599609375,0.37677255272865295,-0.1461353302001953,-0.5452073812484741
1740246553681442000,0.529442138671875,0.34021469950675964,-0.29132986068725586,-0.6138691306114197
1740246553691424000,0.539424072265625,0.2147316187620163,-0.3144146800041199,-0.5935097932815552
1740246553701406000,0.549406005859375,0.016136817634105682,-0.15355125069618225,-0.4688827395439148
1740246553711388000,0.559387939453125,-0.18167266249656677,0.10051324218511581,-0.2942486107349396
1740246553721369900,0.569369873046875,-0.3062412142753601,0.335531622171402,-0.04759037494659424
1740246553731351800,0.579351806640625,-0.29392755031585693,0.47517767548561096,0.1992500275373459
1740246553741334000,0.589333984375,-0.1908438801765442,0.6473948955535889,0.4068334102630615
1740246553751316000,0.59931591796875,-0.03588278964161873,0.8441654443740845,0.551671028137207
1740246553761298000,0.6092978515625,0.10596664249897003,1.056318759918213,0.5945752263069153
1740246553771280100,0.619280029296875,0.09273312985897064,1.1221179962158203,0.5556309819221497
1740246553781261800,0.62926171875,0.04217618331313133,1.083445429801941,0.5356045961380005
1740246553791244000,0.639244140625,0.03466314077377319,0.9858259558677673,0.5340051054954529
1740246553801226000,0.64922607421875,0.10727228224277496,0.874336838722229,0.5344581604003906
1740246553811208000,0.6592080078125,0.2469223141670227,0.7472902536392212,0.5606673955917358
1740246553821190000,0.66918994140625,0.40206876397132874,0.6652822494506836,0.6168443560600281
1740246553831172000,0.679172119140625,0.5342364311218262,0.5519285202026367,0.6599884033203125
1740246553841153800,0.68915380859375,0.5864403247833252,0.37350502610206604,0.6282119750976562
1740246553851136000,0.699135986328125,0.5176404714584351,0.13628314435482025,0.5116715431213379
1740246553861118000,0.709117919921875,0.35121554136276245,-0.04695457965135574,0.3553229570388794
1740246553871100000,0.719099853515625,0.1597142070531845,-0.08373470604419708,0.2244883030653
1740246553881082000,0.72908203125,-0.040629200637340546,0.005846582818776369,0.15674889087677002
1740246553891063800,0.739063720703125,-0.2672194540500641,0.12644410133361816,0.1281774342060089
1740246553901046000,0.7490458984375,-0.5131914615631104,0.23080430924892426,0.09323406964540482
1740246553911028000,0.759028076171875,-0.7149519920349121,0.1899024099111557,-0.05151566118001938
1740246553921010000,0.769010009765625,-0.8711358904838562,0.17217133939266205,-0.38243111968040466
1740246553930991900,0.778991943359375,-0.8753120303153992,-0.02945365011692047,-0.693712592124939
1740246553940974000,0.78897412109375,-0.8374161720275879,0.016457676887512207,-0.8670487403869629
1740246553950955800,0.798955810546875,-0.7863585352897644,-0.08960884064435959,-0.8090698719024658
1740246553960938000,0.80893798828125,-0.7499622106552124,-0.12426651269197464,-0.5755990147590637
1740246553970920000,0.818919921875,-0.8083925247192383,0.06309698522090912,-0.25781601667404175
1740246553980902000,0.82890185546875,-0.9517543911933899,0.4178462624549866,0.10547125339508057
1740246553990884000,0.838884033203125,-1.1326980590820312,0.8600277304649353,0.4977615475654602
1740246554000866000,0.848865966796875,-1.2574763298034668,1.1337783336639404,0.8772187232971191
1740246554010848000,0.858847900390625,-1.30985426902771,1.1338359117507935,1.140899896621704
1740246554020830000,0.868829833984375,-1.3349591493606567,0.943642258644104,1.2137928009033203
1740246554030812000,0.87881201171875,-1.4028120040893555,1.0776846408843994,0.9636977314949036
1740246554040793900,0.8887939453125,-1.5987153053283691,1.280449390411377,0.5715587735176086
1740246554050776800,0.89877685546875,-1.9165973663330078,1.195662021636963,0.35529783368110657
1740246554060759000,0.908759033203125,-2.25414776802063,0.8809004426002502,0.3783740699291229
1740246554070741000,0.918740966796875,-2.508902072906494,0.8500301837921143,0.4947563409805298
1740246554080723000,0.928722900390625,-2.446157932281494,1.1143032312393188,0.5614854693412781
1740246554090705000,0.938704833984375,-2.0259532928466797,1.3347150087356567,0.6144144535064697
1740246554100687000,0.94868701171875,-1.5628931522369385,1.3807021379470825,0.6292259693145752
1740246554110668800,0.958668701171875,-1.2221989631652832,1.3963186740875244,0.4371046721935272
1740246554120651000,0.968651123046875,-1.2452505826950073,1.1404199600219727,-0.2500925660133362
1740246554130633000,0.978633056640625,-1.5408002138137817,0.9034979343414307,-1.2330677509307861
1740246554140615000,0.988614990234375,-1.8130348920822144,0.611855685710907,-2.006969451904297
1740246554150596900,0.998596923828125,-2.0936121940612793,0.5360237956047058,-2.5252180099487305
1740246554160579000,1.0085791015625,-2.4053611755371094,0.8598799109458923,-2.7566423416137695
1740246554170561000,1.01856103515625,-2.8015599250793457,1.3464362621307373,-2.7027695178985596
1740246554180543000,1.02854296875,-3.289870500564575,1.8099323511123657,-2.4030585289001465
1740246554190525000,1.03852490234375,-3.675153970718384,2.051004648208618,-1.9405381679534912
1740246554200507000,1.0485068359375,-3.8679912090301514,2.255315065383911,-1.4351575374603271
1740246554210489000,1.058489013671875,-3.9068453311920166,2.513277530670166,-1.002090334892273
1740246554220470800,1.068470703125,-3.861658811569214,2.6619904041290283,-0.6518384218215942
1740246554230453000,1.078452880859375,-3.849796772003174,2.604090452194214,-0.3878946304321289
1740246554240435000,1.08843505859375,-4.005005359649658,2.4828553199768066,-0.23354890942573547
1740246554250417000,1.0984169921875,-4.090443134307861,2.596144199371338,-0.18547964096069336
1740246554260398800,1.10839892578125,-3.9997754096984863,2.8142993450164795,-0.21978867053985596
1740246554270381000,1.118381103515625,-3.7100913524627686,3.1056621074676514,-0.2795689105987549
1740246554280363000,1.128363037109375,-3.3318591117858887,3.566906452178955,-0.2788172960281372
1740246554290345000,1.138344970703125,-2.927536964416504,4.1164021492004395,-0.12439683079719543
1740246554300327200,1.1483271484375,-2.7053356170654297,4.356419563293457,0.25224536657333374
1740246554310308900,1.158308837890625,-2.5826570987701416,4.337891101837158,0.6794188022613525
1740246554320291000,1.168291015625,-2.41766095161438,4.084142684936523,1.0393147468566895
1740246554330273000,1.17827294921875,-2.2327933311462402,3.7528836727142334,1.22959566116333
1740246554340255000,1.1882548828125,-2.0915284156799316,3.4754366874694824,1.2305176258087158
1740246554350237000,1.19823681640625,-2.0156242847442627,3.187459945678711,1.100046992301941
1740246554360219000,1.208218994140625,-1.9513602256774902,2.870882749557495,0.8109447360038757
1740246554370200800,1.218200927734375,-1.8824516534805298,2.7962231636047363,0.4197700619697571
1740246554380183000,1.22818310546875,-1.769721269607544,2.822258472442627,0.12837520241737366
1740246554390164700,1.238164794921875,-1.6086163520812988,2.82938289642334,-0.04135764390230179
1740246554400147000,1.24814697265625,-1.3512067794799805,2.7670140266418457,-0.10517541319131851
1740246554410129200,1.258129150390625,-0.9393038749694824,2.3678553104400635,-0.15283533930778503
1740246554420110800,1.26811083984375,-0.4954721927642822,1.751288652420044,-0.361015647649765
1740246554430093000,1.278093017578125,-0.2507458031177521,1.1095507144927979,-0.7763707637786865
1740246554440075000,1.288074951171875,-0.32823246717453003,0.565211832523346,-1.4271665811538696
1740246554450057000,1.298056884765625,-0.6164419054985046,0.17741245031356812,-2.2307653427124023
1740246554460039000,1.308038818359375,-0.9314784407615662,-0.12004035711288452,-2.9926695823669434
1740246554470021000,1.318021240234375,-1.1460901498794556,-0.30453377962112427,-3.6114304065704346
1740246554480002800,1.3280029296875,-1.1731410026550293,-0.3884936571121216,-4.042696475982666
1740246554489985000,1.337985107421875,-1.0835703611373901,-0.479095995426178,-4.35058069229126
1740246554499967000,1.347967041015625,-0.9245445728302002,-0.714640200138092,-4.56265926361084
1740246554509949000,1.357948974609375,-0.695767879486084,-1.1790448427200317,-4.657966613769531
1740246554519931100,1.36793115234375,-0.4832822382450104,-1.723596215248108,-4.614144325256348
1740246554529912800,1.377912841796875,-0.39613109827041626,-2.1150591373443604,-4.459789276123047
1740246554539895000,1.38789501953125,-0.4562068581581116,-2.2617404460906982,-4.197338581085205
1740246554549877000,1.397876953125,-0.5977946519851685,-2.186223268508911,-3.8174712657928467
1740246554559858400,1.4078583984375,-0.77017742395401,-1.9080572128295898,-3.3151695728302
1740246554569840000,1.417840087890625,-0.9460437893867493,-1.4953495264053345,-2.727928400039673
1740246554579822300,1.427822265625,-1.1315674781799316,-1.0253856182098389,-2.1107406616210938
1740246554589804300,1.43780419921875,-1.279585361480713,-0.5200631618499756,-1.5049269199371338
1740246554599786200,1.4477861328125,-1.3087455034255981,-0.05308040231466293,-0.9055303931236267
1740246554609768400,1.4577685546875,-1.1668111085891724,0.29000160098075867,-0.2964212894439697
1740246554619750100,1.467750244140625,-0.8791622519493103,0.43622297048568726,0.28134751319885254
1740246554629732400,1.477732421875,-0.5222653746604919,0.3672636151313782,0.7624619007110596
1740246554639714300,1.48771435546875,-0.20527422428131104,0.17841006815433502,1.1145402193069458
1740246554649696300,1.4976962890625,0.01455293595790863,-0.042472779750823975,1.3087480068206787
1740246554659678200,1.50767822265625,0.14031140506267548,-0.23940414190292358,1.3443918228149414
1740246554669660400,1.517660400390625,0.19435334205627441,-0.3676801025867462,1.2075934410095215
1740246554679642000,1.52764208984375,0.20450016856193542,-0.4069117307662964,0.9333704710006714
1740246554689624300,1.537624267578125,0.21190455555915833,-0.38253846764564514,0.6219322085380554
1740246554699607300,1.547607177734375,0.2525874376296997,-0.3186038136482239,0.35751739144325256
1740246554709589200,1.55758935546875,0.34456050395965576,-0.29103556275367737,0.17373982071876526
1740246554719571500,1.567571533203125,0.4536266624927521,-0.3413914442062378,0.04897031933069229
1740246554729553200,1.57755322265625,0.5588718056678772,-0.4676241874694824,-0.035973597317934036
1740246554739535400,1.587535400390625,0.6669603586196899,-0.6637018322944641,-0.09505587071180344
1740246554749517300,1.597517333984375,0.7714499831199646,-0.8853223919868469,-0.11855746805667877
1740246554759499300,1.607499267578125,0.8318817615509033,-1.0457028150558472,-0.1242290660738945
1740246554769481200,1.617481201171875,0.8457157611846924,-1.104150414466858,-0.11425792425870895
1740246554779463200,1.627463134765625,0.8127281665802002,-1.0520906448364258,-0.08485596626996994
1740246554789445400,1.6374453125,0.7485928535461426,-0.9036495685577393,-0.0346607081592083
1740246554799427300,1.64742724609375,0.6857913136482239,-0.6820852160453796,0.04468017816543579
1740246554809409300,1.6574091796875,0.6201537251472473,-0.5170345306396484,0.1282765418291092
1740246554819391200,1.66739111328125,0.5603119730949402,-0.3819928765296936,0.1941915899515152
1740246554829373400,1.67737353515625,0.5193978548049927,-0.20425671339035034,0.2384147197008133
1740246554839355100,1.687355224609375,0.49177664518356323,0.04604187607765198,0.30393290519714355
1740246554849337300,1.69733740234375,0.44731199741363525,0.3437630534172058,0.4276372790336609
1740246554859319300,1.7073193359375,0.35678696632385254,0.6588211059570312,0.5921209454536438
1740246554869301200,1.71730126953125,0.21910952031612396,1.0128990411758423,0.7677851915359497
1740246554879283200,1.727283203125,0.09092819690704346,1.413455605506897,0.9028031229972839
1740246554889265400,1.737265380859375,0.00018604984506964684,1.8382806777954102,0.979240894317627
1740246554899247400,1.747247314453125,-0.07704795897006989,2.280939817428589,1.007344365119934
1740246554909229300,1.757229248046875,-0.1252647489309311,2.7056803703308105,1.0146055221557617
1740246554919211300,1.767211181640625,-0.12512150406837463,3.0157570838928223,1.0139399766921997
1740246554929193200,1.777193115234375,-0.063468798995018,3.214015007019043,1.0415621995925903
1740246554939175400,1.787175537109375,0.07827178388834,3.3089218139648438,1.0983121395111084
1740246554949157000,1.7971572265625,0.28247231245040894,3.3334457874298096,1.1290184259414673
1740246554959139300,1.807139404296875,0.5067965984344482,3.328789472579956,1.1131325960159302
1740246554969121300,1.817121337890625,0.7488483786582947,3.172318696975708,1.0579992532730103
1740246554979103200,1.827103271484375,0.9936438798904419,2.8139634132385254,0.9909988045692444
1740246554989085200,1.837085205078125,1.256125569343567,2.264310836791992,0.9548237323760986
1740246554999067400,1.8470673828125,1.5372562408447266,1.6003544330596924,0.9767113924026489
1740246555009049300,1.85704931640625,1.8238203525543213,0.9501209259033203,1.0701144933700562
1740246555019031300,1.86703125,2.1067841053009033,0.48287805914878845,1.1850720643997192
1740246555029013500,1.877013427734375,2.3713316917419434,0.29655930399894714,1.2665256261825562
1740246555038995200,1.8869951171875,2.6005749702453613,0.31892940402030945,1.2651630640029907
1740246555048977400,1.896977294921875,2.8242361545562744,0.3700178861618042,1.170395851135254
1740246555058959400,1.90695947265625,3.032961845397949,0.3172229528427124,1.0590204000473022
1740246555068941300,1.91694140625,3.195131301879883,0.20593371987342834,0.989993691444397
1740246555078923300,1.92692333984375,3.297426700592041,0.11949498951435089,0.9688192009925842
1740246555088905200,1.9369052734375,3.3272128105163574,0.10095859318971634,0.977794885635376
1740246555098887200,1.94688720703125,3.281721591949463,0.08224525302648544,0.9984557032585144
1740246555108869400,1.956869384765625,3.1739368438720703,-0.0057165613397955894,1.0129566192626953
1740246555118851000,1.96685107421875,3.02337384223938,-0.15401369333267212,1.0098530054092407
1740246555128833300,1.976833251953125,2.8617587089538574,-0.2808251678943634,0.9590100049972534
1740246555138815500,1.9868154296875,2.714942455291748,-0.3072567880153656,0.811858057975769
1740246555148797200,1.996797119140625,2.5978991985321045,-0.21515429019927979,0.5601517558097839
1740246555158779400,2.006779296875,2.5156326293945312,-0.08023552596569061,0.25246936082839966
1740246555168761300,2.01676123046875,2.458993434906006,0.040327638387680054,-0.030925337225198746
1740246555178744300,2.026744384765625,2.4233205318450928,0.07119561731815338,-0.21631446480751038
1740246555188726300,2.036726318359375,2.379807472229004,-0.03851090371608734,-0.30066317319869995
1740246555198708200,2.046708251953125,2.335299253463745,-0.2622234523296356,-0.329152375459671
1740246555208690400,2.0566904296875,2.31425142288208,-0.5155002474784851,-0.337632417678833
1740246555218672400,2.06667236328125,2.3329861164093018,-0.6937645077705383,-0.33714666962623596
1740246555228654300,2.076654296875,2.382176399230957,-0.7431021928787231,-0.33705371618270874
1740246555238636300,2.08663623046875,2.4410622119903564,-0.6906958222389221,-0.3286817669868469
1740246555248618200,2.0966181640625,2.4876513481140137,-0.592915952205658,-0.288145512342453
1740246555258600200,2.10660009765625,2.5155155658721924,-0.4822154939174652,-0.20880374312400818
1740246555268582400,2.11658251953125,2.5306596755981445,-0.38261887431144714,-0.08023511618375778
1740246555278564000,2.126564208984375,2.543400287628174,-0.32335424423217773,0.07541484385728836
1740246555288546300,2.13654638671875,2.516735315322876,-0.3425298035144806,0.23648814857006073
1740246555298528300,2.1465283203125,2.44486665725708,-0.4566025733947754,0.38462674617767334
1740246555308510200,2.15651025390625,2.3497304916381836,-0.616895318031311,0.5167198181152344
1740246555318492400,2.166492431640625,2.247501850128174,-0.7627114653587341,0.6216990351676941
1740246555328474400,2.176474365234375,2.1531951427459717,-0.8434476256370544,0.6925729513168335
1740246555338456300,2.186456298828125,2.0532290935516357,-0.8307182192802429,0.7245757579803467
1740246555348438300,2.196438232421875,1.9384148120880127,-0.7217414379119873,0.7032233476638794
1740246555358420500,2.20642041015625,1.8045713901519775,-0.5478375554084778,0.6687253713607788
1740246555368402200,2.216402099609375,1.6653738021850586,-0.3513084948062897,0.6298730969429016
1740246555378384400,2.22638427734375,1.5245692729949951,-0.15090817213058472,0.6044921875
1740246555388366300,2.236366455078125,1.3735871315002441,0.02362074702978134,0.6021595597267151
1740246555398348300,2.246348388671875,1.2131991386413574,0.17805644869804382,0.6101766228675842
1740246555408330200,2.256330322265625,1.0415445566177368,0.3052988052368164,0.6204566955566406
1740246555418312200,2.266312255859375,0.8483533263206482,0.38731780648231506,0.6205671429634094
1740246555428294100,2.276294189453125,0.6339081525802612,0.3954247236251831,0.6113869547843933
1740246555438276400,2.2862763671875,0.37700653076171875,0.324139803647995,0.6015891432762146
1740246555448258300,2.29625830078125,0.10004923492670059,0.2342810034751892,0.599015474319458
1740246555458240300,2.306240234375,-0.18261583149433136,0.16909420490264893,0.6137530207633972
1740246555468222500,2.316222412109375,-0.4967963993549347,0.15164197981357574,0.6189938187599182
1740246555478204200,2.3262041015625,-0.8392132520675659,0.16752639412879944,0.6109767556190491
1740246555488186400,2.336186279296875,-1.1950154304504395,0.1680600941181183,0.5906467437744141
1740246555498168300,2.346168212890625,-1.5783666372299194,0.17548367381095886,0.5357204079627991
1740246555508150300,2.356150390625,-1.972525715827942,0.1728878915309906,0.43407341837882996
1740246555518132200,2.36613232421875,-2.355309247970581,0.16303622722625732,0.28653037548065186
1740246555528114400,2.376114501953125,-2.715562343597412,0.11673370003700256,0.10846769064664841
1740246555538096000,2.38609619140625,-3.0503077507019043,0.04663132503628731,-0.09790478646755219
1740246555548078300,2.396078369140625,-3.364948272705078,-0.0471191368997097,-0.35395678877830505
1740246555558060800,2.406060791015625,-3.6299550533294678,-0.18667396903038025,-0.6789074540138245
1740246555568042800,2.416042724609375,-3.824253797531128,-0.2831035554409027,-1.0593312978744507
1740246555578025000,2.42602490234375,-3.9693603515625,-0.29799583554267883,-1.451516032218933
1740246555588006700,2.436006591796875,-4.137170314788818,-0.2509095370769501,-1.8214517831802368
1740246555597990000,2.445989990234375,-4.397861003875732,-0.19734050333499908,-2.1577768325805664
1740246555607971800,2.455971923828125,-4.769043445587158,-0.20013868808746338,-2.446718454360962
1740246555617953800,2.465953857421875,-5.201396942138672,-0.167030930519104,-2.656454563140869
1740246555627936000,2.47593603515625,-5.601365089416504,0.005196490790694952,-2.7318153381347656
1740246555637917700,2.485917724609375,-5.915083408355713,0.2983425557613373,-2.6664764881134033
1740246555647900000,2.49589990234375,-6.045611381530762,0.5943529009819031,-2.487607479095459
1740246555657881900,2.5058818359375,-5.8756103515625,0.7659230828285217,-2.1791396141052246
1740246555667863800,2.51586376953125,-5.477463245391846,0.8446775078773499,-1.7791787385940552
1740246555677845800,2.525845703125,-4.965992450714111,0.8583157062530518,-1.3523932695388794
1740246555687827700,2.53582763671875,-4.481691837310791,0.8278563618659973,-0.9747821092605591
1740246555697809700,2.5458095703125,-4.0860724449157715,0.7348933219909668,-0.6975888609886169
1740246555707792000,2.5557919921875,-3.759458303451538,0.5782051682472229,-0.5640206933021545
1740246555717773800,2.56577392578125,-3.4793384075164795,0.37732765078544617,-0.5558419227600098
1740246555727755800,2.575755859375,-3.2226037979125977,0.1330779492855072,-0.6428865790367126
1740246555737738000,2.585738037109375,-2.955078125,-0.17760877311229706,-0.7709935903549194
1740246555747719700,2.5957197265625,-2.6710057258605957,-0.5595585107803345,-0.9145148396492004
1740246555757702000,2.605701904296875,-2.3891074657440186,-0.933314323425293,-1.0518091917037964
1740246555767683800,2.615683837890625,-2.1370198726654053,-1.2102359533309937,-1.1504113674163818
1740246555777665800,2.625665771484375,-1.9431111812591553,-1.3858271837234497,-1.1848195791244507
1740246555787647700,2.635647705078125,-1.812878131866455,-1.4528288841247559,-1.1597496271133423
1740246555797630000,2.6456298828125,-1.724141001701355,-1.3979331254959106,-1.074620008468628
1740246555807611600,2.655611572265625,-1.6462891101837158,-1.2528949975967407,-0.931156575679779
1740246555817593900,2.66559375,-1.5575224161148071,-1.0790503025054932,-0.7386772632598877
1740246555827575800,2.675575927734375,-1.4829504489898682,-0.8841264843940735,-0.5144287347793579
1740246555837557800,2.685557861328125,-1.3995978832244873,-0.671177864074707,-0.27724209427833557
1740246555847540000,2.6955400390625,-1.2905337810516357,-0.45381680130958557,-0.01713726483285427
1740246555857521700,2.705521728515625,-1.1916552782058716,-0.2417956441640854,0.23438961803913116
1740246555867503900,2.71550390625,-1.1554330587387085,-0.01971198432147503,0.4294664263725281
1740246555877485800,2.72548583984375,-1.207448124885559,0.24603523313999176,0.5364542007446289
1740246555887467800,2.7354677734375,-1.3333019018173218,0.5271028280258179,0.5720513463020325
1740246555897449700,2.74544970703125,-1.5290557146072388,0.7921093702316284,0.5739917159080505
1740246555907432000,2.755431884765625,-1.7302253246307373,0.977229654788971,0.5951793193817139
1740246555917413600,2.76541357421875,-1.9104822874069214,1.036120057106018,0.64387446641922
1740246555927395800,2.775395751953125,-2.0334227085113525,1.0020251274108887,0.6993997693061829
1740246555937377800,2.785377685546875,-2.080289125442505,0.9366252422332764,0.7690458297729492
1740246555947359700,2.79535986328125,-2.0511138439178467,0.9358544945716858,0.8534315228462219
1740246555957343000,2.805343017578125,-1.9425582885742188,1.06333327293396,0.9477362632751465
1740246555967324700,2.81532470703125,-1.720762014389038,1.2630552053451538,1.0397226810455322
1740246555977307000,2.825306884765625,-1.3814891576766968,1.478871464729309,1.1088309288024902
1740246555987288800,2.835288818359375,-0.9371113181114197,1.7141481637954712,1.1096107959747314
1740246555997270800,2.845270751953125,-0.45389142632484436,1.9539778232574463,0.9830161333084106
1740246556007252700,2.855252685546875,-0.02405669167637825,2.1449053287506104,0.7141748070716858
1740246556017234700,2.865234619140625,0.29753682017326355,2.1446664333343506,0.3932393193244934
1740246556027217000,2.875216796875,0.518108069896698,1.942992925643921,0.11221644282341003
1740246556037198800,2.88519873046875,0.7043318152427673,1.5922423601150513,-0.0688665509223938
1740246556047180800,2.895180908203125,0.9846758246421814,1.1342185735702515,-0.10572630167007446
1740246556057162800,2.905162841796875,1.4022632837295532,0.6325540542602539,-0.020981982350349426
1740246556067145000,2.91514501953125,1.8926985263824463,0.17455054819583893,0.09130994230508804
1740246556077126700,2.925126708984375,2.4080405235290527,-0.1081087663769722,0.14223900437355042
1740246556087108900,2.93510888671875,2.956143856048584,-0.19328439235687256,0.10567726939916611
1740246556097090800,2.9450908203125,3.4862325191497803,-0.20048706233501434,0.024813299998641014
1740246556107072800,2.95507275390625,3.897082805633545,-0.210097074508667,-0.016714703291654587
1740246556117054700,2.9650546875,4.16390323638916,-0.19033092260360718,-0.00993786659091711
1740246556127037000,2.975036865234375,4.298692226409912,-0.13212141394615173,0.06659232825040817
1740246556137018600,2.9850185546875,4.323779106140137,-0.07589484006166458,0.21943895518779755
1740246556147000800,2.995000732421875,4.285674095153809,-0.02758323773741722,0.44804924726486206
1740246556156982800,3.004982666015625,4.221136093139648,0.04239112138748169,0.7384299635887146
1740246556166964700,3.01496484375,4.1541666984558105,0.15423429012298584,1.053405523300171
1740246556176947000,3.024947021484375,4.137743949890137,0.2716555595397949,1.3561320304870605
1740246556186928600,3.0349287109375,4.18363094329834,0.3436815142631531,1.5923219919204712
1740246556196910800,3.044910888671875,4.246209144592285,0.3720216155052185,1.7474720478057861
1740246556206892800,3.054892822265625,4.269638538360596,0.42155587673187256,1.8232344388961792
1740246556216874800,3.064874755859375,4.241602420806885,0.5091606974601746,1.8192596435546875
1740246556226856700,3.074856689453125,4.195215225219727,0.5924782156944275,1.732996940612793
1740246556236839000,3.0848388671875,4.14121675491333,0.6654534339904785,1.5754790306091309
1740246556246820600,3.094820556640625,4.09746789932251,0.7370421290397644,1.3740156888961792
1740246556256802800,3.104802734375,4.043050289154053,0.787182629108429,1.1509877443313599
1740246556266785000,3.114784912109375,3.9916574954986572,0.8190976977348328,0.9374868869781494
1740246556276766700,3.1247666015625,3.9544119834899902,0.8169560432434082,0.7532768249511719
1740246556286749000,3.1347490234375,3.9449048042297363,0.76653653383255,0.6101647019386292
1740246556296731600,3.144731689453125,3.9603865146636963,0.6901344060897827,0.5038235187530518
1740246556306713900,3.1547138671875,3.9817614555358887,0.6130276322364807,0.4309186637401581
1740246556316695800,3.16469580078125,3.991177797317505,0.5120587348937988,0.4046730101108551
1740246556326677800,3.174677734375,3.974658250808716,0.39315202832221985,0.4158084988594055
1740246556336660000,3.184659912109375,3.946667432785034,0.2763490080833435,0.4615013599395752
1740246556346641700,3.1946416015625,3.9150800704956055,0.19878868758678436,0.5114496946334839
1740246556356624000,3.204623779296875,3.8822827339172363,0.15381677448749542,0.5598376393318176
1740246556366605800,3.214605712890625,3.8395490646362305,0.13260044157505035,0.5995312333106995
1740246556376587800,3.224587890625,3.7553794384002686,0.133034810423851,0.6426405906677246
1740246556386569700,3.23456982421875,3.6202213764190674,0.19422413408756256,0.7191132307052612
1740246556396552000,3.244552001953125,3.5000545978546143,0.28639113903045654,0.8192876577377319
1740246556406533600,3.25453369140625,3.444176197052002,0.3875366747379303,0.9075483083724976
1740246556416515800,3.264515869140625,3.4315402507781982,0.4498453140258789,0.9899632930755615
1740246556426497800,3.274497802734375,3.431102991104126,0.4708331525325775,1.0728272199630737
1740246556436479700,3.284479736328125,3.4053409099578857,0.48098886013031006,1.1704598665237427
1740246556446462000,3.2944619140625,3.320744752883911,0.5221075415611267,1.2675073146820068
1740246556456444000,3.30444384765625,3.1687631607055664,0.5560972094535828,1.3325724601745605
1740246556466425900,3.31442578125,2.9596307277679443,0.5499858260154724,1.3360092639923096
1740246556476407800,3.32440771484375,2.732478618621826,0.5139003992080688,1.266578197479248
1740246556486389800,3.3343896484375,2.5077226161956787,0.4493030309677124,1.1490867137908936
1740246556496371700,3.344371826171875,2.335258722305298,0.33112210035324097,1.0086255073547363
1740246556506354000,3.35435400390625,2.2242484092712402,0.1913117617368698,0.8701877593994141
1740246556516335600,3.364335693359375,2.102566719055176,0.09182856231927872,0.7160059809684753
1740246556526317800,3.37431787109375,1.8844672441482544,0.043627746403217316,0.5341823697090149
1740246556536299800,3.3842998046875,1.5594563484191895,0.0012662597000598907,0.3368209898471832
1740246556546281700,3.39428173828125,1.164147973060608,-0.09027297794818878,0.1393694132566452
1740246556556263400,3.404263427734375,0.7263104915618896,-0.2629835605621338,-0.07667828351259232
1740246556566245600,3.41424560546875,0.25626710057258606,-0.5200822353363037,-0.313694030046463
1740246556576227600,3.4242275390625,-0.23104368150234222,-0.8108717203140259,-0.5784381628036499
1740246556586209500,3.43420947265625,-0.7304827570915222,-1.0825445652008057,-0.8627005219459534
1740246556596191700,3.444191650390625,-1.2173956632614136,-1.3314062356948853,-1.1482017040252686
1740246556606174500,3.454174560546875,-1.6644941568374634,-1.525979995727539,-1.3874601125717163
1740246556616156700,3.46415673828125,-2.0457262992858887,-1.6708506345748901,-1.5627800226211548
1740246556626138400,3.474138427734375,-2.3564341068267822,-1.7537933588027954,-1.659641146659851
1740246556636120600,3.48412060546875,-2.6112427711486816,-1.7537236213684082,-1.6910099983215332
1740246556646102800,3.494102783203125,-2.8203771114349365,-1.664820909500122,-1.6762689352035522
1740246556656084500,3.50408447265625,-2.996760606765747,-1.5503615140914917,-1.6248271465301514
1740246556666066700,3.514066650390625,-3.1953673362731934,-1.426506519317627,-1.5690746307373047
1740246556676048600,3.524048583984375,-3.489361524581909,-1.2441312074661255,-1.5480411052703857
1740246556686030600,3.534030517578125,-3.887343168258667,-0.9447607398033142,-1.589571237564087
1740246556696012500,3.544012451171875,-4.323334217071533,-0.5453814268112183,-1.7053598165512085
1740246556705994500,3.553994384765625,-4.744369029998779,-0.1499483436346054,-1.9190465211868286
1740246556715976400,3.5639765625,-5.093538284301758,0.16629427671432495,-2.2087719440460205
1740246556725958700,3.573958740234375,-5.310271263122559,0.4183203876018524,-2.49843430519104
1740246556735940400,3.5839404296875,-5.450913906097412,0.6089951395988464,-2.7361204624176025
1740246556745922600,3.593922607421875,-5.5722336769104,0.7512667775154114,-2.900049924850464
1740246556755904500,3.603904541015625,-5.69119930267334,0.7962690591812134,-3.002715826034546
1740246556765886500,3.613886474609375,-5.79501485824585,0.7158657908439636,-3.044668436050415
1740246556775868700,3.62386865234375,-5.873659133911133,0.5866488218307495,-3.0343334674835205
1740246556785850600,3.6338505859375,-5.892670631408691,0.4601840674877167,-2.9911603927612305
1740246556795832600,3.64383251953125,-5.8407111167907715,0.37820684909820557,-2.955763101577759
1740246556805814500,3.653814453125,-5.7447381019592285,0.4347390830516815,-2.9226787090301514
1740246556815796700,3.663796630859375,-5.616731643676758,0.570031464099884,-2.832784652709961
1740246556825778400,3.6737783203125,-5.457788944244385,0.6719439625740051,-2.6389129161834717
1740246556835760600,3.6837607421875,-5.264475345611572,0.7093313932418823,-2.3761239051818848
1740246556845742600,3.69374267578125,-5.032207489013672,0.7036444544792175,-2.0878522396087646
1740246556855724500,3.703724609375,-4.775542736053467,0.7117266654968262,-1.8103454113006592
1740246556865706500,3.71370654296875,-4.5046467781066895,0.7403708100318909,-1.5834903717041016
1740246556875688400,3.7236884765625,-4.201832294464111,0.7327644228935242,-1.397171974182129
1740246556885670700,3.733670654296875,-3.8861660957336426,0.6840717196464539,-1.2400012016296387
1740246556895653400,3.7436533203125,-3.622750759124756,0.6474098563194275,-1.0863410234451294
1740246556905635600,3.753635498046875,-3.421444892883301,0.6149877309799194,-0.9285604953765869
1740246556915617500,3.763617431640625,-3.273965835571289,0.5577375888824463,-0.7550343871116638
1740246556925599500,3.773599609375,-3.1510839462280273,0.49670806527137756,-0.5604348182678223
1740246556935581400,3.78358154296875,-3.031480073928833,0.48060041666030884,-0.3412315845489502
1740246556945563600,3.793563720703125,-2.8677830696105957,0.5298694372177124,-0.08111345767974854
1740246556955545600,3.803545654296875,-2.690810203552246,0.6604670882225037,0.20048058032989502
1740246556965527600,3.813527587890625,-2.5234954357147217,0.8288427591323853,0.4764660894870758
1740246556975509800,3.823509765625,-2.3585610389709473,0.9693548083305359,0.742892324924469
1740246556985491500,3.833491455078125,-2.1950268745422363,1.0207014083862305,0.9695390462875366
1740246556995473700,3.8434736328125,-2.0653600692749023,0.9647146463394165,1.1078342199325562
1740246557005455600,3.85345556640625,-1.9524096250534058,0.8432585000991821,1.138312816619873
1740246557015437600,3.8634375,-1.8318058252334595,0.6826202273368835,1.0591158866882324
1740246557025419500,3.87341943359375,-1.709896445274353,0.2392374724149704,0.8486918210983276
1740246557035401500,3.8834013671875,-1.2712105512619019,-3.105163335800171,0.3926945626735687
1740246557045383400,3.893383544921875,-0.3273239731788635,-4.22874641418457,0.05288238823413849
1740246557055365600,3.90336572265625,-0.13359187543392181,-2.303738832473755,-0.14248646795749664
1740246557065347300,3.913347412109375,-0.4710950553417206,-0.2571030259132385,-0.18656285107135773
1740246557075329500,3.92332958984375,-0.6063225269317627,0.6902440786361694,-0.12776172161102295
1740246557085311700,3.933311767578125,-0.4216128885746002,1.1193403005599976,-0.00690401392057538
1740246557095293400,3.94329345703125,-0.13754677772521973,1.5498113632202148,0.19779612123966217
1740246557105275600,3.953275634765625,0.18409383296966553,1.6849521398544312,0.5473714470863342
1740246557115257600,3.963257568359375,0.5790276527404785,1.1750373840332031,0.9337113499641418
1740246557125239600,3.973239501953125,0.9673538208007812,0.3000757098197937,1.3157422542572021
1740246557135221500,3.983221435546875,1.2920265197753906,-0.650152862071991,1.637869954109192
1740246557145203700,3.99320361328125,1.5797374248504639,-1.2991385459899902,1.8140487670898438
1740246557155185400,4.003185302734375,1.9141696691513062,-1.393220067024231,1.7359249591827393
1740246557165167600,4.013167724609375,2.4214093685150146,-0.8753670454025269,1.1362907886505127
1740246557175150600,4.023150634765625,3.020552158355713,-0.6383183598518372,0.20410685241222382
1740246557185132500,4.033132568359375,3.4526963233947754,-0.7866159677505493,-0.3829023241996765
1740246557195114500,4.043114501953125,3.6361615657806396,-0.953955352306366,-0.6090858578681946
1740246557205096400,4.053096435546875,3.654827833175659,-0.9010929465293884,-0.5921028852462769
1740246557215078700,4.06307861328125,3.6552083492279053,-0.7123636603355408,-0.3996613919734955
1740246557225060400,4.073060302734375,3.607548952102661,-0.4844866096973419,-0.11147885024547577
1740246557235042600,4.08304248046875,3.656567335128784,-0.3403478264808655,0.24264533817768097
1740246557245024500,4.0930244140625,3.8803858757019043,-0.3027099072933197,0.6324487328529358
1740246557255006500,4.10300634765625,4.228176593780518,-0.41851407289505005,0.990695595741272
1740246557264988700,4.11298876953125,4.574499130249023,-0.5371628999710083,1.274094820022583
1740246557274970600,4.122970703125,4.812669277191162,-0.5283174514770508,1.4484796524047852
1740246557284952600,4.13295263671875,4.909473896026611,-0.39848485589027405,1.5052324533462524
1740246557294934500,4.1429345703125,4.892340660095215,-0.23613566160202026,1.4563733339309692
1740246557304916700,4.152916748046875,4.8393778800964355,-0.1286078691482544,1.328933596611023
1740246557314898400,4.1628984375,4.785739898681641,-0.08173488825559616,1.1778545379638672
1740246557324880600,4.172880615234375,4.748126029968262,-0.08820769935846329,1.042556643486023
1740246557334862600,4.182862548828125,4.733863353729248,-0.11937511712312698,0.9456556439399719
1740246557344844500,4.192844482421875,4.716280460357666,-0.13718846440315247,0.9055606722831726
1740246557354826500,4.202826416015625,4.684682369232178,-0.12115233391523361,0.9217124581336975
1740246557364808400,4.212808349609375,4.636913776397705,-0.09257741272449493,0.9921005964279175
1740246557374790400,4.222790283203125,4.557674407958984,-0.07598909735679626,1.1004186868667603
1740246557384772600,4.232772705078125,4.468105316162109,-0.05800769850611687,1.2453532218933105
1740246557394754600,4.242754638671875,4.381449222564697,-0.046406909823417664,1.4075698852539062
1740246557404736500,4.252736572265625,4.299218654632568,-0.045028191059827805,1.5729708671569824
1740246557414718700,4.26271875,4.220266342163086,-0.011953277513384819,1.720146656036377
1740246557424700400,4.272700439453125,4.139250755310059,0.04841339588165283,1.8294798135757446
1740246557434683600,4.28268359375,4.04793643951416,0.13533331453800201,1.9048417806625366
1740246557444665300,4.292665283203125,3.9559969902038574,0.2527012228965759,1.9433166980743408
1740246557454647600,4.3026474609375,3.86641001701355,0.4146342873573303,1.9484672546386719
1740246557464629800,4.312629638671875,3.785618782043457,0.6014683246612549,1.9318832159042358
1740246557474611500,4.322611572265625,3.7216100692749023,0.7621124982833862,1.9159739017486572
1740246557484593700,4.33259375,3.6609432697296143,0.875551164150238,1.9092326164245605
1740246557494575600,4.34257568359375,3.5718460083007812,0.9508001208305359,1.9176466464996338
1740246557504557600,4.3525576171875,3.433739423751831,1.0242362022399902,1.9333616495132446
1740246557514539500,4.36253955078125,3.2579736709594727,1.0378745794296265,1.9465466737747192
1740246557524521500,4.372521484375,3.089372158050537,0.9476631879806519,1.9467461109161377
1740246557534503400,4.38250341796875,2.9497766494750977,0.7703166007995605,1.9063752889633179
1740246557544485600,4.392485595703125,2.8130946159362793,0.5627465844154358,1.7986232042312622
1740246557554467800,4.4024677734375,2.635316848754883,0.3951522707939148,1.5911188125610352
1740246557564450000,4.412449951171875,2.4009997844696045,0.3119093179702759,1.2845245599746704
1740246557574432000,4.422431884765625,2.123568534851074,0.31284186244010925,0.9208953976631165
1740246557584414000,4.4324140625,1.8185160160064697,0.3106437027454376,0.574317455291748
1740246557594396000,4.44239599609375,1.4989501237869263,0.2408657819032669,0.30019113421440125
1740246557604378000,4.452378173828125,1.1671292781829834,0.0772547647356987,0.10721846669912338
1740246557614359800,4.46235986328125,0.7728623151779175,-0.1891421675682068,-0.035855136811733246
1740246557624342000,4.472342041015625,0.30657801032066345,-0.5979723334312439,-0.16467250883579254
1740246557634323700,4.48232373046875,-0.18286190927028656,-1.0241153240203857,-0.3067615032196045
1740246557644306000,4.492305908203125,-0.6472417712211609,-1.3575338125228882,-0.48951002955436707
1740246557654288000,4.502287841796875,-1.0546683073043823,-1.537056803703308,-0.7043692469596863
1740246557664269800,4.512269775390625,-1.4305795431137085,-1.6057584285736084,-0.9426236152648926
1740246557674253000,4.522253173828125,-1.777479648590088,-1.5609692335128784,-1.166620135307312
1740246557684234800,4.53223486328125,-2.1052708625793457,-1.4553788900375366,-1.3344660997390747
1740246557694217000,4.542217041015625,-2.4097468852996826,-1.3233067989349365,-1.4401215314865112
1740246557704199000,4.552198974609375,-2.689326763153076,-1.2122490406036377,-1.473474383354187
1740246557714180900,4.562180908203125,-2.9857029914855957,-1.1401076316833496,-1.4454253911972046
1740246557724162800,4.572162841796875,-3.2918241024017334,-1.1357587575912476,-1.3606065511703491
1740246557734145000,4.58214501953125,-3.604079246520996,-1.2018671035766602,-1.2480183839797974
1740246557744127000,4.592126953125,-3.923788547515869,-1.2188974618911743,-1.1512212753295898
1740246557754109000,4.60210888671875,-4.239051342010498,-1.0674138069152832,-1.0910212993621826
1740246557764091100,4.612091064453125,-4.542354583740234,-0.7224587798118591,-1.089355230331421
1740246557774072800,4.62207275390625,-4.792604446411133,-0.23355132341384888,-1.1337013244628906
1740246557784055000,4.632054931640625,-4.943263053894043,0.27270254492759705,-1.2174034118652344
1740246557794037000,4.642037109375,-4.973366737365723,0.6756630539894104,-1.358945369720459
1740246557804019000,4.65201904296875,-4.901541233062744,0.9102822542190552,-1.5782157182693481
1740246557814001000,4.6620009765625,-4.779654026031494,0.9803960919380188,-1.8607946634292603
1740246557823982800,4.67198291015625,-4.690807342529297,0.8824410438537598,-2.190321922302246
1740246557833964800,4.68196484375,-4.688620090484619,0.7113063335418701,-2.505002737045288
1740246557843947000,4.691947021484375,-4.746768951416016,0.5049102902412415,-2.7959516048431396
1740246557853929000,4.701928955078125,-4.809173583984375,0.2871962785720825,-3.0566136837005615
1740246557863911000,4.711910888671875,-4.829325199127197,0.07643131166696548,-3.2971067428588867
1740246557873893000,4.72189306640625,-4.780354022979736,-0.07738552987575531,-3.5214481353759766
1740246557883874800,4.731874755859375,-4.628683090209961,-0.1282319277524948,-3.6892306804656982
1740246557893857000,4.74185693359375,-4.392305850982666,-0.12123238295316696,-3.5965287685394287
1740246557903839000,4.7518388671875,-3.9739761352539062,-0.03391265869140625,-3.614166259765625
1740246557913821000,4.761821044921875,-3.5465123653411865,-0.052025482058525085,-3.504957914352417
1740246557923804000,4.771803955078125,-3.1581478118896484,-0.12133531272411346,-3.3095648288726807
1740246557933785900,4.781785888671875,-2.828881025314331,-0.24358774721622467,-3.079676866531372
1740246557943768000,4.79176806640625,-2.59403657913208,-0.3790885806083679,-2.855510711669922
1740246557953750000,4.80175,-2.4793283939361572,-0.4672612249851227,-2.64989972114563
1740246557963732000,4.81173193359375,-2.439840078353882,-0.4576549530029297,-2.4255940914154053
1740246557973714000,4.8217138671875,-2.4483261108398438,-0.3657284677028656,-2.185616970062256
1740246557983696000,4.83169580078125,-2.4658846855163574,-0.2853090167045593,-1.9528543949127197
1740246557993677800,4.841677734375,-2.490898370742798,-0.21903948485851288,-1.750844955444336
1740246558003660000,4.851659912109375,-2.4867565631866455,-0.14150474965572357,-1.5536400079727173
1740246558013641700,4.861641845703125,-2.4431915283203125,-0.0282459557056427,-1.321725845336914
1740246558023624000,4.8716240234375,-2.374723434448242,0.11630722880363464,-1.039896845817566
1740246558033606000,4.88160595703125,-2.2891976833343506,0.2647285759449005,-0.7171114087104797
1740246558043587800,4.891587890625,-2.2016584873199463,0.394361674785614,-0.3963605463504791
1740246558053570000,4.901570068359375,-2.0852503776550293,0.48231106996536255,-0.09853766858577728
1740246558063552000,4.911552001953125,-1.9434804916381836,0.49333417415618896,0.15125404298305511
1740246558073534000,4.921533935546875,-1.7952370643615723,0.48400071263313293,0.30328840017318726
1740246558083516000,4.931515869140625,-1.6603623628616333,0.5086309909820557,0.35042208433151245
1740246558093498000,4.941498046875,-1.5537736415863037,0.5596504211425781,0.29037004709243774
1740246558103479800,4.951479736328125,-1.4490392208099365,0.621968150138855,0.15400899946689606
1740246558113462000,4.9614619140625,-1.3457508087158203,0.6623243093490601,-0.0020161664579063654
1740246558123444000,4.97144384765625,-1.253429889678955,0.624152421951294,-0.14171920716762543
1740246558133426000,4.981426025390625,-1.1879268884658813,0.5219789743423462,-0.23367857933044434
1740246558143407900,4.991407958984375,-1.108054518699646,0.41113850474357605,-0.2550531029701233
1740246558153390800,5.001390869140625,-0.9608665108680725,0.31779903173446655,-0.19213643670082092
1740246558163373000,5.011373046875,-0.7311944365501404,0.22633886337280273,-0.048035722225904465
1740246558173354800,5.021354736328125,-0.44321325421333313,0.15009723603725433,0.16899985074996948
1740246558183337000,5.0313369140625,-0.1027827113866806,0.0704820305109024,0.4387144148349762
1740246558193319000,5.04131884765625,0.2799772620201111,0.00941292941570282,0.7220762372016907
1740246558203300900,5.05130078125,0.6580404043197632,-0.003096736269071698,0.9490486979484558
1740246558213282800,5.06128271484375,1.0076403617858887,0.06339892745018005,1.0649445056915283
1740246558223265000,5.07126513671875,1.307671070098877,0.17526979744434357,1.0973773002624512
1740246558233247000,5.0812470703125,1.5486018657684326,0.2978823482990265,1.106128215789795
1740246558243229000,5.09122900390625,1.764383316040039,0.40558403730392456,1.1549499034881592
1740246558253211100,5.101211181640625,1.9972294569015503,0.4595783054828644,1.2679286003112793
1740246558263192800,5.11119287109375,2.253676176071167,0.41354289650917053,1.447655200958252
1740246558273175000,5.121175048828125,2.4936118125915527,0.3301404118537903,1.6499230861663818
1740246558283157000,5.131156982421875,2.6851162910461426,0.27644550800323486,1.851944088935852
1740246558293139000,5.141138916015625,2.8405120372772217,0.2816641926765442,2.051363229751587
1740246558303121000,5.151120849609375,2.9710214138031006,0.33618471026420593,2.225111484527588
1740246558313102800,5.161102783203125,3.1035046577453613,0.4389265775680542,2.3613247871398926
1740246558323084800,5.171084716796875,3.2366578578948975,0.637466311454773,2.44650936126709
1740246558333067000,5.18106689453125,3.3906443119049072,0.901722252368927,2.482015609741211
1740246558343048700,5.191048583984375,3.5814309120178223,1.1460866928100586,2.472780466079712
1740246558353031000,5.201031005859375,3.7807412147521973,1.270799160003662,2.411499500274658
1740246558363013000,5.21101318359375,3.9433281421661377,1.2399961948394775,2.2990522384643555
1740246558372995800,5.220995849609375,4.054375171661377,1.1170464754104614,2.120576858520508
1740246558382978000,5.23097802734375,4.122626781463623,0.9437796473503113,1.8629462718963623
1740246558392959700,5.240959716796875,4.1511006355285645,0.7661738991737366,1.5472131967544556
1740246558402942000,5.25094189453125,4.166804313659668,0.6128759384155273,1.2165011167526245
1740246558412924000,5.260923828125,4.180935382843018,0.4872896075248718,0.9169732332229614
1740246558422905900,5.27090576171875,4.1956281661987305,0.3781665861606598,0.7010254859924316
1740246558432888000,5.28088818359375,4.219693660736084,0.3049074113368988,0.5605827569961548
1740246558442870000,5.2908701171875,4.245738506317139,0.2638515830039978,0.474784255027771
1740246558452852000,5.30085205078125,4.262463092803955,0.22777090966701508,0.4242127537727356
1740246558462834000,5.310833984375,4.249806880950928,0.18441705405712128,0.3909466862678528
1740246558472815900,5.32081591796875,4.220726013183594,0.10900703072547913,0.37389853596687317
1740246558482797800,5.3307978515625,4.191162586212158,0.00021610409021377563,0.3689136207103729
1740246558492780000,5.340780029296875,4.166709899902344,-0.1573183834552765,0.3449917137622833
1740246558502761700,5.35076171875,4.140608787536621,-0.3282667100429535,0.29926231503486633
1740246558512744000,5.360743896484375,4.109694004058838,-0.46504127979278564,0.22027963399887085
1740246558522726000,5.370725830078125,4.068575382232666,-0.5274136066436768,0.1320115476846695
1740246558532707800,5.380707763671875,4.011902332305908,-0.5360743999481201,0.055087149143218994
1740246558542690000,5.39068994140625,3.928030252456665,-0.5270503163337708,-0.0006466858321800828
1740246558552672000,5.400672119140625,3.827479600906372,-0.5334579348564148,-0.009673104621469975
1740246558562653200,5.410653076171875,3.6990811824798584,-0.5773904919624329,0.028249775990843773
1740246558572636400,5.420636474609375,3.540468454360962,-0.6535702347755432,0.1088869497179985
1740246558582618000,5.4306181640625,3.375774621963501,-0.7301494479179382,0.21952931582927704
1740246558592600300,5.440600341796875,3.182276725769043,-0.7829855680465698,0.3421565592288971
1740246558602582500,5.45058251953125,2.938774585723877,-0.7983213663101196,0.4379752278327942
1740246558612564200,5.460564208984375,2.6189239025115967,-0.7385129332542419,0.467449814081192
1740246558622546400,5.47054638671875,2.226714611053467,-0.5657906532287598,0.37962859869003296
1740246558632528400,5.4805283203125,1.7862286567687988,-0.31578394770622253,0.18460509181022644
1740246558642510300,5.49051025390625,1.3373441696166992,-0.08600188046693802,-0.06104142591357231
1740246558652492300,5.5004921875,0.903294563293457,0.00552020687609911,-0.28435972332954407
1740246558662474500,5.510474609375,0.477138489484787,-0.06039942055940628,-0.4486152231693268
1740246558672456200,5.520456298828125,0.05671285465359688,-0.21866542100906372,-0.5550666451454163
1740246558682438400,5.5304384765625,-0.3570321202278137,-0.4014885127544403,-0.6308530569076538
1740246558692420400,5.54042041015625,-0.7747182846069336,-0.5694001913070679,-0.7108747363090515
1740246558702402300,5.55040234375,-1.1891229152679443,-0.7254286408424377,-0.8010426759719849
1740246558712384300,5.56038427734375,-1.5979225635528564,-0.845496416091919,-0.9059286713600159
1740246558722366200,5.5703662109375,-1.9997467994689941,-0.8646429777145386,-0.9982719421386719
1740246558732348400,5.580348388671875,-2.3729474544525146,-0.748932421207428,-1.0296601057052612
1740246558742330400,5.590330322265625,-2.703810691833496,-0.5023815035820007,-0.9736248254776001
1740246558752312300,5.600312255859375,-2.9707565307617188,-0.2077244520187378,-0.8350052833557129
1740246558762294300,5.610294189453125,-3.1742281913757324,0.07478047907352448,-0.6299213767051697
1740246558772276500,5.6202763671875,-3.318650722503662,0.275411993265152,-0.3890930712223053
1740246558782259200,5.63025927734375,-3.4232711791992188,0.3914717435836792,-0.15339213609695435
1740246558792241400,5.640241455078125,-3.485889196395874,0.4614230692386627,0.043680109083652496
1740246558802223400,5.650223388671875,-3.531670570373535,0.527486264705658,0.16764332354068756
1740246558812205300,5.660205322265625,-3.580655574798584,0.5968270897865295,0.19701401889324188
1740246558822187500,5.6701875,-3.6484501361846924,0.6867343783378601,0.12000551074743271
1740246558832169200,5.680169189453125,-3.7413742542266846,0.7850272059440613,-0.0749020129442215
1740246558842151400,5.6901513671875,-3.86540150642395,0.8897360563278198,-0.4184729754924774
1740246558852133400,5.70013330078125,-3.9878785610198975,0.9502582550048828,-0.9021416306495667
1740246558862115300,5.710115234375,-4.054373264312744,0.9257156252861023,-1.431720495223999
1740246558872097300,5.72009716796875,-4.034341812133789,0.7278799414634705,-1.9125406742095947
1740246558882079500,5.73007958984375,-3.991651773452759,0.3691529631614685,-2.321746587753296
1740246558892061200,5.740061279296875,-3.980943441390991,0.007073382381349802,-2.675856351852417
1740246558902043400,5.75004345703125,-4.013838291168213,-0.2391640841960907,-2.955709457397461
1740246558912025300,5.760025390625,-4.085149765014648,-0.3466213345527649,-3.107215166091919
1740246558922007300,5.77000732421875,-4.169842720031738,-0.3266851603984833,-3.115907669067383
1740246558931989500,5.779989501953125,-4.250927448272705,-0.05554148927330971,-2.8689682483673096
1740246558941971200,5.78997119140625,-3.8543684482574463,0.7588717937469482,-2.247847080230713
1740246558951953400,5.799953369140625,-3.6650919914245605,-0.3270883858203888,-2.287398338317871
1740246558961935400,5.809935302734375,-3.397846221923828,-0.08385999500751495,-2.1686267852783203
1740246558971918300,5.81991845703125,-2.9719178676605225,-0.10339082032442093,-2.011906862258911
1740246558981900500,5.829900634765625,-2.499011516571045,-0.2247084379196167,-1.8214317560195923
1740246558991882200,5.83988232421875,-1.9953712224960327,-0.5378650426864624,-1.6529992818832397
1740246559001864400,5.849864501953125,-1.5628571510314941,-0.7019588947296143,-1.4962393045425415
1740246559011846400,5.859846435546875,-1.2845485210418701,-0.704923152923584,-1.3547098636627197
1740246559021828400,5.869828369140625,-1.2098231315612793,-0.708663284778595,-1.254361629486084
1740246559031810300,5.879810302734375,-1.310729742050171,-0.7594149708747864,-1.24233877658844
1740246559041792500,5.88979248046875,-1.5142863988876343,-0.7726032137870789,-1.3581799268722534
1740246559051774200,5.899774169921875,-1.7084441184997559,-0.7005736231803894,-1.564117431640625
1740246559061756400,5.90975634765625,-1.782166600227356,-0.6299516558647156,-1.760543942451477
1740246559071738400,5.91973828125,-1.7584720849990845,-0.5664452314376831,-1.8747644424438477
1740246559081720300,5.92972021484375,-1.690159797668457,-0.527009129524231,-1.861209750175476
1740246559091702300,5.939702392578125,-1.630797028541565,-0.5273841619491577,-1.7112932205200195
1740246559101684200,5.949684326171875,-1.5871901512145996,-0.576154887676239,-1.5007349252700806
1740246559111666400,5.95966650390625,-1.5709220170974731,-0.627650260925293,-1.3186980485916138
1740246559121648400,5.9696484375,-1.569574236869812,-0.5806238651275635,-1.2007086277008057
1740246559131630300,5.97963037109375,-1.5918115377426147,-0.3808545768260956,-1.133407473564148
1740246559141612300,5.9896123046875,-1.6417818069458008,-0.09711472690105438,-1.0818507671356201
1740246559151594500,5.999594482421875,-1.6749718189239502,0.1891651302576065,-0.9909738898277283
1740246559161576200,6.009576171875,-1.6669002771377563,0.3901275396347046,-0.8432459235191345
1740246559171558400,6.019558349609375,-1.6457539796829224,0.45126545429229736,-0.6621246933937073
1740246559181541400,6.029541259765625,-1.5865724086761475,0.42872366309165955,-0.4467982053756714
1740246559191523300,6.0395234375,-1.472298264503479,0.37393954396247864,-0.21499967575073242
1740246559201505500,6.049505615234375,-1.2997909784317017,0.29768285155296326,0.02401130646467209
1740246559211487200,6.0594873046875,-1.081400752067566,0.24213871359825134,0.28535720705986023
1740246559221469400,6.069469482421875,-0.8226704597473145,0.27505192160606384,0.57352614402771
1740246559231451400,6.079451416015625,-0.5153933763504028,0.3902382254600525,0.8764681816101074
1740246559241433300,6.089433349609375,-0.14952005445957184,0.5699089169502258,1.1740953922271729
1740246559251415300,6.099415283203125,0.28847116231918335,0.7960761189460754,1.4498918056488037
1740246559261397200,6.109397216796875,0.760791540145874,0.9851225018501282,1.6958376169204712
1740246559271379200,6.119379150390625,1.195253610610962,1.1145082712173462,1.9275100231170654
1740246559281361400,6.129361328125,1.5228248834609985,1.2091642618179321,2.1607937812805176
1740246559291343400,6.13934326171875,1.730547547340393,1.280448317527771,2.409773111343384
1740246559301325300,6.1493251953125,1.8304494619369507,1.32170569896698,2.696253776550293
1740246559311307500,6.1593076171875,1.8412396907806396,1.3186252117156982,3.004528522491455
1740246559321289200,6.169289306640625,1.8079774379730225,1.3181042671203613,3.3262994289398193
1740246559331271400,6.179271484375,1.7737902402877808,1.3970164060592651,3.622260093688965
1740246559341253400,6.18925341796875,1.7845344543457031,1.5864100456237793,3.856853723526001
1740246559351235300,6.1992353515625,1.8923234939575195,1.8126271963119507,3.9775352478027344
1740246559361217300,6.20921728515625,2.072111129760742,2.0152688026428223,4.000670909881592
1740246559371200300,6.2192001953125,2.2933313846588135,2.1692562103271484,3.9263484477996826
1740246559381182500,6.229182373046875,2.512056827545166,2.2707273960113525,3.7815074920654297
1740246559391164400,6.239164306640625,2.6934778690338135,2.3408267498016357,3.565561056137085
1740246559401146400,6.249146484375,2.818852663040161,2.4131999015808105,3.2830498218536377
1740246559411128300,6.25912841796875,2.894219398498535,2.4417035579681396,2.9522640705108643
1740246559421110300,6.2691103515625,2.922288656234741,2.4101836681365967,2.576063871383667
1740246559431092200,6.27909228515625,2.9185640811920166,2.3249547481536865,2.1514744758605957
1740246559441074400,6.289074462890625,2.940654993057251,2.19881010055542,1.7009854316711426
1740246559451056000,6.29905615234375,2.9958300590515137,2.055291175842285,1.248897910118103
1740246559461038300,6.309038330078125,3.1038315296173096,1.8495489358901978,0.8157435059547424
1740246559471020300,6.319020263671875,3.234562397003174,1.6594374179840088,0.42650705575942993
1740246559481002200,6.329002197265625,3.353951930999756,1.55451238155365,0.11085829883813858
1740246559490984400,6.338984375,3.4460859298706055,1.5083889961242676,-0.12925583124160767
1740246559500966400,6.34896630859375,3.516631841659546,1.4731016159057617,-0.30006060004234314
1740246559510948400,6.3589482421875,3.555290937423706,1.408347249031067,-0.4362139403820038
1740246559520930300,6.368930419921875,3.5568060874938965,1.3259855508804321,-0.5723076462745667
1740246559530912500,6.37891259765625,3.53330659866333,1.2586954832077026,-0.710242748260498
1740246559540895200,6.388895263671875,3.5069286823272705,1.2329035997390747,-0.8591043949127197
1740246559550877400,6.39887744140625,3.507514238357544,1.1943806409835815,-1.0047112703323364
1740246559560860000,6.40885986328125,3.550177812576294,1.0671221017837524,-1.1122404336929321
1740246559570841900,6.418841796875,3.6188037395477295,0.860913872718811,-1.1828587055206299
1740246559580823800,6.42882373046875,3.6548025608062744,0.5868378281593323,-1.1988755464553833
1740246559590805800,6.4388056640625,3.6793136596679688,0.2929573655128479,-1.163822889328003
1740246559600788000,6.4487880859375,3.704183340072632,0.013439182192087173,-1.0817244052886963
1740246559610769700,6.458769775390625,3.715853691101074,-0.21191860735416412,-0.9709169268608093
1740246559620752000,6.468751953125,3.698201894760132,-0.3828546702861786,-0.8452585935592651
1740246559630733800,6.47873388671875,3.6402461528778076,-0.5117409825325012,-0.7091333270072937
1740246559640715800,6.4887158203125,3.5500328540802,-0.6037001609802246,-0.5806637406349182
1740246559650698000,6.498697998046875,3.4436330795288086,-0.6602775454521179,-0.46653467416763306
1740246559660680000,6.508679931640625,3.321326494216919,-0.6969221234321594,-0.3785385191440582
1740246559670662000,6.518661865234375,3.170632839202881,-0.7192478775978088,-0.3146926462650299
1740246559680643800,6.528643798828125,2.975752830505371,-0.7141327261924744,-0.2510915696620941
1740246559690625800,6.538625732421875,2.7104673385620117,-0.6865625977516174,-0.16780106723308563
1740246559700607700,6.548607666015625,2.3835535049438477,-0.6571211218833923,-0.06256838887929916
1740246559710590000,6.55858984375,1.9886035919189453,-0.6425502300262451,0.06424883753061295
1740246559720573000,6.568572998046875,1.5450525283813477,-0.6500667333602905,0.2008945643901825
1740246559730555000,6.578554931640625,1.0794190168380737,-0.705463707447052,0.32885438203811646
1740246559740536800,6.588536865234375,0.6022247672080994,-0.8202152848243713,0.41016948223114014
1740246559750518800,6.598518798828125,0.11681587994098663,-0.9629949331283569,0.42161449790000916
1740246559760501000,6.6085009765625,-0.38623395562171936,-1.1095709800720215,0.353068470954895
1740246559770482700,6.618482666015625,-0.8911609649658203,-1.2160730361938477,0.21556144952774048
1740246559780465000,6.62846484375,-1.3846724033355713,-1.267891764640808,0.02300424501299858
1740246559790446800,6.63844677734375,-1.8218261003494263,-1.2839401960372925,-0.17767657339572906
1740246559800428800,6.6484287109375,-2.1837682723999023,-1.2927541732788086,-0.35760825872421265
1740246559810410800,6.65841064453125,-2.483264684677124,-1.2720842361450195,-0.5154567360877991
1740246559820393000,6.66839306640625,-2.7272775173187256,-1.2217553853988647,-0.6675474643707275
1740246559830375000,6.678375,-2.925232410430908,-1.1623798608779907,-0.8262110352516174
1740246559840356900,6.68835693359375,-3.112563133239746,-1.0652786493301392,-0.9993016123771667
1740246559850338800,6.6983388671875,-3.322580099105835,-0.8991953134536743,-1.1919543743133545
1740246559860320800,6.70832080078125,-3.556755542755127,-0.7360979914665222,-1.3758840560913086
1740246559870303000,6.718302978515625,-3.8230438232421875,-0.6359148621559143,-1.5405954122543335
1740246559880284700,6.72828466796875,-4.109132766723633,-0.571005642414093,-1.686036229133606
1740246559890268000,6.738267822265625,-4.414352893829346,-0.4893987774848938,-1.8374327421188354
1740246559900249900,6.748249755859375,-4.703947067260742,-0.3540220260620117,-2.0025877952575684
1740246559910231800,6.758231689453125,-4.933318138122559,-0.18443121016025543,-2.175205945968628
1740246559920214000,6.768214111328125,-5.115401268005371,-0.023755783215165138,-2.3399269580841064
1740246559930195700,6.77819580078125,-5.250656604766846,0.0801403820514679,-2.4709155559539795
1740246559940178000,6.788177978515625,-5.349292755126953,0.1136820986866951,-2.54577898979187
1740246559950160000,6.798159912109375,-5.415555477142334,0.13178810477256775,-2.5446937084198
1740246559960141800,6.808141845703125,-5.428001880645752,0.14050808548927307,-2.470324993133545
1740246559970123800,6.818123779296875,-5.349949836730957,0.05832262337207794,-2.3253350257873535
1740246559980106000,6.82810595703125,-5.222550392150879,-0.12335076928138733,-2.129791736602783
1740246559990087700,6.838087646484375,-5.0919508934021,-0.3563043773174286,-1.8726178407669067
1740246560000070000,6.84806982421875,-4.975091457366943,-0.5963675379753113,-1.556150197982788
1740246560010051800,6.8580517578125,-4.854780197143555,-0.8649191856384277,-1.202865719795227
1740246560020033800,6.86803369140625,-4.697816371917725,-1.1417638063430786,-0.8630344271659851
1740246560030016000,6.87801611328125,-4.5123066902160645,-1.366891860961914,-0.5859766006469727
1740246560039997700,6.887997802734375,-4.292129993438721,-1.4199771881103516,-0.40575143694877625
1740246560049980000,6.89797998046875,-3.9987237453460693,-1.2263379096984863,-0.3009538948535919
1740246560059962600,6.907962646484375,-3.6490983963012695,-0.9230438470840454,-0.20289233326911926
1740246560069944800,6.91794482421875,-3.2863645553588867,-0.6226372718811035,-0.08607248961925507
1740246560079926800,6.9279267578125,-2.9694223403930664,-0.3599132001399994,0.060341984033584595
1740246560089908700,6.93790869140625,-2.707223892211914,-0.18854373693466187,0.21954354643821716
1740246560099891000,6.947890869140625,-2.4820163249969482,-0.08944351226091385,0.3499939739704132
1740246560109873000,6.957872802734375,-2.2822017669677734,-0.025456923991441727,0.43511664867401123
1740246560119854800,6.967854736328125,-2.1176578998565674,0.02031402289867401,0.46826687455177307
1740246560129836800,6.9778369140625,-2.0028696060180664,0.0812450423836708,0.44303518533706665
1740246560139819000,6.987819091796875,-1.9229588508605957,0.16491064429283142,0.3739849925041199
1740246560149800700,6.99780078125,-1.8667763471603394,0.23596586287021637,0.2998764216899872
1740246560159783000,7.007782958984375,-1.833120346069336,0.2818419933319092,0.2599702775478363
1740246560169764900,7.017764892578125,-1.8193901777267456,0.27413931488990784,0.2687119245529175
1740246560179746800,7.027746826171875,-1.8132686614990234,0.23841993510723114,0.3281608819961548
1740246560189728800,7.037728759765625,-1.755786418914795,0.2306249439716339,0.4044151306152344
1740246560199710700,7.047710693359375,-1.6372672319412231,0.27431488037109375,0.474823534488678
1740246560209693000,7.05769287109375,-1.4849140644073486,0.334232896566391,0.526033341884613
1740246560219676000,7.067676025390625,-1.3328089714050293,0.4367363452911377,0.5621322393417358
1740246560229657900,7.077657958984375,-1.1958856582641602,0.5648025870323181,0.5832905769348145
1740246560239639800,7.087639892578125,-1.050968885421753,0.6952572464942932,0.6264609098434448
1740246560249621800,7.097621826171875,-0.8705823421478271,0.795249342918396,0.7023745775222778
1740246560259603700,7.107603759765625,-0.6419302821159363,0.793232262134552,0.8166950345039368
1740246560269586000,7.1175859375,-0.3677314519882202,0.6378374695777893,0.9664316177368164
1740246560279568000,7.12756787109375,-0.05237671732902527,0.3882838189601898,1.111947774887085
1740246560289549800,7.1375498046875,0.28155001997947693,0.22355917096138,1.2141458988189697
1740246560299532000,7.147531982421875,0.6394091248512268,0.3133428692817688,1.202104091644287
1740246560309513700,7.157513671875,1.0497362613677979,0.6461428999900818,1.0125298500061035
1740246560319496000,7.167495849609375,1.5205274820327759,1.0783946514129639,0.6789409518241882
1740246560329478000,7.177477783203125,1.968602180480957,1.3682855367660522,0.3318484425544739
1740246560339459800,7.1874599609375,2.293118953704834,1.407602310180664,0.07565981149673462
1740246560349441800,7.19744189453125,2.4433584213256836,1.2800335884094238,-0.04880667105317116
1740246560359424000,7.207424072265625,2.4610533714294434,1.0898325443267822,-0.06744373589754105
1740246560369405700,7.21740576171875,2.4182162284851074,0.9178028702735901,-0.013729413971304893
1740246560379388000,7.227387939453125,2.3876442909240723,0.820612907409668,0.06066732481122017
1740246560389369600,7.23736962890625,2.4157605171203613,0.8156672716140747,0.10854135453701019
1740246560399352800,7.247352783203125,2.5370564460754395,0.8912488222122192,0.09370994567871094
1740246560409334800,7.257334716796875,2.7344367504119873,1.0107125043869019,0.02013521082699299
1740246560419316700,7.267316650390625,2.977022409439087,1.1400758028030396,-0.0885196328163147
1740246560429299000,7.277298828125,3.212350606918335,1.2424732446670532,-0.19932854175567627
1740246560439280600,7.28728076171875,3.4233663082122803,1.2845642566680908,-0.2818332612514496
1740246560449262800,7.297262939453125,3.5958645343780518,1.249877691268921,-0.32010242342948914
1740246560459244800,7.307244873046875,3.7355854511260986,1.1276053190231323,-0.3158416152000427
1740246560469226800,7.317226806640625,3.8554909229278564,0.9347385168075562,-0.29932159185409546
1740246560479209000,7.327208984375,3.976144790649414,0.7169672846794128,-0.2850648760795593
1740246560489191000,7.33719091796875,4.093546390533447,0.5090572834014893,-0.29653701186180115
1740246560499172900,7.3471728515625,4.209932327270508,0.3447412848472595,-0.33916783332824707
1740246560509154800,7.35715478515625,4.306406021118164,0.2347896695137024,-0.39813873171806335
1740246560519137000,7.367136962890625,4.379133224487305,0.1832529753446579,-0.4480740427970886
1740246560529118700,7.37711865234375,4.4180474281311035,0.18191000819206238,-0.4509223997592926
1740246560539101000,7.387100830078125,4.443439960479736,0.2128535509109497,-0.40461403131484985
1740246560549083000,7.397082763671875,4.475747108459473,0.24190090596675873,-0.3093084990978241
1740246560559065900,7.40706591796875,4.526029586791992,0.2817141115665436,-0.17436878383159637
1740246560569047800,7.4170478515625,4.580379009246826,0.3156138062477112,-0.01760956645011902
1740246560579030000,7.427030029296875,4.620548248291016,0.3462713360786438,0.14149406552314758
1740246560589012000,7.437011962890625,4.651876926422119,0.39706525206565857,0.29047688841819763
1740246560598994000,7.446993896484375,4.661261081695557,0.4682560861110687,0.43179434537887573
1740246560608976000,7.456975830078125,4.635828495025635,0.5501556396484375,0.5618963837623596
1740246560618958000,7.4669580078125,4.577774524688721,0.630965530872345,0.6891360878944397
1740246560628939800,7.476939697265625,4.492453098297119,0.7077968120574951,0.8101150393486023
1740246560638922000,7.486921875,4.3727240562438965,0.7634307742118835,0.9254837036132812
1740246560648904000,7.496904052734375,4.222856044769287,0.7843475341796875,1.0167138576507568
1740246560658886000,7.506885986328125,4.042212963104248,0.764218807220459,1.0923435688018799
1740246560668867800,7.516867919921875,3.828497886657715,0.7090771198272705,1.1461797952651978
1740246560678850000,7.52685009765625,3.597426414489746,0.6216774582862854,1.1978591680526733
1740246560688831700,7.536831787109375,3.333239793777466,0.5087529420852661,1.233455777168274
1740246560698814000,7.54681396484375,3.0495669841766357,0.3954937160015106,1.2264248132705688
1740246560708797000,7.556796875,2.7342708110809326,0.3757898807525635,1.1294888257980347
1740246560718779000,7.56677880859375,2.357948064804077,0.48832762241363525,0.8929792642593384
1740246560728760800,7.5767607421875,1.907601237297058,0.6757301688194275,0.5446488857269287
1740246560738742800,7.58674267578125,1.3765133619308472,0.7806834578514099,0.18763777613639832
1740246560748725000,7.59672509765625,0.8010743856430054,0.7266010046005249,-0.10138290375471115
1740246560758706700,7.606706787109375,0.2157086431980133,0.5454307198524475,-0.3125220537185669
1740246560768689000,7.61668896484375,-0.3387467563152313,0.30261847376823425,-0.4565264880657196
1740246560778671000,7.626671142578125,-0.8267963528633118,0.017236271873116493,-0.5411005020141602
1740246560788652800,7.63665283203125,-1.2551480531692505,-0.3102271258831024,-0.567264199256897
1740246560798635000,7.646635009765625,-1.6394227743148804,-0.661761462688446,-0.5614438652992249
1740246560808617000,7.656616943359375,-1.9843525886535645,-0.9691086411476135,-0.5365739464759827
1740246560818599000,7.666598876953125,-2.295320987701416,-1.157284140586853,-0.5134811401367188
1740246560828580900,7.676580810546875,-2.570397138595581,-1.187321662902832,-0.49480360746383667
1740246560838563000,7.68656298828125,-2.790330648422241,-1.1174027919769287,-0.4653341472148895
1740246560848544800,7.696544677734375,-2.980905771255493,-0.9916355609893799,-0.4295605719089508
1740246560858528000,7.706528076171875,-3.1762149333953857,-0.8015718460083008,-0.4231351613998413
1740246560868510000,7.716510009765625,-3.3772120475769043,-0.5776423811912537,-0.4618174433708191
1740246560878492000,7.726491943359375,-3.5872955322265625,-0.362273633480072,-0.5593056678771973
1740246560888474000,7.73647412109375,-3.817654848098755,-0.1641143560409546,-0.7211067080497742
1740246560898455800,7.746455810546875,-4.063494682312012,0.023829715326428413,-0.9401359558105469
1740246560908438000,7.75643798828125,-4.306962490081787,0.1766340583562851,-1.20685875415802
1740246560918419700,7.766419677734375,-4.515609264373779,0.2466120719909668,-1.5068778991699219
1740246560928402000,7.77640185546875,-4.669321537017822,0.23557597398757935,-1.8184598684310913
1740246560938384000,7.7863837890625,-4.76739501953125,0.13943052291870117,-2.123781442642212
1740246560948365800,7.79636572265625,-4.8250508308410645,-0.013791817240417004,-2.3886332511901855
1740246560958348000,7.80634814453125,-4.846579074859619,-0.20423340797424316,-2.5914053916931152
1740246560968330000,7.816330078125,-4.852634906768799,-0.38663139939308167,-2.7264184951782227
1740246560978312000,7.82631201171875,-4.85133695602417,-0.5076888799667358,-2.8020753860473633
1740246560988294000,7.8362939453125,-4.848634243011475,-0.5416511297225952,-2.7836906909942627
1740246560998276000,7.846276123046875,-4.833313941955566,-0.45516711473464966,-2.6629178524017334
1740246561008257800,7.8562578125,-4.788923263549805,-0.259695827960968,-2.456878423690796
1740246561018241000,7.866240966796875,-4.705310821533203,-0.058475084602832794,-2.18173885345459
1740246561028223000,7.876222900390625,-4.552933692932129,0.034062113612890244,-1.8302918672561646
1740246561038205000,7.886204833984375,-4.3248701095581055,0.011371446773409843,-1.4417340755462646
1740246561048187100,7.896187255859375,-4.036344528198242,-0.07369489222764969,-1.0620063543319702
1740246561058168800,7.9061689453125,-3.727363109588623,-0.16767466068267822,-0.7241026163101196
1740246561068151000,7.916151123046875,-3.4231433868408203,-0.2285720407962799,-0.47591572999954224
1740246561078133000,7.926133056640625,-3.1676876544952393,-0.2076297402381897,-0.3262913227081299
1740246561088115000,7.936114990234375,-2.97976016998291,-0.1068754717707634,-0.26948031783103943
1740246561098097000,7.946096923828125,-2.849877119064331,0.02500639669597149,-0.2852345108985901
1740246561108078800,7.956078857421875,-2.7628333568573,0.14552418887615204,-0.34739693999290466
1740246561118060800,7.966060791015625,-2.6944081783294678,0.22900815308094025,-0.4158356487751007
1740246561128043000,7.97604296875,-2.6257071495056152,0.2469676285982132,-0.4535916745662689
1740246561138024700,7.986024658203125,-2.5697720050811768,0.19646477699279785,-0.44996339082717896
1740246561148007000,7.9960068359375,-2.5382142066955566,0.15005695819854736,-0.4126591980457306
1740246561157990000,8.005989990234376,-2.542560577392578,0.13353043794631958,-0.3422186076641083
1740246561167971800,8.015971923828126,-2.562439441680908,0.14420022070407867,-0.2595140039920807
1740246561177954000,8.0259541015625,-2.573143720626831,0.16924938559532166,-0.18075822293758392
1740246561187935700,8.035935791015625,-2.572498321533203,0.20005649328231812,-0.12010229378938675
1740246561197918000,8.04591796875,-2.53639554977417,0.2231631577014923,-0.08707669377326965
1740246561207900000,8.05589990234375,-2.437840461730957,0.22349266707897186,-0.06571530550718307
1740246561217881900,8.0658818359375,-2.267160654067993,0.2137042135000229,-0.04777945578098297
1740246561227864000,8.075864013671875,-2.0303549766540527,0.21887624263763428,-0.040785983204841614
1740246561237846000,8.085845947265625,-1.7590609788894653,0.2508656084537506,-0.08029370754957199
1740246561247828000,8.095827880859375,-1.4699903726577759,0.27689194679260254,-0.2051236778497696
1740246561257810000,8.105809814453124,-1.1375727653503418,0.26537537574768066,-0.39949822425842285
1740246561267792000,8.1157919921875,-0.7636571526527405,0.16009975969791412,-0.5993199944496155
1740246561277773800,8.12577392578125,-0.39743414521217346,-0.016539715230464935,-0.7237495183944702
1740246561287756000,8.135756103515625,-0.05189046636223793,-0.19360080361366272,-0.7220399379730225
1740246561297737700,8.14573779296875,0.2706662714481354,-0.3418413996696472,-0.597893476486206
1740246561307721000,8.155720947265625,0.6202136278152466,-0.4860585033893585,-0.41109639406204224
1740246561317703000,8.165702880859374,0.9886521100997925,-0.6293720006942749,-0.21371249854564667
1740246561327684900,8.175684814453126,1.3784234523773193,-0.7792855501174927,-0.04991062358021736
1740246561337667000,8.1856669921875,1.7580546140670776,-0.8630696535110474,0.0484849214553833
1740246561347648800,8.195648681640625,2.0955848693847656,-0.8653757572174072,0.05441104620695114
1740246561357631000,8.205630859375,2.347079277038574,-0.8037352561950684,0.013308619149029255
1740246561367613000,8.215613037109375,2.4941155910491943,-0.6842227578163147,0.0014868234284222126
1740246561377594000,8.225593994140626,2.5485005378723145,-0.5128368735313416,0.07991904765367508
1740246561387576800,8.235576904296876,2.5468406677246094,-0.3036891520023346,0.2544524371623993
1740246561397559000,8.24555908203125,2.540635585784912,-0.0658092126250267,0.4963524043560028
1740246561407541000,8.255541015625,2.56640625,0.17645828425884247,0.7869434952735901
1740246561417523000,8.26552294921875,2.6248326301574707,0.41307908296585083,1.1311829090118408
1740246561427505000,8.2755048828125,2.6921610832214355,0.6416181325912476,1.4955830574035645
1740246561437486800,8.28548681640625,2.7604732513427734,0.848771870136261,1.8558461666107178
1740246561447469000,8.295468994140625,2.8525991439819336,1.0221445560455322,2.1610612869262695
1740246561457450800,8.30545068359375,2.9827768802642822,1.1843461990356445,2.357917547225952
1740246561467433000,8.315432861328125,3.1251118183135986,1.3395823240280151,2.4325473308563232
1740246561477415000,8.325414794921874,3.273972272872925,1.4588687419891357,2.4098100662231445
1740246561487396900,8.33539697265625,3.452491044998169,1.5339916944503784,2.294907569885254
1740246561497378800,8.34537890625,3.6539549827575684,1.5325759649276733,2.0956921577453613
1740246561507361000,8.355361083984375,3.85054874420166,1.4066542387008667,1.8405368328094482
1740246561517342700,8.3653427734375,4.006662845611572,1.1764225959777832,1.5431557893753052
1740246561527326000,8.375325927734375,4.130839824676514,0.9294591546058655,1.2226275205612183
1740246561537308000,8.385307861328124,4.254364013671875,0.6890369653701782,0.8945063352584839
1740246561547289900,8.395289794921876,4.366992950439453,0.4500103294849396,0.5713934898376465
1740246561557272000,8.40527197265625,4.445614814758301,0.21225370466709137,0.2851361632347107
1740246561567254000,8.41525390625,4.494469165802002,0.019158652052283287,0.05879117175936699
1740246561577236000,8.425236083984375,4.518424034118652,-0.10016454756259918,-0.10104110091924667
1740246561587218000,8.435218017578125,4.536909103393555,-0.18343935906887054,-0.18945778906345367
1740246561597200000,8.445199951171874,4.558417320251465,-0.2539100646972656,-0.21688063442707062
1740246561607182000,8.45518212890625,4.575006484985352,-0.2944906949996948,-0.19589188694953918
1740246561617163800,8.465163818359375,4.571863651275635,-0.2885289490222931,-0.14054368436336517
1740246561627146000,8.47514599609375,4.539453983306885,-0.24277424812316895,-0.05638153478503227
1740246561637128000,8.4851279296875,4.492484092712402,-0.16451913118362427,0.05278170481324196
1740246561647110000,8.49510986328125,4.424070835113525,-0.08374544233083725,0.1919885277748108
1740246561657091800,8.505091796875,4.331547260284424,-0.020973943173885345,0.3542639911174774
1740246561667074800,8.51507470703125,4.224273204803467,0.02524363435804844,0.5277981758117676
1740246561677057000,8.52505712890625,4.109443664550781,0.08643535524606705,0.7066102623939514
1740246561687039000,8.5350390625,3.979294776916504,0.17812654376029968,0.8854381442070007
1740246561697021000,8.54502099609375,3.8330883979797363,0.2941873371601105,1.0571873188018799
1740246561707003000,8.5550029296875,3.6777894496917725,0.39768439531326294,1.2146472930908203
1740246561716985000,8.564985107421874,3.5222878456115723,0.44830256700515747,1.362473487854004
1740246561726966800,8.574966796875,3.361823320388794,0.4358319938182831,1.5069462060928345
1740246561736949000,8.584948974609375,3.1983251571655273,0.37887683510780334,1.6365692615509033
1740246561746931200,8.59493115234375,3.0325748920440674,0.3016633093357086,1.7333509922027588
1740246561756913000,8.604912841796875,2.8360183238983154,0.24311023950576782,1.7651264667510986
1740246561766895000,8.61489501953125,2.5682239532470703,0.23733381927013397,1.7153973579406738
1740246561776876800,8.624876708984376,2.19527006149292,0.3237462341785431,1.5584620237350464
1740246561786859000,8.63485888671875,1.7109371423721313,0.4911358654499054,1.2860182523727417
1740246561796842000,8.644842041015625,1.1469433307647705,0.6369192004203796,0.9614756107330322
1740246561806824000,8.654823974609375,0.546842098236084,0.6849318146705627,0.6716618537902832
1740246561816806100,8.66480615234375,-0.04477650672197342,0.5981002449989319,0.46233609318733215
1740246561826787800,8.674787841796874,-0.5772784948348999,0.40916958451271057,0.33936411142349243
1740246561836770000,8.68477001953125,-1.0442861318588257,0.13650047779083252,0.26964256167411804
1740246561846752000,8.694751953125,-1.4481667280197144,-0.19341374933719635,0.2230219542980194
1740246561856734000,8.70473388671875,-1.8022749423980713,-0.5309651494026184,0.1771380752325058
1740246561866716000,8.7147158203125,-2.0819733142852783,-0.831689178943634,0.14780586957931519
1740246561876698000,8.724697998046874,-2.3308353424072266,-1.0438408851623535,0.13215740025043488
1740246561886679800,8.7346796875,-2.567342758178711,-1.1616243124008179,0.11034519970417023
1740246561896662000,8.744662109375,-2.7988083362579346,-1.1993216276168823,0.062069013714790344
1740246561906644000,8.75464404296875,-3.0170767307281494,-1.1633501052856445,-0.043981436640024185
1740246561916626000,8.7646259765625,-3.2112159729003906,-1.0718803405761719,-0.21586506068706512
1740246561926609200,8.774609130859375,-3.398988723754883,-0.9463574886322021,-0.4154914617538452
1740246561936590800,8.7845908203125,-3.5974676609039307,-0.7790289521217346,-0.6137108206748962
1740246561946573000,8.794572998046876,-3.8340508937835693,-0.6240973472595215,-0.7979831695556641
1740246561956555000,8.804554931640626,-4.111368656158447,-0.5735313892364502,-0.949959397315979
1740246561966537000,8.814536865234375,-4.412454128265381,-0.6492301821708679,-1.1327663660049438
1740246561976519000,8.824518798828125,-4.706841468811035,-0.8428284525871277,-1.3886628150939941
1740246561986500900,8.8345009765625,-4.948726654052734,-1.1089686155319214,-1.771461009979248
1740246561996482800,8.84448291015625,-5.125895977020264,-1.392263412475586,-2.3220303058624268
1740246562006465000,8.854465087890626,-5.2122721672058105,-1.613540768623352,-3.0273337364196777
1740246562016447000,8.864447021484375,-5.1844401359558105,-1.7494703531265259,-3.7964859008789062
1740246562026429000,8.874428955078125,-5.082466125488281,-1.7803581953048706,-4.464991569519043
1740246562036411100,8.8844111328125,-4.9885454177856445,-1.7303829193115234,-4.910443305969238
1740246562046392800,8.894392822265624,-4.952680587768555,-1.6471498012542725,-5.127713680267334
1740246562056375000,8.904375,-4.980856895446777,-1.5472148656845093,-5.171536445617676
1740246562066357800,8.914357666015626,-5.0662384033203125,-1.418865442276001,-5.107168674468994
1740246562076340000,8.924340087890625,-5.081483364105225,-1.283117413520813,-4.92152214050293
1740246562086322200,8.934322265625,-4.997929573059082,-1.0545737743377686,-4.597616672515869
1740246562096303900,8.944303955078125,-4.799401760101318,-0.7804359197616577,-4.1307806968688965
1740246562106286000,8.9542861328125,-4.49296760559082,-0.4830641448497772,-3.539698600769043
1740246562116268000,8.96426806640625,-4.1290788650512695,-0.16196653246879578,-2.865612268447876
1740246562126250000,8.97425,-3.7561397552490234,0.18357618153095245,-2.16304874420166
1740246562136232000,8.98423193359375,-3.4036996364593506,0.5302656888961792,-1.499845027923584
1740246562146214000,8.9942138671875,-3.095813274383545,0.8449212312698364,-0.9211830496788025
1740246562156195800,9.00419580078125,-2.8610687255859375,1.0994871854782104,-0.4491984248161316
1740246562166178000,9.014177978515624,-2.7067224979400635,1.250028371810913,-0.06830115616321564
1740246562176159700,9.02415966796875,-2.6463825702667236,1.3106610774993896,0.22806845605373383
1740246562186142000,9.034141845703125,-2.6496152877807617,1.3095431327819824,0.44403305649757385
1740246562196125000,9.044125,-2.683624744415283,1.2741867303848267,0.5994932055473328
1740246562206107000,9.05410693359375,-2.709170341491699,1.2222696542739868,0.7095420360565186
1740246562216089000,9.064089111328125,-2.7231531143188477,1.1592069864273071,0.783629298210144
1740246562226070800,9.07407080078125,-2.7249886989593506,1.1159275770187378,0.8391274809837341
1740246562236053000,9.084052978515626,-2.7112510204315186,1.1361668109893799,0.8907185196876526
1740246562246035000,9.094034912109375,-2.67250394821167,1.1892457008361816,0.9644837379455566
1740246562256017000,9.104016845703125,-2.6015617847442627,1.2265400886535645,1.0631788969039917
1740246562265999000,9.1139990234375,-2.4941632747650146,1.1956244707107544,1.1900782585144043
1740246562275981000,9.12398095703125,-2.353416919708252,1.1130191087722778,1.319121241569519
1740246562285963000,9.133962890625,-2.165364980697632,1.0565036535263062,1.4168591499328613
1740246562295945000,9.143945068359375,-1.923001766204834,1.0409356355667114,1.4726225137710571
1740246562305927000,9.153927001953125,-1.647510290145874,1.0929584503173828,1.4674513339996338
1740246562315908900,9.163908935546875,-1.3674468994140625,1.210404634475708,1.43187415599823
1740246562325891000,9.17389111328125,-1.0446503162384033,1.2719260454177856,1.404104471206665
1740246562335874000,9.1838740234375,-0.6477948427200317,1.1678054332733154,1.426880121231079
1740246562345856000,9.19385595703125,-0.17696228623390198,0.8698740601539612,1.4908212423324585
1740246562355838000,9.203837890625,0.3278087377548218,0.43216198682785034,1.57322096824646
1740246562365820000,9.21381982421875,0.8411205410957336,0.0011270632967352867,1.622209906578064
1740246562375802000,9.223802001953125,1.3279882669448853,-0.23988687992095947,1.5985420942306519
1740246562385783800,9.23378369140625,1.780338168144226,-0.2365020513534546,1.440677523612976
1740246562395766000,9.24376611328125,2.2018580436706543,-0.07750307768583298,1.130519986152649
1740246562405748000,9.253748046875,2.572131633758545,0.13108643889427185,0.7496475577354431
1740246562415730000,9.26372998046875,2.8407466411590576,0.2913168668746948,0.4470522701740265
1740246562425711900,9.2737119140625,2.9756932258605957,0.37296977639198303,0.30064883828163147
1740246562435694000,9.283694091796875,3.0260603427886963,0.4072185456752777,0.30043792724609375
1740246562445675800,9.29367578125,3.048161506652832,0.42859193682670593,0.4020363390445709
1740246562455658000,9.303657958984376,3.0461368560791016,0.41191548109054565,0.5877776741981506
1740246562465641000,9.313640869140626,3.035170793533325,0.35712477564811707,0.8316522240638733
1740246562475623000,9.323622802734375,3.0477802753448486,0.3323499262332916,1.0995718240737915
1740246562485605000,9.333605224609375,3.0889408588409424,0.4014713168144226,1.3464455604553223
1740246562495586800,9.3435869140625,3.152698516845703,0.564326286315918,1.527113676071167
1740246562505569000,9.353569091796874,3.221635341644287,0.8258918523788452,1.6161346435546875
1740246562515551000,9.363551025390626,3.2887468338012695,1.140909194946289,1.6203478574752808
1740246562525533000,9.373532958984375,3.3580405712127686,1.4148151874542236,1.546587347984314
1740246562535515100,9.38351513671875,3.4255776405334473,1.6780987977981567,1.423365592956543
1740246562545496800,9.393496826171875,3.499181032180786,1.8616660833358765,1.2398751974105835
1740246562555479000,9.40347900390625,3.5784316062927246,1.8903100490570068,1.020084261894226
1740246562565461200,9.413461181640624,3.6547622680664062,1.7836586236953735,0.7824877500534058
1740246562575443000,9.42344287109375,3.725151300430298,1.58451509475708,0.5236822962760925
1740246562585426200,9.43342626953125,3.775007724761963,1.3590636253356934,0.23286207020282745
1740246562595408100,9.443408203125,3.8216137886047363,1.1708563566207886,-0.09259725362062454
1740246562605390000,9.45339013671875,3.861966133117676,1.0228663682937622,-0.4386122524738312
1740246562615372300,9.463372314453125,3.9131968021392822,0.885344386100769,-0.7689834833145142
1740246562625354000,9.47335400390625,3.9616339206695557,0.7352630496025085,-1.062730312347412
1740246562635336200,9.483336181640626,3.99611496925354,0.5802931785583496,-1.2981055974960327
1740246562645318100,9.493318115234375,4.014533519744873,0.4486176669597626,-1.4594897031784058
1740246562655300000,9.503300048828125,4.025765895843506,0.34111836552619934,-1.5566282272338867
1740246562665282000,9.513281982421875,4.021710395812988,0.24936585128307343,-1.5828666687011719
1740246562675264000,9.523263916015624,3.990778923034668,0.12141986191272736,-1.5513827800750732
1740246562685246000,9.533245849609376,3.9159536361694336,-0.02231038548052311,-1.4560832977294922
1740246562695228200,9.543228271484375,3.811316728591919,-0.155778169631958,-1.3077726364135742
1740246562705210000,9.553210205078125,3.707144021987915,-0.264193594455719,-1.1102908849716187
1740246562715193000,9.563193115234375,3.6149797439575195,-0.3181290030479431,-0.8730740547180176
1740246562725175000,9.573175048828125,3.5495529174804688,-0.3239637613296509,-0.6145361065864563
1740246562735157000,9.583156982421874,3.530015230178833,-0.30613601207733154,-0.3415088653564453
1740246562745139200,9.59313916015625,3.559542179107666,-0.31375253200531006,-0.06580930948257446
1740246562755121000,9.603120849609375,3.5974466800689697,-0.35489943623542786,0.20717480778694153
1740246562765103000,9.61310302734375,3.597996950149536,-0.40919557213783264,0.46854090690612793
1740246562775085000,9.6230849609375,3.5335428714752197,-0.4570922553539276,0.7153184413909912
1740246562785067000,9.63306689453125,3.388052463531494,-0.4999835789203644,0.9239455461502075
1740246562795049200,9.64304931640625,3.18589186668396,-0.50340735912323,1.086334228515625
1740246562805031200,9.65303125,2.944080352783203,-0.42364370822906494,1.1802294254302979
1740246562815013000,9.66301318359375,2.692092180252075,-0.2638503313064575,1.2019165754318237
1740246562824995000,9.6729951171875,2.419863224029541,-0.08418264240026474,1.1479997634887695
1740246562834978000,9.68297802734375,2.106231689453125,0.0790981575846672,1.0471469163894653
1740246562844960000,9.6929599609375,1.7332878112792969,0.22007198631763458,0.9378138780593872
1740246562854942200,9.702942138671874,1.3077932596206665,0.294328898191452,0.8525490760803223
1740246562864924200,9.712924072265626,0.8631982207298279,0.27434977889060974,0.8085529804229736
1740246562874906000,9.722906005859375,0.4193746745586395,0.2047153115272522,0.8181821703910828
1740246562884888000,9.73288818359375,-0.01673216186463833,0.09516304731369019,0.8488867878913879
1740246562894870000,9.7428701171875,-0.45633643865585327,-0.026660587638616562,0.8787437677383423
1740246562904852200,9.752852294921874,-0.897243082523346,-0.13485807180404663,0.904463529586792
1740246562914834000,9.762833984375,-1.3210066556930542,-0.2052675187587738,0.9207999110221863
1740246562924816100,9.772816162109375,-1.7070554494857788,-0.24986691772937775,0.9611991047859192
1740246562934798000,9.782798095703125,-2.0484747886657715,-0.30852967500686646,1.0370930433273315
1740246562944780000,9.792780029296875,-2.3383092880249023,-0.3877842426300049,1.1543078422546387
1740246562954763300,9.80276318359375,-2.6020655632019043,-0.4116901159286499,1.3009377717971802
1740246562964745000,9.812744873046874,-2.8341453075408936,-0.3340374231338501,1.447018027305603
1740246562974727200,9.82272705078125,-3.018064260482788,-0.1582770198583603,1.585701584815979
1740246562984709000,9.832709228515625,-3.1389126777648926,0.06589072942733765,1.7150810956954956
1740246562994691000,9.842691162109375,-3.222773790359497,0.2782842218875885,1.8300036191940308
1740246563004673000,9.852673095703125,-3.279025077819824,0.44711002707481384,1.9134242534637451
1740246563014655200,9.8626552734375,-3.310556411743164,0.5816484093666077,1.944062352180481
1740246563024637000,9.872636962890626,-3.334012508392334,0.6780137419700623,1.8718409538269043
1740246563034619100,9.882619140625,-3.3626649379730225,0.7565827965736389,1.6886122226715088
1740246563044601000,9.89260107421875,-3.4159862995147705,0.769318163394928,1.3841042518615723
1740246563054583000,9.9025830078125,-3.5369083881378174,0.7334477305412292,0.9046210050582886
1740246563064565200,9.912565185546875,-3.7322402000427246,0.6582956314086914,0.1909344345331192
1740246563074548000,9.9225478515625,-3.9775960445404053,0.4545888304710388,-0.6738216876983643
1740246563084530200,9.9325302734375,-4.164842128753662,0.08167208731174469,-1.527591586112976
1740246563094511900,9.942511962890626,-4.244736194610596,-0.5107100605964661,-2.2547683715820312
1740246563104494000,9.952494140625,-4.340843677520752,-1.1936726570129395,-2.8709824085235596
1740246563114476300,9.962476318359375,-4.54838752746582,-1.8784089088439941,-3.3961503505706787
1740246563124458000,9.9724580078125,-4.8181843757629395,-2.4985768795013428,-3.8067734241485596
1740246563134440200,9.982440185546874,-5.119836330413818,-2.979342460632324,-4.081786632537842
1740246563144422100,9.992422119140626,-5.445871829986572,-3.2433457374572754,-4.228893756866455
1740246563154404000,10.002404052734375,-5.802423000335693,-3.174379348754883,-4.295346260070801
1740246563164386000,10.012385986328125,-6.040121555328369,-3.0829975605010986,-4.2727580070495605
1740246563174368300,10.0223681640625,-6.084722995758057,-2.7758712768554688,-4.158535480499268
1740246563184350000,10.032349853515624,-5.868412017822266,-2.077721118927002,-3.897717237472534
1740246563194332200,10.042332275390624,-5.512141704559326,-1.241043210029602,-3.4643032550811768
1740246563204315100,10.052315185546876,-5.161934852600098,-0.5131876468658447,-2.8704874515533447
1740246563214297000,10.062297119140625,-4.890822887420654,0.1012406125664711,-2.1473934650421143
1740246563224279000,10.072279052734375,-4.687748432159424,0.6497074365615845,-1.3422545194625854
1740246563234261000,10.082260986328125,-4.521214008331299,1.0514050722122192,-0.5131933093070984
1740246563244243200,10.0922431640625,-4.381073951721191,1.2321386337280273,0.2638830542564392
1740246563254225000,10.102224853515626,-4.2410478591918945,1.2512567043304443,0.9363293647766113
1740246563264207000,10.11220703125,-4.0440239906311035,1.2329915761947632,1.4783811569213867
1740246563274189000,10.12218896484375,-3.7072932720184326,1.1936510801315308,1.8801724910736084
1740246563284171000,10.1321708984375,-3.2047712802886963,1.0914440155029297,2.1594185829162598
1740246563294153000,10.142153076171875,-2.595216989517212,0.9323300719261169,2.322025775909424
1740246563304135200,10.15213525390625,-1.9900845289230347,0.7354733347892761,2.3869621753692627
1740246563314117000,10.1621171875,-1.4974080324172974,0.5361791849136353,2.385258197784424
1740246563324100000,10.17210009765625,-1.1619484424591064,0.2929004430770874,2.313472270965576
1740246563334082000,10.18208203125,-0.9777606725692749,-0.008816549554467201,2.1456589698791504
1740246563344064000,10.19206396484375,-0.8967801928520203,-0.27632996439933777,1.8566842079162598
1740246563354046200,10.202046142578125,-0.8607226014137268,-0.42070579528808594,1.463381052017212
1740246563364028000,10.21202783203125,-0.7965450286865234,-0.4559996724128723,1.022158145904541
1740246563374010000,10.222010009765626,-0.6569375991821289,-0.49843287467956543,0.6116527318954468
1740246563383992300,10.231992431640625,-0.42800191044807434,-0.650815486907959,0.2828802168369293
1740246563393974000,10.24197412109375,-0.1589696705341339,-0.8590163588523865,0.021548761054873466
1740246563403956200,10.251956298828125,0.06453254073858261,-1.0596054792404175,-0.18708132207393646
1740246563413938000,10.26193798828125,0.23727074265480042,-1.1916366815567017,-0.33842507004737854
1740246563423920000,10.271920166015626,0.40223661065101624,-1.2769668102264404,-0.4353596270084381
1740246563433902000,10.281902099609376,0.6140519380569458,-1.2863008975982666,-0.49526262283325195
1740246563443885000,10.291885009765625,0.9165449738502502,-1.1771968603134155,-0.5490148067474365
1740246563453867300,10.3018671875,1.322604775428772,-0.9396544098854065,-0.6326202154159546
1740246563463849000,10.311848876953125,1.7809373140335083,-0.6558573246002197,-0.733955979347229
1740246563473831200,10.3218310546875,2.2079408168792725,-0.3742271959781647,-0.8248550295829773
1740246563483813000,10.331813232421876,2.5345864295959473,-0.095618337392807,-0.8526212573051453
1740246563493795000,10.341795166015626,2.750671625137329,0.17602194845676422,-0.7857884168624878
1740246563503777000,10.351777099609375,2.878002405166626,0.4083450734615326,-0.6391895413398743
1740246563513759200,10.36175927734375,2.938528299331665,0.5733353495597839,-0.4170854091644287
1740246563523741000,10.371740966796875,2.9580440521240234,0.6800259947776794,-0.13480901718139648
1740246563533723100,10.38172314453125,2.9770445823669434,0.7433652877807617,0.1906958520412445
1740246563543705000,10.391705078125,3.0276806354522705,0.7751661539077759,0.5291225910186768
1740246563553687000,10.40168701171875,3.151618242263794,0.7687053084373474,0.8369938135147095
1740246563563669200,10.411669189453125,3.339824914932251,0.7583138942718506,1.0587964057922363
1740246563573651200,10.421651123046875,3.560455083847046,0.787287712097168,1.1770063638687134
1740246563583633200,10.431633056640624,3.773662567138672,0.8641374707221985,1.2022807598114014
1740246563593615400,10.441615478515626,3.957982301712036,0.9983552098274231,1.1384488344192505
1740246563603597300,10.451597412109376,4.11715030670166,1.14504873752594,1.0035597085952759
1740246563613579300,10.461579345703125,4.266074180603027,1.2683913707733154,0.817521870136261
1740246563623561500,10.4715615234375,4.392325401306152,1.3384532928466797,0.643731415271759
1740246563633543200,10.481543212890625,4.481081008911133,1.3406873941421509,0.5175551176071167
1740246563643525400,10.491525390625,4.543904781341553,1.2798116207122803,0.45392677187919617
1740246563653507300,10.50150732421875,4.576803684234619,1.1595038175582886,0.4418932795524597
1740246563663489300,10.5114892578125,4.594989776611328,0.9933046698570251,0.4548240005970001
1740246563673472500,10.521472412109375,4.608182907104492,0.8083947896957397,0.44569334387779236
1740246563683454200,10.5314541015625,4.622461318969727,0.6624537110328674,0.3892953395843506
1740246563693436400,10.5414365234375,4.611904621124268,0.5690582394599915,0.2792455554008484
1740246563703418400,10.55141845703125,4.58075475692749,0.5281805396080017,0.13557679951190948
1740246563713400300,10.561400390625,4.526599884033203,0.5048174262046814,-0.004941708408296108
1740246563723382300,10.57138232421875,4.464282035827637,0.4679795503616333,-0.11338340491056442
1740246563733364200,10.5813642578125,4.391321182250977,0.4256858825683594,-0.18429353833198547
1740246563743346200,10.59134619140625,4.323048114776611,0.36595433950424194,-0.22007140517234802
1740246563753328400,10.601328369140624,4.262040615081787,0.30718156695365906,-0.22537988424301147
1740246563763310000,10.61131005859375,4.2027668952941895,0.26740190386772156,-0.21606090664863586
1740246563773292300,10.621292236328125,4.1327314376831055,0.253739595413208,-0.19070973992347717
1740246563783274500,10.6312744140625,4.056708335876465,0.2594898045063019,-0.15701407194137573
1740246563793257200,10.64125732421875,3.959648847579956,0.24867337942123413,-0.11687996238470078
1740246563803239400,10.651239501953125,3.858335256576538,0.23074482381343842,-0.0686483308672905
1740246563813221000,10.66122119140625,3.7531888484954834,0.2256171703338623,-0.020980674773454666
1740246563823203300,10.671203369140626,3.6478843688964844,0.22034290432929993,0.02450251579284668
1740246563833185300,10.681185302734375,3.5298590660095215,0.20379988849163055,0.07577955722808838
1740246563843167200,10.691167236328125,3.387584686279297,0.16880103945732117,0.138924241065979
1740246563853149400,10.7011494140625,3.200690269470215,0.1012161374092102,0.2273973822593689
1740246563863131400,10.71113134765625,2.969365358352661,0.005371581297367811,0.33919471502304077
1740246563873113300,10.72111328125,2.7152247428894043,-0.06588661670684814,0.44321221113204956
1740246563883095300,10.73109521484375,2.4444947242736816,-0.07441359758377075,0.5189496874809265
1740246563893077200,10.7410771484375,2.1434831619262695,-0.021666228771209717,0.534220278263092
1740246563903060200,10.751060302734375,1.7916827201843262,0.06544531136751175,0.48023468255996704
1740246563913042400,10.76104248046875,1.3783873319625854,0.1414300799369812,0.3727225959300995
1740246563923024400,10.7710244140625,0.9274435043334961,0.17662246525287628,0.2558794319629669
1740246563933006300,10.78100634765625,0.4601018726825714,0.1347879320383072,0.1555464267730713
1740246563942988300,10.79098828125,0.011656957678496838,0.0006574513390660286,0.08735859394073486
1740246563952970200,10.80097021484375,-0.4150719940662384,-0.19444146752357483,0.03136403113603592
1740246563962952400,10.810952392578125,-0.811324417591095,-0.407690167427063,-0.02123989909887314
1740246563972934100,10.82093408203125,-1.1642507314682007,-0.6077747941017151,-0.10051314532756805
1740246563982916400,10.830916259765624,-1.4823143482208252,-0.7934449911117554,-0.19832715392112732
1740246563992898300,10.840898193359376,-1.7663568258285522,-0.9509011507034302,-0.3175523579120636
1740246564002880300,10.85088037109375,-2.013678789138794,-1.0542926788330078,-0.43410250544548035
1740246564012863500,10.860863525390625,-2.223693609237671,-1.0931681394577026,-0.5226486325263977
1740246564022845200,10.87084521484375,-2.4142816066741943,-1.0430833101272583,-0.5936375260353088
1740246564032827400,10.880827392578125,-2.6217265129089355,-0.9369284510612488,-0.6572015881538391
1740246564042809300,10.890809326171874,-2.8881542682647705,-0.8279837965965271,-0.7581247091293335
1740246564052791300,10.900791259765626,-3.2337846755981445,-0.7405833601951599,-0.9056987166404724
1740246564062773200,10.910773193359375,-3.5897276401519775,-0.6333810091018677,-1.0868744850158691
1740246564072755500,10.92075537109375,-3.884650468826294,-0.4810783267021179,-1.2781763076782227
1740246564082737200,10.930737060546875,-4.100616455078125,-0.28118544816970825,-1.451632022857666
1740246564092719400,10.94071923828125,-4.249719619750977,-0.08603227883577347,-1.6158809661865234
1740246564102701300,10.950701416015624,-4.384548664093018,0.06765414774417877,-1.7983548641204834
1740246564112683300,10.960683349609376,-4.507201671600342,0.15585777163505554,-2.007037401199341
1740246564122665500,10.97066552734375,-4.605310440063477,0.16021716594696045,-2.222402572631836
1740246564132648200,10.980648193359375,-4.6624979972839355,0.11877120286226273,-2.428417682647705
1740246564142630400,10.99063037109375,-4.681606292724609,0.04780838266015053,-2.5877726078033447
1740246564152612000,11.000612060546874,-4.673807621002197,-0.015270184725522995,-2.6915221214294434
1740246564162594300,11.01059423828125,-4.653005599975586,-0.05431850627064705,-2.740311622619629
1740246564172576300,11.020576171875,-4.616858005523682,-0.07448422163724899,-2.7202529907226562
1740246564182558200,11.03055810546875,-4.499836444854736,-0.08196863532066345,-2.612792491912842
1740246564192540400,11.04054052734375,-4.214270114898682,-0.10805509239435196,-2.4206552505493164
1740246564202522400,11.0505224609375,-3.687840700149536,-0.191012442111969,-2.117959976196289
1740246564212504300,11.06050439453125,-2.982699394226074,-0.2899230718612671,-1.652852177619934
1740246564222486300,11.070486328125,-2.3561062812805176,-0.3936544954776764,-0.9916645288467407
1740246564232468500,11.080468505859375,-1.951256275177002,-0.5013977289199829,-0.14583207666873932
1740246564242451200,11.090451171875,-1.8758295774459839,-0.583568274974823,0.7672680616378784
1740246564252433400,11.100433349609375,-2.107739210128784,-0.6010812520980835,1.5644831657409668
1740246564262415400,11.110415283203125,-2.4665424823760986,-0.5455242395401001,2.141265869140625
1740246564272397300,11.120397216796874,-2.750645399093628,-0.3814743161201477,2.4414639472961426
1740246564282379300,11.130379150390626,-2.865952730178833,-0.17081616818904877,2.4600977897644043
1740246564292361200,11.140361328125,-2.8064589500427246,0.004298918414860964,2.255167007446289
1740246564302343400,11.150343505859375,-2.6312153339385986,0.17576463520526886,1.8076142072677612
1740246564312325000,11.1603251953125,-2.4201548099517822,0.17089956998825073,1.307386875152588
1740246564322307300,11.170307373046874,-2.2795751094818115,-0.014445558190345764,0.9581031203269958
1740246564332289300,11.180289306640624,-2.269061326980591,-0.22504299879074097,0.762998640537262
1740246564342271200,11.190271240234376,-2.3556880950927734,-0.379779577255249,0.626483142375946
1740246564352254500,11.20025439453125,-2.4558582305908203,-0.4859536588191986,0.4736829698085785
1740246564362236200,11.210236083984375,-2.548502206802368,-0.5078768730163574,0.2785111665725708
1740246564372218400,11.22021826171875,-2.597769021987915,-0.43553876876831055,0.0857076346874237
1740246564382200300,11.230200439453125,-2.5657570362091064,-0.35518625378608704,-0.04586150497198105
1740246564392182300,11.240182373046874,-2.4759466648101807,-0.2564242482185364,-0.10320229083299637
1740246564402164200,11.250164306640626,-2.361997365951538,-0.08350997418165207,-0.11639464646577835
1740246564412146400,11.260146484375,-2.2217166423797607,0.1858019232749939,-0.09521345794200897
1740246564422128000,11.270128173828125,-2.033460855484009,0.48854658007621765,-0.061855118721723557
1740246564432110300,11.2801103515625,-1.7750341892242432,0.7085095643997192,-0.013102492317557335
1740246564442092300,11.29009228515625,-1.5072858333587646,0.7881945371627808,0.047914788126945496
1740246564452074200,11.30007421875,-1.2609610557556152,0.7349182367324829,0.14028333127498627
1740246564462057500,11.310057373046876,-1.053341031074524,0.5608305335044861,0.2773841321468353
1740246564472039200,11.3200390625,-0.8626238703727722,0.3180692791938782,0.4787561297416687
1740246564482021400,11.330021484375,-0.6416933536529541,0.12755033373832703,0.7100324630737305
1740246564492003300,11.34000341796875,-0.3519774079322815,0.08303957432508469,0.9170855283737183
1740246564501985300,11.3499853515625,0.030628027394413948,0.17138142883777618,1.0558849573135376
1740246564511967200,11.35996728515625,0.522036612033844,0.32667726278305054,1.0988774299621582
1740246564521949200,11.36994921875,1.0780048370361328,0.4859507977962494,1.051356554031372
1740246564531931400,11.379931396484375,1.603249192237854,0.6101004481315613,0.9566105604171753
1740246564541913300,11.389913330078125,1.9750176668167114,0.697484016418457,0.8818385601043701
1740246564551895300,11.399895263671874,2.144519567489624,0.73200923204422,0.8714975118637085
1740246564561877800,11.409877685546874,2.1488285064697266,0.750556230545044,0.9438822865486145
1740246564571860700,11.41986083984375,2.053790807723999,0.8220592141151428,1.0705572366714478
1740246564581843000,11.429843017578126,1.9566755294799805,0.9646865129470825,1.2333433628082275
1740246564591825000,11.439824951171875,1.9361193180084229,1.0791445970535278,1.3952305316925049
1740246564601806800,11.449806884765625,2.027177333831787,1.1470178365707397,1.516922116279602
1740246564611788800,11.459788818359375,2.218273639678955,1.2317585945129395,1.5643540620803833
1740246564621770800,11.469770751953124,2.460616111755371,1.3130217790603638,1.540488839149475
1740246564631752700,11.479752685546876,2.7071404457092285,1.3695201873779297,1.4421290159225464
1740246564641735000,11.48973486328125,2.9077234268188477,1.3776904344558716,1.2846784591674805
1740246564651716600,11.499716552734375,3.0334339141845703,1.3579661846160889,1.0964515209197998
1740246564661698800,11.50969873046875,3.099515914916992,1.2909494638442993,0.8838889002799988
1740246564671680800,11.5196806640625,3.1314537525177,1.3328889608383179,0.6557009816169739
1740246564681663700,11.529663818359374,3.1641669273376465,1.3730987310409546,0.43147966265678406
1740246564691646000,11.53964599609375,3.2329061031341553,1.1937190294265747,0.20386725664138794
1740246564701627600,11.549627685546875,3.3599441051483154,1.095384955406189,0.004925026558339596
1740246564711609900,11.55960986328125,3.502599000930786,1.03883695602417,-0.1569853127002716
1740246564721591800,11.569591796875,3.623124599456787,0.9022794365882874,-0.27595725655555725
1740246564731573800,11.57957373046875,3.7061612606048584,0.774152934551239,-0.34158527851104736
1740246564741555700,11.5895556640625,3.7491748332977295,0.7150186896324158,-0.3665114641189575
1740246564751538000,11.599537841796876,3.7659554481506348,0.7015960812568665,-0.35604897141456604
1740246564761519900,11.609519775390625,3.7606451511383057,0.7404075860977173,-0.3217228353023529
1740246564771501800,11.619501708984375,3.7734742164611816,0.8153724074363708,-0.2763543128967285
1740246564781484800,11.62948486328125,3.814702272415161,0.8695864677429199,-0.22002410888671875
1740246564791466800,11.639466796875,3.8923492431640625,0.9096542596817017,-0.16707754135131836
1740246564801448700,11.64944873046875,3.975299835205078,0.9434823989868164,-0.11477085947990417
1740246564811430700,11.6594306640625,4.058317184448242,0.9572858214378357,-0.055439889430999756
1740246564821412900,11.669412841796875,4.1266865730285645,0.9297839403152466,0.01068387646228075
1740246564831394800,11.679394775390625,4.186048984527588,0.8494699597358704,0.0754317119717598
1740246564841376800,11.689376708984375,4.213931083679199,0.7600947022438049,0.12768936157226562
1740246564851359000,11.69935888671875,4.180953025817871,0.6586655378341675,0.16490651667118073
1740246564861340700,11.709340576171876,4.096188068389893,0.5254444479942322,0.17635540664196014
1740246564871323000,11.719322998046875,3.9792187213897705,0.3679456412792206,0.17255960404872894
1740246564881304800,11.729304931640625,3.8477084636688232,0.16446417570114136,0.14827410876750946
1740246564891287800,11.739287841796875,3.7014987468719482,-0.1085686981678009,0.12796004116535187
1740246564901270000,11.74927001953125,3.529649019241333,-0.38116228580474854,0.11121588945388794
1740246564911251700,11.759251708984374,3.3208703994750977,-0.5495629906654358,0.06647291779518127
1740246564921234000,11.76923388671875,3.0410099029541016,-0.5666346549987793,-0.03593173250555992
1740246564931216000,11.7792158203125,2.6660265922546387,-0.440802663564682,-0.2044067680835724
1740246564941197800,11.78919775390625,2.1747586727142334,-0.25425246357917786,-0.39464157819747925
1740246564951179800,11.7991796875,1.6243257522583008,-0.11196774244308472,-0.5634857416152954
1740246564961161700,11.80916162109375,1.0726828575134277,-0.057503700256347656,-0.6786357760429382
1740246564971143700,11.819143798828126,0.5416353344917297,-0.10144373029470444,-0.7550820708274841
1740246564981126000,11.8291259765625,0.04589420184493065,-0.22009098529815674,-0.7904562950134277
1740246564991108900,11.83910888671875,-0.4085220396518707,-0.3634606599807739,-0.7815365791320801
1740246565001090800,11.8490908203125,-0.8145233988761902,-0.47742414474487305,-0.7229949235916138
1740246565011072800,11.85907275390625,-1.1892729997634888,-0.5196706652641296,-0.636305034160614
1740246565021054700,11.8690546875,-1.5033259391784668,-0.5330318808555603,-0.5209923386573792
1740246565031037000,11.879036865234376,-1.7821048498153687,-0.5236812829971313,-0.3671676218509674
1740246565041018600,11.8890185546875,-2.046314239501953,-0.49022212624549866,-0.1824682354927063
1740246565051001900,11.899001953125,-2.332728147506714,-0.43888089060783386,-0.009458635933697224
1740246565060983800,11.90898388671875,-2.615478515625,-0.38332560658454895,0.10072514414787292
1740246565070965800,11.9189658203125,-2.882005453109741,-0.31682485342025757,0.11792783439159393
1740246565080948000,11.928947998046874,-3.1154046058654785,-0.23841412365436554,0.031743865460157394
1740246565090929700,11.9389296875,-3.298206090927124,-0.1414838433265686,-0.14167824387550354
1740246565100911900,11.948911865234376,-3.409339427947998,-0.023530321195721626,-0.3998391628265381
1740246565110893800,11.958893798828125,-3.470167875289917,0.11115744709968567,-0.7169234156608582
1740246565120875800,11.968875732421875,-3.5208191871643066,0.22694504261016846,-1.0609548091888428
1740246565130857700,11.978857666015625,-3.589540719985962,0.25751492381095886,-1.402925968170166
1740246565140840000,11.98883984375,-3.673666477203369,0.1536189764738083,-1.7312592267990112
1740246565150823000,11.998822998046874,-3.773726463317871,-0.045794527977705,-2.0609548091888428
1740246565160804900,12.008804931640626,-3.8858587741851807,-0.2697104513645172,-2.3779594898223877
1740246565170786800,12.018786865234375,-4.013856887817383,-0.4426870346069336,-2.6993789672851562
1740246565180768800,12.028768798828125,-4.152066230773926,-0.5328481793403625,-3.004966974258423
1740246565190750700,12.038750732421875,-4.303171634674072,-0.5471975803375244,-3.248126983642578
1740246565200732700,12.048732666015624,-4.44807767868042,-0.5175166130065918,-3.371330976486206
1740246565210715000,12.05871484375,-4.578507423400879,-0.4668465554714203,-3.3633577823638916
1740246565220696600,12.068696533203125,-4.693845748901367,-0.4031076729297638,-3.2404069900512695
1740246565230678800,12.0786787109375,-4.7590718269348145,-0.3059856593608856,-3.0426764488220215
1740246565240661000,12.088660888671875,-4.7251739501953125,-0.23045587539672852,-2.7655224800109863
1740246565250642700,12.098642578125,-4.57817268371582,-0.19196386635303497,-2.419757604598999
1740246565260626000,12.1086259765625,-4.363065719604492,-0.13095404207706451,-2.043126344680786
1740246565270607600,12.118607666015626,-4.093449115753174,-0.08458095043897629,-1.6519443988800049
1740246565280589800,12.12858984375,-3.7978806495666504,-0.056559279561042786,-1.2574586868286133
1740246565290571800,12.13857177734375,-3.5364344120025635,-0.031698405742645264,-0.8714125156402588
1740246565300553700,12.1485537109375,-3.3626656532287598,0.0226262379437685,-0.5020126104354858
1740246565310536000,12.158535888671874,-3.295156240463257,0.15672998130321503,-0.1451367884874344
1740246565320518000,12.168517822265626,-3.2762386798858643,0.32870155572891235,0.1881360411643982
1740246565330499800,12.178499755859375,-3.247441291809082,0.48666349053382874,0.48166006803512573
1740246565340481800,12.188481689453125,-3.174832820892334,0.5846424102783203,0.7246004343032837
1740246565350463700,12.198463623046875,-3.0321760177612305,0.6345103979110718,0.9008913040161133
1740246565360446700,12.20844677734375,-2.8300185203552246,0.6244302988052368,1.0043277740478516
1740246565370429000,12.218428955078124,-2.6108627319335938,0.5850828886032104,1.0402024984359741
1740246565380409600,12.22840966796875,-2.395249128341675,0.5650951266288757,1.03083336353302
1740246565390391800,12.238391845703125,-2.18400239944458,0.5733530521392822,1.0073597431182861
1740246565400373800,12.248373779296875,-1.9955449104309082,0.5853691101074219,0.9846034049987793
1740246565410355700,12.258355712890625,-1.8439903259277344,0.5784225463867188,0.9714024066925049
1740246565420338000,12.268337890625,-1.7061883211135864,0.5321449637413025,0.9553132653236389
1740246565430319900,12.27831982421875,-1.5523405075073242,0.4153783917427063,0.9283085465431213
1740246565440302800,12.288302734375,-1.355391025543213,0.26231977343559265,0.877566397190094
1740246565450284800,12.298284912109375,-1.1302146911621094,0.1578759253025055,0.7990865111351013
1740246565460266800,12.308266845703125,-0.8919107913970947,0.1475445032119751,0.688215970993042
1740246565470248700,12.318248779296875,-0.6604541540145874,0.20374998450279236,0.5484061241149902
1740246565480231000,12.32823095703125,-0.4553462862968445,0.2715851962566376,0.4118996560573578
1740246565490212900,12.338212890625,-0.27376824617385864,0.29325559735298157,0.3114311099052429
1740246565500194800,12.34819482421875,-0.10808666795492172,0.2593732476234436,0.25352615118026733
1740246565510177000,12.358177001953125,0.04041625186800957,0.22669865190982819,0.2433081418275833
1740246565520158700,12.36815869140625,0.1986641138792038,0.16963496804237366,0.2883167266845703
1740246565530141000,12.378140869140625,0.40691664814949036,0.09212897717952728,0.3687417805194855
1740246565540123600,12.38812353515625,0.6948860287666321,0.0055207242257893085,0.44107648730278015
1740246565550105900,12.39810595703125,1.0681589841842651,-0.050288744270801544,0.472281813621521
1740246565560087600,12.408087646484375,1.4947723150253296,-0.08717319369316101,0.4304332137107849
1740246565570069500,12.418069580078125,1.9022595882415771,-0.05527385324239731,0.3134823441505432
1740246565580051700,12.4280517578125,2.211357593536377,0.05541283264756203,0.17426465451717377
1740246565590033400,12.438033447265624,2.3800323009490967,0.18625739216804504,0.09134074300527573
1740246565600015600,12.448015625,2.4165077209472656,0.2840155065059662,0.12065441906452179
1740246565609997600,12.45799755859375,2.366259813308716,0.37357333302497864,0.23623400926589966
1740246565619979500,12.4679794921875,2.2877132892608643,0.48782435059547424,0.41851508617401123
1740246565629961500,12.47796142578125,2.226897954940796,0.6094008684158325,0.6640135645866394
1740246565639944400,12.4879443359375,2.2183659076690674,0.7116283774375916,0.9521315693855286
1740246565649926700,12.4979267578125,2.28173828125,0.7779727578163147,1.2366671562194824
1740246565659908600,12.50790869140625,2.4255244731903076,0.835944652557373,1.4651637077331543
1740246565669890600,12.517890625,2.631227731704712,0.9036563038825989,1.5986567735671997
1740246565679872500,12.52787255859375,2.8418729305267334,1.0256317853927612,1.6309986114501953
1740246565689854700,12.537854736328125,3.00197696685791,1.1464625597000122,1.5505011081695557
1740246565699836400,12.54783642578125,3.0997509956359863,1.3353818655014038,1.3614401817321777
1740246565709818600,12.557818603515624,3.1709611415863037,1.4267644882202148,1.1038997173309326
1740246565719800600,12.567800537109376,3.220601797103882,1.5593411922454834,0.8320373892784119
1740246565729782500,12.577782470703125,3.283020496368408,1.4352128505706787,0.5482161045074463
1740246565739765800,12.587765869140625,3.3679730892181396,1.2332065105438232,0.2674082815647125
