time,seconds_elapsed,z,y,x
1740246553188579600,0.03657958984375,-0.5940473675727844,0.07917524874210358,0.8693889379501343
1740246553198561500,0.0465615234375,-0.8404339551925659,-0.39897534251213074,0.9243634939193726
1740246553208543500,0.05654345703125,-1.0247553586959839,-0.8637970685958862,0.8387340903282166
1740246553218525400,0.066525390625,-1.1390191316604614,-1.4975271224975586,0.5460668206214905
1740246553228507400,0.07650732421875,-1.1701642274856567,-1.6586664915084839,0.08947662264108658
1740246553238489300,0.0864892578125,-1.0547630786895752,-0.9712923765182495,-0.4666007459163666
1740246553248471600,0.096471435546875,-0.8650251030921936,0.16554901003837585,-0.8436124324798584
1740246553258453200,0.106453369140625,-0.600358247756958,1.1498632431030273,-0.9633486866950989
1740246553268435500,0.116435546875,-0.28281518816947937,1.6643850803375244,-0.8412244319915771
1740246553278417400,0.12641748046875,-0.0004900216590613127,1.6726171970367432,-0.5615115165710449
1740246553288399400,0.1363994140625,0.22620463371276855,1.2971829175949097,-0.21382972598075867
1740246553298381600,0.146381591796875,0.34235653281211853,0.684110164642334,0.12586446106433868
1740246553308363500,0.156363525390625,0.37959739565849304,0.10274156183004379,0.34710416197776794
1740246553318345500,0.166345458984375,0.36999189853668213,-0.34191471338272095,0.45624423027038574
1740246553328327400,0.176327392578125,0.3211023807525635,-0.47594815492630005,0.5076562762260437
1740246553338309600,0.1863095703125,0.29402682185173035,-0.1530526727437973,0.5005717277526855
1740246553348291300,0.196291259765625,0.373512864112854,0.5020002722740173,0.45002469420433044
1740246553358273500,0.2062734375,0.6270516514778137,1.275641918182373,0.3498746454715729
1740246553368255500,0.21625537109375,0.947943389415741,1.835667610168457,0.2621668875217438
1740246553378237400,0.226237548828125,1.1494081020355225,1.8259096145629883,0.16379718482494354
1740246553388219400,0.236219482421875,1.1911680698394775,0.8445901274681091,-0.05180034786462784
1740246553398201300,0.246201416015625,0.9614863395690918,-0.12015730142593384,-0.17068491876125336
1740246553408183600,0.25618359375,0.6016011834144592,-0.5812979936599731,-0.2655816078186035
1740246553418165500,0.26616552734375,0.38049593567848206,-0.7786440849304199,-0.3069407641887665
1740246553428147500,0.2761474609375,0.3106984794139862,-0.48283934593200684,-0.3417520225048065
1740246553438129400,0.28612939453125,0.2830530107021332,0.09958464652299881,-0.3961164355278015
1740246553448111600,0.296111572265625,0.13665691018104553,0.5512836575508118,-0.3835596442222595
1740246553458093300,0.30609326171875,-0.09701789170503616,1.086376428604126,-0.335369735956192
1740246553468075500,0.316075439453125,-0.29662102460861206,1.4296330213546753,-0.3306570053100586
1740246553478057500,0.326057373046875,-0.41777247190475464,1.3746614456176758,-0.39988934993743896
1740246553488039400,0.336039306640625,-0.3921446204185486,1.097516417503357,-0.5928462743759155
1740246553498021400,0.346021484375,-0.1817450374364853,0.6446495652198792,-0.8683638572692871
1740246553508003600,0.356003662109375,0.12859126925468445,0.128736674785614,-1.0661840438842773
1740246553517985500,0.365985595703125,0.37336108088493347,-0.24239292740821838,-1.0810176134109497
1740246553527967500,0.375967529296875,0.48581570386886597,-0.42347270250320435,-0.9108700752258301
1740246553537949400,0.385949462890625,0.4546506106853485,-0.376944363117218,-0.6153897047042847
1740246553547932000,0.395931884765625,0.3536081314086914,-0.13650991022586823,-0.28496116399765015
1740246553557914000,0.4059140625,0.2622542679309845,0.14475159347057343,-0.018676215782761574
1740246553567895800,0.415895751953125,0.24659433960914612,0.2805802524089813,0.12529586255550385
1740246553577878000,0.4258779296875,0.26807618141174316,0.2747543454170227,0.1736532747745514
1740246553587860000,0.43585986328125,0.2661888003349304,0.20887145400047302,0.17055176198482513
1740246553597842000,0.445842041015625,0.21687239408493042,0.12234402447938919,0.12721680104732513
1740246553607824000,0.455823974609375,0.14295129477977753,0.08960232138633728,0.060087837278842926
1740246553617806000,0.46580615234375,0.0960564911365509,0.17561709880828857,-0.0012921657180413604
1740246553627788000,0.4757880859375,0.09992047399282455,0.2545364201068878,-0.042518164962530136
1740246553637770000,0.48577001953125,0.1539115309715271,0.256128191947937,-0.1021074578166008
1740246553647752000,0.495751953125,0.23726634681224823,0.21314290165901184,-0.21162116527557373
1740246553657734000,0.50573388671875,0.31781071424484253,0.11982706934213638,-0.3589954376220703
1740246553667716000,0.515716064453125,0.36826857924461365,-0.06873086094856262,-0.503286600112915
1740246553677697800,0.52569775390625,0.36102983355522156,-0.24068450927734375,-0.5953933596611023
1740246553687680000,0.535679931640625,0.27157533168792725,-0.32141557335853577,-0.6129235625267029
1740246553697662000,0.545661865234375,0.09499681740999222,-0.20963099598884583,-0.525334358215332
1740246553707644000,0.555643798828125,-0.1155465692281723,-0.0011624698527157307,-0.36302027106285095
1740246553717625900,0.5656259765625,-0.27239078283309937,0.290130615234375,-0.14978043735027313
1740246553727608000,0.575608154296875,-0.32053592801094055,0.40883970260620117,0.11501899361610413
1740246553737590000,0.585590087890625,-0.2268400639295578,0.5756483674049377,0.3323633074760437
1740246553747572000,0.595572021484375,-0.10380122810602188,0.7726730704307556,0.5051110982894897
1740246553757554200,0.60555419921875,0.06286098808050156,0.9947881102561951,0.5967286229133606
1740246553767535900,0.615535888671875,0.11091399937868118,1.1069176197052002,0.5695324540138245
1740246553777518000,0.62551806640625,0.057496849447488785,1.1222143173217773,0.5409353971481323
1740246553787500000,0.6355,0.02756078727543354,1.0308127403259277,0.5341424942016602
1740246553797482000,0.64548193359375,0.06967521458864212,0.9223147034645081,0.5325959920883179
1740246553807464000,0.6554638671875,0.18831399083137512,0.7961724996566772,0.5488743185997009
1740246553817446000,0.66544580078125,0.34450650215148926,0.7032015323638916,0.5976325273513794
1740246553827427800,0.675427734375,0.4858822822570801,0.6127896308898926,0.651832640171051
1740246553837410000,0.68541015625,0.5794758796691895,0.45619362592697144,0.652209460735321
1740246553847392000,0.69539208984375,0.5557005405426025,0.23295974731445312,0.567407488822937
1740246553857374000,0.7053740234375,0.41753411293029785,0.01684103161096573,0.41530850529670715
1740246553867356200,0.715356201171875,0.22935223579406738,-0.08353537321090698,0.2667299509048462
1740246553877337900,0.725337890625,0.036492232233285904,-0.027719246223568916,0.17561310529708862
1740246553887320000,0.735320068359375,-0.18097244203090668,0.08933467417955399,0.13572028279304504
1740246553897302000,0.745302001953125,-0.42468738555908203,0.20652148127555847,0.11308714002370834
1740246553907284000,0.755283935546875,-0.6522611379623413,0.2353091835975647,0.018925221636891365
1740246553917266000,0.765265869140625,-0.8315552473068237,0.24570004642009735,-0.25623950362205505
1740246553927248100,0.775248046875,-0.8836016654968262,0.02532399818301201,-0.5793176889419556
1740246553937229800,0.785229736328125,-0.8494769930839539,-0.04312962666153908,-0.8265858292579651
1740246553947212000,0.7952119140625,-0.8097221255302429,-0.0018852517241612077,-0.854847252368927
1740246553957193700,0.80519384765625,-0.7554322481155396,-0.14000263810157776,-0.6800879836082458
1740246553967176000,0.815176025390625,-0.7811434864997864,-0.023369770497083664,-0.38678738474845886
1740246553977158100,0.825158203125,-0.8948380947113037,0.27741748094558716,-0.03603203594684601
1740246553987139800,0.835139892578125,-1.0676261186599731,0.7035338878631592,0.34973856806755066
1740246553997122000,0.8451220703125,-1.2195498943328857,1.073086142539978,0.743215799331665
1740246554007104000,0.85510400390625,-1.2980444431304932,1.1627336740493774,1.0635876655578613
1740246554017086000,0.8650859375,-1.3310532569885254,1.053085207939148,1.2172532081604004
1740246554027068000,0.87506787109375,-1.367630958557129,0.9666246771812439,1.093328595161438
1740246554037050000,0.885050048828125,-1.5068855285644531,1.230356216430664,0.7151951193809509
1740246554047033000,0.895033203125,-1.793142557144165,1.2806921005249023,0.40516480803489685
1740246554057015000,0.90501513671875,-2.1304824352264404,1.003308892250061,0.3524478077888489
1740246554066997000,0.9149970703125,-2.43162202835083,0.8039590716362,0.44893863797187805
1740246554076979000,0.92497900390625,-2.527096748352051,1.0071526765823364,0.5469158291816711
1740246554086961200,0.934961181640625,-2.2021141052246094,1.291858196258545,0.5914710164070129
1740246554096942800,0.94494287109375,-1.7310019731521606,1.3748859167099,0.6397852897644043
1740246554106925000,0.954925048828125,-1.3263282775878906,1.4145054817199707,0.5509774088859558
1740246554116907000,0.964906982421875,-1.189266324043274,1.288038969039917,0.08294468373060226
1740246554126889000,0.974888916015625,-1.4247983694076538,0.9934448599815369,-0.8753325939178467
1740246554136871000,0.984870849609375,-1.718291997909546,0.7311796545982361,-1.7458088397979736
1740246554146852900,0.994852783203125,-1.9858760833740234,0.5213292241096497,-2.367542266845703
1740246554156835000,1.0048349609375,-2.283015012741089,0.7123020887374878,-2.705430269241333
1740246554166817000,1.014817138671875,-2.6431357860565186,1.165448784828186,-2.755751371383667
1740246554176799000,1.024799072265625,-3.1079912185668945,1.6690077781677246,-2.537083864212036
1740246554186781000,1.034781005859375,-3.5537185668945312,1.983751654624939,-2.129014015197754
1740246554196763100,1.04476318359375,-3.8176848888397217,2.1770737171173096,-1.6185930967330933
1740246554206744800,1.054744873046875,-3.906067132949829,2.4304468631744385,-1.154252052307129
1740246554216727000,1.06472705078125,-3.885265350341797,2.639706611633301,-0.7711872458457947
1740246554226709000,1.074708984375,-3.8333089351654053,2.644585371017456,-0.47558730840682983
1740246554236691000,1.08469091796875,-3.94046688079834,2.5201616287231445,-0.2753679156303406
1740246554246673000,1.0946728515625,-4.0790114402771,2.5349509716033936,-0.19413511455059052
1740246554256655000,1.104655029296875,-4.061666965484619,2.7359578609466553,-0.19700947403907776
1740246554266636800,1.11463671875,-3.8400721549987793,2.9854278564453125,-0.2588762938976288
1740246554276619000,1.124618896484375,-3.4741036891937256,3.376317024230957,-0.2964305877685547
1740246554286601000,1.13460107421875,-3.070142984390259,3.9652271270751953,-0.2146369367837906
1740246554296583000,1.1445830078125,-2.7692153453826904,4.300467014312744,0.09631162136793137
1740246554306565000,1.154565185546875,-2.6302900314331055,4.373554706573486,0.5194186568260193
1740246554316546800,1.164546875,-2.4854161739349365,4.20930814743042,0.9194057583808899
1740246554326529000,1.174529052734375,-2.299777030944824,3.8755552768707275,1.1819684505462646
1740246554336511000,1.184510986328125,-2.1393582820892334,3.5814833641052246,1.2452725172042847
1740246554346493000,1.194492919921875,-2.042261838912964,3.3064372539520264,1.1633042097091675
1740246554356475000,1.204474853515625,-1.973739743232727,2.9926505088806152,0.9396681785583496
1740246554366457000,1.21445703125,-1.919426679611206,2.793377637863159,0.5619855523109436
1740246554376438800,1.224438720703125,-1.8131088018417358,2.8262779712677,0.22117312252521515
1740246554386421000,1.2344208984375,-1.6769938468933105,2.824859380722046,0.008440623059868813
1740246554396403200,1.2444033203125,-1.4649490118026733,2.8249640464782715,-0.09086066484451294
1740246554406385000,1.254385009765625,-1.1116878986358643,2.5638744831085205,-0.12268224358558655
1740246554416367000,1.2643671875,-0.6555488109588623,1.9978179931640625,-0.26247769594192505
1740246554426348800,1.274348876953125,-0.3111429810523987,1.3499126434326172,-0.5959211587905884
1740246554436331000,1.2843310546875,-0.26621463894844055,0.7597457766532898,-1.1579506397247314
1740246554446313000,1.29431298828125,-0.4974723756313324,0.31305086612701416,-1.9251320362091064
1740246554456295000,1.304294921875,-0.8214528560638428,-0.01059485413134098,-2.721001625061035
1740246554466276900,1.31427685546875,-1.0860005617141724,-0.24483531713485718,-3.4020707607269287
1740246554476259000,1.324259033203125,-1.1832363605499268,-0.3566901981830597,-3.8973195552825928
1740246554486240800,1.33424072265625,-1.1271741390228271,-0.4301271438598633,-4.244961738586426
1740246554496223000,1.344222900390625,-0.9964441061019897,-0.5972239971160889,-4.4970808029174805
1740246554506205200,1.354205078125,-0.7862272262573242,-0.9745914936065674,-4.6400275230407715
1740246554516187000,1.364186767578125,-0.5552089214324951,-1.520796775817871,-4.645034313201904
1740246554526169000,1.374169189453125,-0.41380834579467773,-1.9877946376800537,-4.528733253479004
1740246554536151000,1.384151123046875,-0.4213469624519348,-2.230952501296997,-4.311696529388428
1740246554546133000,1.394133056640625,-0.5415969491004944,-2.2330193519592285,-3.9750001430511475
1740246554556114200,1.4041142578125,-0.7052236795425415,-2.0264365673065186,-3.5174648761749268
1740246554566096400,1.414096435546875,-0.88137286901474,-1.6502858400344849,-2.954281806945801
1740246554576078300,1.424078369140625,-1.0646854639053345,-1.2003817558288574,-2.337226629257202
1740246554586060300,1.434060302734375,-1.2364771366119385,-0.7069121599197388,-1.727388620376587
1740246554596042500,1.44404248046875,-1.3163312673568726,-0.21254794299602509,-1.130569338798523
1740246554606024200,1.454024169921875,-1.243283987045288,0.18722714483737946,-0.5237612128257751
1740246554616006400,1.46400634765625,-1.0028995275497437,0.4165650010108948,0.07102783769369125
1740246554625988400,1.47398828125,-0.657581627368927,0.4206627905368805,0.5947490930557251
1740246554635970300,1.48397021484375,-0.3162940442562103,0.2640175223350525,0.9993677139282227
1740246554645952300,1.4939521484375,-0.058033209294080734,0.04752197861671448,1.2529184818267822
1740246554655934200,1.503934326171875,0.10130798071622849,-0.1640017181634903,1.3542085886001587
1740246554665916200,1.513916259765625,0.17656651139259338,-0.3237530291080475,1.278951644897461
1740246554675898400,1.5238984375,0.20093177258968353,-0.3931206464767456,1.0460792779922485
1740246554685880000,1.533880126953125,0.20425300300121307,-0.39151158928871155,0.740074872970581
1740246554695863300,1.54386328125,0.22969870269298553,-0.33824649453163147,0.45081350207328796
1740246554705845200,1.55384521484375,0.30542996525764465,-0.2873305678367615,0.23338904976844788
1740246554715827200,1.5638271484375,0.4120815694332123,-0.30546218156814575,0.0919131487607956
1740246554725809400,1.573809326171875,0.5166947841644287,-0.40646177530288696,-0.006872287020087242
1740246554735791000,1.583791015625,0.6266788244247437,-0.5777595043182373,-0.0766146183013916
1740246554745773300,1.593773193359375,0.7354068756103516,-0.7961352467536926,-0.11260164529085159
1740246554755755300,1.60375537109375,0.8140665292739868,-0.9887121319770813,-0.125749409198761
1740246554765737200,1.6137373046875,0.8465741872787476,-1.0892690420150757,-0.1194174736738205
1740246554775719400,1.623719482421875,0.8274851441383362,-1.0769727230072021,-0.09891379624605179
1740246554785701400,1.633701416015625,0.7723683714866638,-0.9633191823959351,-0.055942095816135406
1740246554795683300,1.643683349609375,0.7055704593658447,-0.7584038376808167,0.015682289376854897
1740246554805665300,1.653665283203125,0.6454543471336365,-0.560303270816803,0.10174393653869629
1740246554815647500,1.6636474609375,0.5821536779403687,-0.4322291910648346,0.1733129322528839
1740246554825629200,1.673629150390625,0.5326010584831238,-0.2697036564350128,0.22000107169151306
1740246554835611400,1.683611328125,0.5001872181892395,-0.05040911212563515,0.2737037241458893
1740246554845593000,1.693593017578125,0.4657549262046814,0.23731695115566254,0.3732406795024872
1740246554855575300,1.7035751953125,0.3938452899456024,0.5444340109825134,0.5270907282829285
1740246554865557200,1.71355712890625,0.2696266770362854,0.8833175301551819,0.7048370242118835
1740246554875539200,1.723539306640625,0.13536395132541656,1.2677030563354492,0.8591972589492798
1740246554885521400,1.733521484375,0.03238297253847122,1.6826282739639282,0.9570167660713196
1740246554895503400,1.74350341796875,-0.04999445751309395,2.1192057132720947,0.9993770122528076
1740246554905485300,1.7534853515625,-0.11469648778438568,2.562314510345459,1.015614628791809
1740246554915467300,1.76346728515625,-0.13380387425422668,2.9214210510253906,1.0126358270645142
1740246554925449500,1.773449462890625,-0.0975598469376564,3.160547971725464,1.0256065130233765
1740246554935431200,1.78343115234375,0.01450117863714695,3.2930047512054443,1.0775996446609497
1740246554945413400,1.793413330078125,0.1967596709728241,3.334413766860962,1.123066782951355
1740246554955395300,1.803395263671875,0.42127853631973267,3.3472800254821777,1.1232107877731323
1740246554965377300,1.813377197265625,0.6554095149040222,3.2602124214172363,1.0819076299667358
1740246554975359200,1.823359130859375,0.8949427604675293,2.9807095527648926,1.0144755840301514
1740246554985341200,1.833341064453125,1.1534183025360107,2.496624708175659,0.9594293236732483
1740246554995323100,1.8433232421875,1.4307880401611328,1.8578931093215942,0.9566865563392639
1740246555005305300,1.853305419921875,1.7133891582489014,1.1885535717010498,1.033576250076294
1740246555015287300,1.863287353515625,1.99839186668396,0.6294921636581421,1.1419535875320435
1740246555025269200,1.873269287109375,2.272599697113037,0.34313151240348816,1.2436517477035522
1740246555035251500,1.88325146484375,2.5130093097686768,0.3050009310245514,1.275207757949829
1740246555045233200,1.893233154296875,2.738008737564087,0.3676200807094574,1.217593789100647
1740246555055215400,1.90321533203125,2.9545891284942627,0.35374101996421814,1.097890019416809
1740246555065197300,1.913197265625,3.1382477283477783,0.2513009309768677,1.0088474750518799
1740246555075179300,1.92317919921875,3.263714551925659,0.14712606370449066,0.9735352993011475
1740246555085161200,1.9331611328125,3.3231706619262695,0.1099826917052269,0.9713888168334961
1740246555095143400,1.943143310546875,3.3036446571350098,0.10112714767456055,0.9895153641700745
1740246555105125000,1.953125,3.2201333045959473,0.045219674706459045,1.0079878568649292
1740246555115107300,1.963107421875,3.081965446472168,-0.09036984294652939,1.0155280828475952
1740246555125089300,1.97308935546875,2.920468330383301,-0.23308971524238586,0.9866300821304321
1740246555135071200,1.9830712890625,2.765770435333252,-0.30343097448349,0.8804135918617249
1740246555145053400,1.993053466796875,2.6374285221099854,-0.25537610054016113,0.6653271317481995
1740246555155035100,2.00303515625,2.5424728393554688,-0.1256689727306366,0.37272909283638
1740246555165017300,2.013017333984375,2.477874517440796,0.008074438199400902,0.0661955326795578
1740246555175000000,2.023,2.4358632564544678,0.08059870451688766,-0.15974386036396027
1740246555184982300,2.032982177734375,2.398164749145508,0.02617328055202961,-0.2782161831855774
1740246555194964500,2.042964599609375,2.3478522300720215,-0.16169701516628265,-0.324084609746933
1740246555204946200,2.0529462890625,2.316293716430664,-0.41527149081230164,-0.3359875977039337
1740246555214928400,2.062928466796875,2.322577714920044,-0.6313143372535706,-0.3360840082168579
1740246555224910300,2.072910400390625,2.361541271209717,-0.7335312366485596,-0.3334418833255768
1740246555234892300,2.082892333984375,2.419630527496338,-0.7160640954971313,-0.33253082633018494
1740246555244874200,2.092874267578125,2.47066593170166,-0.6252186298370361,-0.3077538311481476
1740246555254856400,2.1028564453125,2.504991292953491,-0.5162582993507385,-0.2410975694656372
1740246555264838100,2.112838134765625,2.5262773036956787,-0.4080391526222229,-0.13354820013046265
1740246555274820400,2.1228203125,2.540722608566284,-0.33274784684181213,0.017590710893273354
1740246555284802300,2.13280224609375,2.533247470855713,-0.3182450830936432,0.17669513821601868
1740246555294784300,2.1427841796875,2.472747564315796,-0.3974173963069916,0.32982370257377625
1740246555304766500,2.152766357421875,2.3830575942993164,-0.5475773215293884,0.47018295526504517
1740246555314748200,2.162748046875,2.286940574645996,-0.7056921720504761,0.590194821357727
1740246555324730400,2.17273046875,2.187920331954956,-0.8145278096199036,0.6704049706459045
1740246555334712300,2.18271240234375,2.0904746055603027,-0.8416593074798584,0.7142494320869446
1740246555344694300,2.1926943359375,1.98247230052948,-0.7637764811515808,0.7155399918556213
1740246555354676200,2.20267626953125,1.8512802124023438,-0.6099573373794556,0.6826073527336121
1740246555364658400,2.212658447265625,1.7144008874893188,-0.4178832471370697,0.6433779001235962
1740246555374640000,2.22264013671875,1.5753860473632812,-0.21968655288219452,0.6147097945213318
1740246555384622300,2.232622314453125,1.4294298887252808,-0.03387594223022461,0.6019273996353149
1740246555394604300,2.242604248046875,1.2722580432891846,0.12835291028022766,0.6058915257453918
1740246555404586200,2.252586181640625,1.1066291332244873,0.2672833800315857,0.6188283562660217
1740246555414568200,2.262568115234375,0.9234521389007568,0.3714904487133026,0.6227461099624634
1740246555424550400,2.27255029296875,0.7144297361373901,0.41087594628334045,0.6154807806015015
1740246555434532400,2.282532470703125,0.4776163697242737,0.3646722435951233,0.6045375466346741
1740246555444514300,2.292514404296875,0.20305190980434418,0.2750835120677948,0.5964956283569336
1740246555454496300,2.302496337890625,-0.07699624449014664,0.19518227875232697,0.6081274747848511
1740246555464478200,2.312478271484375,-0.37703463435173035,0.16038088500499725,0.6189130544662476
1740246555474460400,2.32246044921875,-0.7128171920776367,0.16888542473316193,0.6176307201385498
1740246555484442000,2.332442138671875,-1.061341643333435,0.17426981031894684,0.6001454591751099
1740246555494424300,2.34242431640625,-1.4330629110336304,0.18181054294109344,0.5609621405601501
1740246555504406300,2.35240625,-1.824753761291504,0.18102997541427612,0.47589942812919617
1740246555514388200,2.36238818359375,-2.215022325515747,0.1738564819097519,0.34819844365119934
1740246555524370200,2.3723701171875,-2.582017660140991,0.14277313649654388,0.18027576804161072
1740246555534352400,2.382352294921875,-2.9261209964752197,0.08081149309873581,-0.01387214008718729
1740246555544334300,2.392334228515625,-3.2525665760040283,0.0009321063989773393,-0.25284796953201294
1740246555554316800,2.40231689453125,-3.5399138927459717,-0.12450703978538513,-0.5488215684890747
1740246555564298800,2.412298828125,-3.7586240768432617,-0.24947427213191986,-0.912977397441864
1740246555574280700,2.42228076171875,-3.916896104812622,-0.2924765944480896,-1.305324912071228
1740246555584263000,2.432262939453125,-4.067808151245117,-0.26768338680267334,-1.686444640159607
1740246555594246000,2.442245849609375,-4.286096096038818,-0.20333820581436157,-2.03560209274292
1740246555604227800,2.452227783203125,-4.621217727661133,-0.1928565353155136,-2.341660261154175
1740246555614209800,2.462209716796875,-5.0356011390686035,-0.1877344846725464,-2.5883898735046387
1740246555624191700,2.472191650390625,-5.461952209472656,-0.06888239830732346,-2.720766305923462
1740246555634174000,2.482174072265625,-5.808159351348877,0.17857134342193604,-2.700321912765503
1740246555644155600,2.49215576171875,-6.034524917602539,0.5029632449150085,-2.5720722675323486
1740246555654137900,2.502137939453125,-5.975290775299072,0.7213369011878967,-2.3067312240600586
1740246555664119800,2.512119873046875,-5.648060321807861,0.8317134380340576,-1.9359718561172485
1740246555674101800,2.522101806640625,-5.160284519195557,0.8646075129508972,-1.5109974145889282
1740246555684083700,2.532083740234375,-4.655970573425293,0.851402759552002,-1.1064268350601196
1740246555694066000,2.54206591796875,-4.224486827850342,0.7869760990142822,-0.784156858921051
1740246555704047600,2.552047607421875,-3.874457597732544,0.6498664021492004,-0.5974061489105225
1740246555714029800,2.56202978515625,-3.5791211128234863,0.4639929533004761,-0.5452460050582886
1740246555724011800,2.57201171875,-3.318563461303711,0.23639042675495148,-0.6017734408378601
1740246555733993700,2.58199365234375,-3.0609984397888184,-0.044193293899297714,-0.7191386818885803
1740246555743976000,2.591975830078125,-2.781040906906128,-0.40399566292762756,-0.8628963828086853
1740246555753957600,2.60195751953125,-2.494380235671997,-0.795812726020813,-1.001354455947876
1740246555763939800,2.61193994140625,-2.2260308265686035,-1.1133251190185547,-1.117261290550232
1740246555773921800,2.621921875,-2.009859800338745,-1.3252187967300415,-1.1779656410217285
1740246555783903700,2.63190380859375,-1.8564538955688477,-1.4364126920700073,-1.1721493005752563
1740246555793885700,2.6418857421875,-1.7541738748550415,-1.425676941871643,-1.1140260696411133
1740246555803868000,2.651867919921875,-1.675671100616455,-1.308834195137024,-0.9939066171646118
1740246555813849600,2.661849609375,-1.5923564434051514,-1.140655279159546,-0.8142021298408508
1740246555823831800,2.671831787109375,-1.5142453908920288,-0.9547147750854492,-0.6006352305412292
1740246555833814000,2.68181396484375,-1.434669852256775,-0.7473146915435791,-0.36645495891571045
1740246555843795700,2.691795654296875,-1.3341310024261475,-0.5257543325424194,-0.11573884636163712
1740246555853778000,2.70177783203125,-1.2259159088134766,-0.3124641478061676,0.1446456015110016
1740246555863760000,2.711759765625,-1.1617473363876343,-0.101251520216465,0.36275288462638855
1740246555873741800,2.721741943359375,-1.1814619302749634,0.14643816649913788,0.5073092579841614
1740246555883723800,2.731723876953125,-1.2801799774169922,0.4305764138698578,0.5667744874954224
1740246555893705700,2.741705810546875,-1.4551442861557007,0.7043341994285583,0.5746843218803406
1740246555903687700,2.751687744140625,-1.6578675508499146,0.9297963380813599,0.584209144115448
1740246555913670000,2.761669921875,-1.8508604764938354,1.034828543663025,0.6212241053581238
1740246555923651600,2.771651611328125,-1.9979625940322876,1.028781771659851,0.6747624278068542
1740246555933633800,2.7816337890625,-2.0719614028930664,0.9650230407714844,0.7412347197532654
1740246555943616000,2.791615966796875,-2.0715606212615967,0.9269752502441406,0.818750262260437
1740246555953598700,2.8015986328125,-1.995306372642517,1.0087889432907104,0.9099012017250061
1740246555963581000,2.811580810546875,-1.8199992179870605,1.1939613819122314,1.006355881690979
1740246555973562600,2.821562744140625,-1.5238274335861206,1.4008715152740479,1.0895780324935913
1740246555983544800,2.831544921875,-1.1111525297164917,1.6338211297988892,1.1217255592346191
1740246555993526800,2.84152685546875,-0.6397072672843933,1.8702949285507202,1.0474857091903687
1740246556003508700,2.8515087890625,-0.1765470653772354,2.0954790115356445,0.8275101780891418
1740246556013491000,2.861490966796875,0.19175025820732117,2.1752872467041016,0.5152060985565186
1740246556023473000,2.871472900390625,0.4428730309009552,2.046574592590332,0.21138867735862732
1740246556033454800,2.881454833984375,0.63008713722229,1.7461795806884766,-0.017045563086867332
1740246556043436800,2.891436767578125,0.8603405952453613,1.3229894638061523,-0.10934513062238693
1740246556053418800,2.901418701171875,1.232471227645874,0.8302034735679626,-0.058157846331596375
1740246556063400700,2.911400634765625,1.7005481719970703,0.3407522439956665,0.053755905479192734
1740246556073383000,2.9213828125,2.2097907066345215,-0.021627530455589294,0.13483664393424988
1740246556083364600,2.931364501953125,2.747176170349121,-0.1709222048521042,0.12881577014923096
1740246556093346800,2.941346923828125,3.292922258377075,-0.19311858713626862,0.05543316528201103
1740246556103328800,2.951328857421875,3.759645938873291,-0.20003855228424072,-0.008540225215256214
1740246556113310700,2.961310791015625,4.078063011169434,-0.1951676309108734,-0.019466109573841095
1740246556123292700,2.971292724609375,4.258877754211426,-0.14934395253658295,0.029319806024432182
1740246556133275000,2.98127490234375,4.320528030395508,-0.08795462548732758,0.15181748569011688
1740246556143256800,2.9912568359375,4.2996392250061035,-0.04218899831175804,0.35232847929000854
1740246556153238800,3.00123876953125,4.244673252105713,0.01920511946082115,0.6234630346298218
1740246556163221000,3.011220947265625,4.1774702072143555,0.11935649067163467,0.9354627728462219
1740246556173202700,3.02120263671875,4.136559009552002,0.2373531609773636,1.248077392578125
1740246556183185000,3.031184814453125,4.160717487335205,0.327483594417572,1.513468861579895
1740246556193166800,3.041166748046875,4.225317478179932,0.37102919816970825,1.6978861093521118
1740246556203148800,3.051148681640625,4.265513896942139,0.40454429388046265,1.803891897201538
1740246556213130800,3.061130859375,4.25496244430542,0.47883927822113037,1.8339333534240723
1740246556223112700,3.07111279296875,4.209946632385254,0.5706400275230408,1.7744330167770386
1740246556233094700,3.0810947265625,4.161306381225586,0.6428985595703125,1.6456027030944824
1740246556243076900,3.091076904296875,4.113864421844482,0.7178633213043213,1.4548548460006714
1740246556253058800,3.101058837890625,4.06240177154541,0.7783604860305786,1.233740210533142
1740246556263040800,3.111040771484375,4.00550651550293,0.8177816867828369,1.0129601955413818
1740246556273023000,3.12102294921875,3.9620163440704346,0.8288305997848511,0.8172240257263184
1740246556283004700,3.131004638671875,3.946014642715454,0.7982164621353149,0.6598958969116211
1740246556292988000,3.14098779296875,3.951681137084961,0.7248096466064453,0.5419024229049683
1740246556302969600,3.150969482421875,3.9719552993774414,0.6518648862838745,0.4576144218444824
1740246556312951800,3.160951904296875,3.9885430335998535,0.5612409710884094,0.4083123803138733
1740246556322934000,3.17093408203125,3.9805333614349365,0.44733384251594543,0.4075413942337036
1740246556332915700,3.180915771484375,3.9531030654907227,0.3251991271972656,0.4408418536186218
1740246556342898000,3.19089794921875,3.9244797229766846,0.2291964292526245,0.4940270185470581
1740246556352879900,3.2008798828125,3.8972346782684326,0.1733664572238922,0.5421934723854065
1740246556362861800,3.21086181640625,3.857034683227539,0.14732927083969116,0.5854054093360901
1740246556372843800,3.22084375,3.7939674854278564,0.131671741604805,0.6236028671264648
1740246556382825700,3.23082568359375,3.6700241565704346,0.17283622920513153,0.6890029311180115
1740246556392807700,3.2408076171875,3.5381932258605957,0.2548149824142456,0.7826479077339172
1740246556402790000,3.250789794921875,3.452348470687866,0.36063915491104126,0.8754708170890808
1740246556412771600,3.260771484375,3.427924633026123,0.43582311272621155,0.9558913111686707
1740246556422753800,3.27075390625,3.4309167861938477,0.4719094932079315,1.0377305746078491
1740246556432735700,3.28073583984375,3.4183475971221924,0.4833882451057434,1.1339937448501587
1740246556442717700,3.2907177734375,3.361403226852417,0.5117498636245728,1.234703779220581
1740246556452700000,3.300699951171875,3.2318687438964844,0.5546672344207764,1.3155770301818848
1740246556462681900,3.310681884765625,3.0399842262268066,0.562475860118866,1.3431320190429688
1740246556472663800,3.320663818359375,2.817592144012451,0.5377572178840637,1.3005139827728271
1740246556482645800,3.330645751953125,2.58567476272583,0.48460131883621216,1.1985820531845093
1740246556492628000,3.3406279296875,2.3880040645599365,0.3879626393318176,1.0626577138900757
1740246556502609700,3.350609619140625,2.2615911960601807,0.24708648025989532,0.9231131672859192
1740246556512592000,3.360591796875,2.1534435749053955,0.1255858838558197,0.7788954973220825
1740246556522573800,3.37057373046875,1.9766056537628174,0.06437286734580994,0.6038278341293335
1740246556532555800,3.3805556640625,1.6884292364120483,0.027306988835334778,0.4099281430244446
1740246556542537700,3.390537841796875,1.3163520097732544,-0.03899373859167099,0.21466010808944702
1740246556552519700,3.400519775390625,0.8924306035041809,-0.1807814985513687,0.007289072033017874
1740246556562501400,3.41050146484375,0.43334850668907166,-0.4097779393196106,-0.22359926998615265
1740246556572483600,3.420483642578125,-0.05097316950559616,-0.693455159664154,-0.4752197861671448
1740246556582465500,3.430465576171875,-0.5435945987701416,-0.9776469469070435,-0.7547640800476074
1740246556592447500,3.440447509765625,-1.04067862033844,-1.233525037765503,-1.0426480770111084
1740246556602430500,3.450430419921875,-1.5044660568237305,-1.4550979137420654,-1.304552435874939
1740246556612412400,3.460412353515625,-1.912913203239441,-1.6125783920288086,-1.505049228668213
1740246556622394600,3.47039453125,-2.249208450317383,-1.723273754119873,-1.6302406787872314
1740246556632376300,3.480376220703125,-2.5205652713775635,-1.7599142789840698,-1.6868270635604858
1740246556642358500,3.490358642578125,-2.7500059604644775,-1.6999667882919312,-1.685410499572754
1740246556652340700,3.5003408203125,-2.9336884021759033,-1.5866186618804932,-1.6472423076629639
1740246556662322400,3.510322509765625,-3.117300271987915,-1.4712289571762085,-1.5837019681930542
1740246556672304600,3.5203046875,-3.3665008544921875,-1.3184436559677124,-1.5449458360671997
1740246556682286600,3.53028662109375,-3.731480836868286,-1.0643336772918701,-1.564431071281433
1740246556692268500,3.5402685546875,-4.164046287536621,-0.6976144909858704,-1.6510403156280518
1740246556702250500,3.55025048828125,-4.593079090118408,-0.28534653782844543,-1.830875277519226
1740246556712232700,3.560232666015625,-4.973632335662842,0.06284234672784805,-2.0940535068511963
1740246556722214400,3.57021435546875,-5.2440996170043945,0.3368946611881256,-2.3947067260742188
1740246556732196600,3.580196533203125,-5.4024882316589355,0.5501110553741455,-2.6542348861694336
1740246556742178600,3.590178466796875,-5.530029773712158,0.7112885117530823,-2.8457870483398438
1740246556752160500,3.600160400390625,-5.647979259490967,0.8037601113319397,-2.9722297191619873
1740246556762142700,3.610142822265625,-5.756333351135254,0.7627013921737671,-3.035872220993042
1740246556772124400,3.62012451171875,-5.84916353225708,0.642347514629364,-3.045903205871582
1740246556782106600,3.630106689453125,-5.893490314483643,0.5148186087608337,-3.009420156478882
1740246556792088600,3.640088623046875,-5.869335651397705,0.402427077293396,-2.9681336879730225
1740246556802070500,3.650070556640625,-5.786546230316162,0.40569156408309937,-2.938105583190918
1740246556812052500,3.660052490234375,-5.671371936798096,0.5223332643508911,-2.875028133392334
1740246556822034700,3.67003466796875,-5.522571563720703,0.6522275805473328,-2.723578691482544
1740246556832016400,3.680016357421875,-5.345040798187256,0.7112948894500732,-2.4797706604003906
1740246556841998600,3.68999853515625,-5.121171474456787,0.7140885591506958,-2.1966590881347656
1740246556851980500,3.69998046875,-4.876327991485596,0.711899995803833,-1.9108209609985352
1740246556861962500,3.70996240234375,-4.613309860229492,0.7398144006729126,-1.6618026494979858
1740246556871944700,3.71994482421875,-4.322623252868652,0.7481269240379333,-1.4639310836791992
1740246556881926700,3.7299267578125,-4.00429105758667,0.7108445763587952,-1.2972004413604736
1740246556891909600,3.73990966796875,-3.711538076400757,0.6652544140815735,-1.1440300941467285
1740246556901891600,3.7498916015625,-3.4904911518096924,0.634497880935669,-0.9892961382865906
1740246556911873500,3.75987353515625,-3.325948715209961,0.5902574062347412,-0.8204839825630188
1740246556921855500,3.76985546875,-3.1986992359161377,0.5217577219009399,-0.6343878507614136
1740246556931837400,3.77983740234375,-3.081191062927246,0.48841390013694763,-0.42704638838768005
1740246556941819600,3.789819580078125,-2.9345669746398926,0.5072674751281738,-0.18173916637897491
1740246556951801600,3.799801513671875,-2.7576675415039062,0.613201379776001,0.09357894957065582
1740246556961783600,3.809783447265625,-2.5903000831604004,0.7700759172439575,0.37458717823028564
1740246556971765500,3.819765625,-2.4242594242095947,0.9308350086212158,0.6450735330581665
1740246556981747700,3.829747802734375,-2.2550406455993652,1.021672248840332,0.8920302987098694
1740246556991729400,3.8397294921875,-2.1093242168426514,1.0025395154953003,1.0640414953231812
1740246557001711600,3.849711669921875,-1.9957870244979858,0.9027868509292603,1.1386137008666992
1740246557011694300,3.8596943359375,-1.8805416822433472,0.7546066641807556,1.0999104976654053
1740246557021676500,3.869676513671875,-1.751003623008728,0.5455112457275391,0.956311047077179
1740246557031658800,3.87965869140625,-1.5561646223068237,-1.6155794858932495,0.557622492313385
1740246557041640400,3.889640380859375,-0.642800509929657,-4.374007701873779,0.16510799527168274
1740246557051622700,3.89962255859375,-0.09628205746412277,-3.1521341800689697,-0.08809683471918106
1740246557061604600,3.9096044921875,-0.33799508213996887,-0.8963878154754639,-0.1809639185667038
1740246557071586600,3.919586669921875,-0.6087722778320312,0.44115129113197327,-0.1643196940422058
1740246557081568500,3.929568603515625,-0.5082070231437683,0.9925806522369385,-0.05293751507997513
1740246557091550500,3.939550537109375,-0.25076404213905334,1.3872437477111816,0.09873216599225998
1740246557101532400,3.949532470703125,0.05411490052938461,1.7191554307937622,0.41021841764450073
1740246557111514600,3.9595146484375,0.42548125982284546,1.4287121295928955,0.7882911562919617
1740246557121496300,3.969496337890625,0.8251397013664246,0.6614391803741455,1.1733211278915405
1740246557131478500,3.979478515625,1.177692174911499,-0.31048089265823364,1.5276328325271606
1740246557141460700,3.989460693359375,1.4738479852676392,-1.0949679613113403,1.7720983028411865
1740246557151442400,3.9994423828125,1.7738865613937378,-1.4639633893966675,1.8114084005355835
1740246557161424600,4.009424560546875,2.2095589637756348,-1.072336196899414,1.4369921684265137
1740246557171406600,4.019406494140625,2.801891565322876,-0.6651465892791748,0.5380807518959045
1740246557181388500,4.029388427734375,3.320812940597534,-0.6970102190971375,-0.21541990339756012
1740246557191370500,4.03937060546875,3.589160203933716,-0.9048915505409241,-0.5572866797447205
1740246557201352700,4.049352783203125,3.655585527420044,-0.9399570822715759,-0.6245988607406616
1740246557211334400,4.05933447265625,3.647615671157837,-0.7835078239440918,-0.4880034923553467
1740246557221316600,4.069316650390625,3.626272439956665,-0.5549551248550415,-0.22659479081630707
1740246557231298600,4.079298583984375,3.616987943649292,-0.38133642077445984,0.10531683266162872
1740246557241281500,4.089281494140625,3.7743167877197266,-0.2856868803501129,0.48493099212646484
1740246557251263700,4.099263671875,4.0885210037231445,-0.35512667894363403,0.8632476925849915
1740246557261245400,4.109245361328125,4.45235538482666,-0.49666115641593933,1.1798748970031738
1740246557271227600,4.1192275390625,4.736903667449951,-0.5412417054176331,1.3992294073104858
1740246557281209300,4.129209228515625,4.886321067810059,-0.4478491544723511,1.497633457183838
1740246557291191600,4.139191650390625,4.906510353088379,-0.2860429286956787,1.48453950881958
1740246557301173500,4.149173583984375,4.861968040466309,-0.15460582077503204,1.3821196556091309
1740246557311155500,4.159155517578125,4.804752826690674,-0.08248795568943024,1.23457670211792
1740246557321137700,4.1691376953125,4.7585062980651855,-0.07370670884847641,1.0946044921875
1740246557331119600,4.17911962890625,4.737825393676758,-0.09846718609333038,0.9761078953742981
1740246557341101600,4.1891015625,4.7199554443359375,-0.12642158567905426,0.9171394109725952
1740246557351083500,4.19908349609375,4.697650909423828,-0.1206185594201088,0.9106529951095581
1740246557361065700,4.209065673828125,4.65482234954834,-0.09820965677499771,0.9601630568504333
1740246557371047400,4.21904736328125,4.587629318237305,-0.07293546199798584,1.0562571287155151
1740246557381028600,4.229028564453125,4.501806259155273,-0.05976266413927078,1.1887863874435425
1740246557391010600,4.239010498046875,4.410423278808594,-0.04523858428001404,1.3426151275634766
1740246557400992500,4.248992431640625,4.327791213989258,-0.03957883641123772,1.5092525482177734
1740246557410974500,4.258974365234375,4.24714469909668,-0.02400333620607853,1.6682944297790527
1740246557420956700,4.268956787109375,4.168886661529541,0.03080691397190094,1.7941819429397583
1740246557430939400,4.278939453125,4.080371856689453,0.10899572819471359,1.881077527999878
1740246557440921600,4.288921630859375,3.9865598678588867,0.21122382581233978,1.9316126108169556
1740246557450903600,4.298903564453125,3.8947298526763916,0.35822153091430664,1.9494723081588745
1740246557460885500,4.308885498046875,3.812532663345337,0.5385846495628357,1.9417346715927124
1740246557470867700,4.31886767578125,3.7421882152557373,0.7130688428878784,1.9227641820907593
1740246557480849400,4.328849365234375,3.6833548545837402,0.8484655618667603,1.9094204902648926
1740246557490831600,4.33883154296875,3.6087214946746826,0.9298360347747803,1.9140242338180542
1740246557500813600,4.3488134765625,3.490614175796509,1.004963755607605,1.9289352893829346
1740246557510795500,4.35879541015625,3.323899030685425,1.0506715774536133,1.9425795078277588
1740246557520777500,4.368777587890625,3.1472387313842773,1.0039947032928467,1.9518957138061523
1740246557530759700,4.378759765625,3.0006754398345947,0.8547780513763428,1.9271531105041504
1740246557540741400,4.388741455078125,2.865410327911377,0.6477697491645813,1.852404236793518
1740246557550723600,4.3987236328125,2.7041854858398438,0.4576786160469055,1.679514765739441
1740246557560705800,4.408705810546875,2.492565870285034,0.33824196457862854,1.4110116958618164
1740246557570688000,4.41868798828125,2.2314980030059814,0.31249451637268066,1.0583168268203735
1740246557580670000,4.428669921875,1.934576392173767,0.32550644874572754,0.6941415071487427
1740246557590652000,4.43865185546875,1.620192050933838,0.28241652250289917,0.39073285460472107
1740246557600633900,4.4486337890625,1.2992335557937622,0.15629932284355164,0.17554625868797302
1740246557610616000,4.458615966796875,0.9312991499900818,-0.06488605588674545,0.016880447044968605
1740246557620597800,4.46859765625,0.486858069896698,-0.4247235953807831,-0.11487012356519699
1740246557630580000,4.478580078125,-0.0009560748003423214,-0.8634724617004395,-0.2514740526676178
1740246557640562000,4.48856201171875,-0.4777766764163971,-1.2443678379058838,-0.4159697890281677
1740246557650543900,4.4985439453125,-0.90909743309021,-1.4729843139648438,-0.6210725903511047
1740246557660526000,4.508526123046875,-1.2968734502792358,-1.5882067680358887,-0.8528584241867065
1740246557670508800,4.5185087890625,-1.6509209871292114,-1.5783727169036865,-1.0874650478363037
1740246557680491000,4.528490966796875,-1.9849812984466553,-1.4943300485610962,-1.2776789665222168
1740246557690473000,4.538472900390625,-2.2997853755950928,-1.3673840761184692,-1.4094862937927246
1740246557700455000,4.548454833984375,-2.5827088356018066,-1.2459514141082764,-1.4666943550109863
1740246557710436900,4.558436767578125,-2.873183488845825,-1.1509785652160645,-1.464782476425171
1740246557720418800,4.568418701171875,-3.1804542541503906,-1.1221157312393188,-1.3959320783615112
1740246557730401000,4.578401123046875,-3.4864275455474854,-1.1661169528961182,-1.2890580892562866
1740246557740383000,4.588383056640625,-3.8051540851593018,-1.2238417863845825,-1.1818307638168335
1740246557750365000,4.598364990234375,-4.121510982513428,-1.1361385583877563,-1.1098155975341797
1740246557760347000,4.608346923828125,-4.435235023498535,-0.8675095438957214,-1.0869643688201904
1740246557770329000,4.6183291015625,-4.710310459136963,-0.41906997561454773,-1.1136870384216309
1740246557780310800,4.628310791015625,-4.899716854095459,0.09763627499341965,-1.1780279874801636
1740246557790293000,4.63829296875,-4.978039741516113,0.5506588816642761,-1.2974995374679565
1740246557800275000,4.64827490234375,-4.9399847984313965,0.8503358960151672,-1.4857929944992065
1740246557810257000,4.6582568359375,-4.825101852416992,0.984318196773529,-1.7480072975158691
1740246557820238800,4.66823876953125,-4.717508792877197,0.9407041072845459,-2.0610978603363037
1740246557830221000,4.678220947265625,-4.679844379425049,0.7820055484771729,-2.387831211090088
1740246557840202800,4.68820263671875,-4.724140644073486,0.5931368470191956,-2.690607786178589
1740246557850185000,4.69818505859375,-4.789787769317627,0.37369316816329956,-2.9590535163879395
1740246557860167000,4.7081669921875,-4.831132888793945,0.15788710117340088,-3.206888437271118
1740246557870148900,4.71814892578125,-4.809344291687012,-0.02371385134756565,-3.4352505207061768
1740246557880131000,4.728131103515625,-4.702778339385986,-0.11087831109762192,-3.6380391120910645
1740246557890112800,4.73811279296875,-4.526176452636719,-0.1948120892047882,-3.559203863143921
1740246557900095000,4.748094970703125,-4.141770362854004,-0.049859434366226196,-3.626812219619751
1740246557910077000,4.758076904296875,-3.7061595916748047,-0.027594342827796936,-3.55971360206604
1740246557920060000,4.768059814453125,-3.300905704498291,-0.08215772360563278,-3.3894171714782715
1740246557930042000,4.7780419921875,-2.943460464477539,-0.18634724617004395,-3.1662278175354004
1740246557940023800,4.78802392578125,-2.6709258556365967,-0.3203556537628174,-2.93758225440979
1740246557950006000,4.798006103515625,-2.513737916946411,-0.4359655976295471,-2.727971076965332
1740246557959988000,4.807988037109375,-2.4500479698181152,-0.4638606011867523,-2.513472557067871
1740246557969970000,4.817969970703125,-2.445848226547241,-0.39748266339302063,-2.2776026725769043
1740246557979951900,4.827951904296875,-2.4636948108673096,-0.3040618896484375,-2.037618398666382
1740246557989934000,4.83793408203125,-2.4846813678741455,-0.23734517395496368,-1.8241667747497559
1740246557999915800,4.847915771484375,-2.494978666305542,-0.1683618426322937,-1.6304079294204712
1740246558009898000,4.85789794921875,-2.4635379314422607,-0.06874816864728928,-1.4155582189559937
1740246558019880000,4.8678798828125,-2.404888868331909,0.06534891575574875,-1.1490973234176636
1740246558029862000,4.87786181640625,-2.323748826980591,0.21677784621715546,-0.8381513953208923
1740246558039844000,4.887843994140625,-2.238485336303711,0.35736027359962463,-0.5137722492218018
1740246558049825800,4.89782568359375,-2.1350159645080566,0.46251943707466125,-0.20458297431468964
1740246558059808000,4.90780810546875,-2.00100040435791,0.5046639442443848,0.06754442304372787
1740246558069790000,4.9177900390625,-1.8522777557373047,0.49086132645606995,0.2593524754047394
1740246558079772000,4.92777197265625,-1.7107560634613037,0.5045731663703918,0.3463784456253052
1740246558089753900,4.93775390625,-1.592607855796814,0.5492551326751709,0.3223183751106262
1740246558099736000,4.947736083984375,-1.4901888370513916,0.6053945422172546,0.21189521253108978
1740246558109717800,4.9577177734375,-1.3850677013397217,0.6594895124435425,0.05375164374709129
1740246558119700000,4.967699951171875,-1.2849323749542236,0.6534667611122131,-0.09187612682580948
1740246558129682000,4.977681884765625,-1.2134701013565063,0.5710887908935547,-0.2064778059720993
1740246558139664000,4.987663818359375,-1.1468538045883179,0.4558303654193878,-0.2569098174571991
1740246558149647000,4.997647216796875,-1.0303517580032349,0.35925084352493286,-0.22621449828147888
1740246558159628800,5.00762890625,-0.8280777335166931,0.2624739706516266,-0.11222401261329651
1740246558169611000,5.017611083984375,-0.5601980686187744,0.18426677584648132,0.07935847342014313
1740246558179593000,5.027593017578125,-0.23763012886047363,0.10844524949789047,0.33321258425712585
1740246558189575000,5.037574951171875,0.13330772519111633,0.03460138663649559,0.6184208989143372
1740246558199556900,5.047556884765625,0.5161024928092957,0.001461010193452239,0.8740276098251343
1740246558209538800,5.057538818359375,0.8787534236907959,0.03713458403944969,1.0361264944076538
1740246558219520800,5.067520751953125,1.198317289352417,0.13849742710590363,1.0897588729858398
1740246558229503000,5.0775029296875,1.4633960723876953,0.2583119869232178,1.1008117198944092
1740246558239485000,5.08748486328125,1.68218994140625,0.379266619682312,1.131081223487854
1740246558249467000,5.097466796875,1.9045681953430176,0.45599815249443054,1.218936562538147
1740246558259449000,5.107448974609375,2.15592098236084,0.44511035084724426,1.3736469745635986
1740246558269430800,5.1174306640625,2.406553268432617,0.36674392223358154,1.5731008052825928
1740246558279413000,5.1274130859375,2.6189281940460205,0.2970620393753052,1.778573751449585
1740246558289395000,5.13739501953125,2.7828736305236816,0.2791048586368561,1.9800828695297241
1740246558299377000,5.147376953125,2.92230224609375,0.3167553246021271,2.1658835411071777
1740246558309358800,5.15735888671875,3.0524380207061768,0.3981790542602539,2.316974639892578
1740246558319341000,5.167341064453125,3.182934522628784,0.561357855796814,2.418760061264038
1740246558329322800,5.17732275390625,3.324418306350708,0.8039867281913757,2.4720284938812256
1740246558339305000,5.187304931640625,3.504173517227173,1.0720373392105103,2.4836111068725586
1740246558349287000,5.197286865234375,3.707019090652466,1.2499884366989136,2.4378106594085693
1740246558359268900,5.207268798828125,3.8865392208099365,1.2713491916656494,2.346341371536255
1740246558369251800,5.217251953125,4.012196063995361,1.1777201890945435,2.1959097385406494
1740246558379233800,5.22723388671875,4.102574825286865,1.0160026550292969,1.972098469734192
1740246558389216000,5.237216064453125,4.142640113830566,0.8401604890823364,1.6707322597503662
1740246558399197700,5.24719775390625,4.160531044006348,0.6764562129974365,1.338631272315979
1740246558409180000,5.257179931640625,4.173915863037109,0.5387561321258545,1.0194801092147827
1740246558419162000,5.267162109375,4.188258647918701,0.42248228192329407,0.7711465358734131
1740246558429143800,5.277143798828125,4.211033344268799,0.33337023854255676,0.6058438420295715
1740246558439126000,5.2871259765625,4.234742164611816,0.2866504192352295,0.501653254032135
1740246558449108000,5.29710791015625,4.254575252532959,0.24762018024921417,0.4422602355480194
1740246558459090000,5.30708984375,4.256114482879639,0.20954789221286774,0.3999117314815521
1740246558469072000,5.31707177734375,4.230561256408691,0.1467212736606598,0.3789640963077545
1740246558479054000,5.32705419921875,4.201469898223877,0.05132763460278511,0.36914849281311035
1740246558489035800,5.337035888671875,4.174148082733154,-0.08916077017784119,0.35880768299102783
1740246558499018000,5.34701806640625,4.14893102645874,-0.2574182152748108,0.3179028630256653
1740246558509000000,5.357,4.118395805358887,-0.41088128089904785,0.25363653898239136
1740246558518982000,5.36698193359375,4.086146831512451,-0.506426990032196,0.167048379778862
1740246558528964000,5.376964111328125,4.035311698913574,-0.5294713377952576,0.08018191903829575
1740246558538945800,5.38694580078125,3.9615302085876465,-0.5225455164909363,0.015326757915318012
1740246558548928000,5.396927978515625,3.8687970638275146,-0.5219452381134033,-0.007894940674304962
1740246558558909400,5.406909423828125,3.750974416732788,-0.547895610332489,0.0064773401245474815
1740246558568892200,5.41689208984375,3.598080635070801,-0.6171481609344482,0.07599010318517685
1740246558578874400,5.426874267578125,3.4368362426757812,-0.6976792216300964,0.1747899204492569
1740246558588856600,5.436856689453125,3.2580642700195312,-0.7597218155860901,0.2963198125362396
1740246558598838300,5.44683837890625,3.034442901611328,-0.7909700274467468,0.4092021584510803
1740246558608820500,5.456820556640625,2.742185354232788,-0.764289915561676,0.4654824733734131
1740246558618802400,5.466802490234375,2.3800878524780273,-0.6394156813621521,0.426633358001709
1740246558628784400,5.476784423828125,1.9552329778671265,-0.4077235758304596,0.2695515751838684
1740246558638766300,5.486766357421875,1.5039716958999634,-0.15712463855743408,0.03383546322584152
1740246558648748300,5.496748291015625,1.0625059604644775,-0.0027720844373106956,-0.20566581189632416
1740246558658730200,5.506730224609375,0.637409508228302,-0.010937868617475033,-0.3945675492286682
1740246558668712400,5.51671240234375,0.21435649693012238,-0.14652365446090698,-0.5201464891433716
1740246558678694100,5.526694091796875,-0.20409373939037323,-0.32807400822639465,-0.6052315831184387
1740246558688676400,5.53667626953125,-0.620379626750946,-0.5003951787948608,-0.6769244074821472
1740246558698658300,5.546658203125,-1.0352237224578857,-0.6642134189605713,-0.7665174007415771
1740246558708640300,5.55664013671875,-1.4445658922195435,-0.7994346022605896,-0.8639392852783203
1740246558718622500,5.56662255859375,-1.8516991138458252,-0.866646945476532,-0.9664251804351807
1740246558728604400,5.5766044921875,-2.239553928375244,-0.8010764718055725,-1.0264166593551636
1740246558738586400,5.58658642578125,-2.5884358882904053,-0.5998575687408447,-1.0047342777252197
1740246558748568300,5.596568359375,-2.880373477935791,-0.31643441319465637,-0.8949877619743347
1740246558758550500,5.606550537109375,-3.111276149749756,-0.014417022466659546,-0.7133638858795166
1740246558768532200,5.6165322265625,-3.2714338302612305,0.21735842525959015,-0.4829008877277374
1740246558778515500,5.626515380859375,-3.3905270099639893,0.3622506260871887,-0.24126161634922028
1740246558788497400,5.636497314453125,-3.4643542766571045,0.4431811571121216,-0.02527020312845707
1740246558798479400,5.646479248046875,-3.515915870666504,0.5114249587059021,0.128777414560318
1740246558808461300,5.65646142578125,-3.564174175262451,0.5751543641090393,0.19619907438755035
1740246558818443300,5.666443359375,-3.62429141998291,0.6583581566810608,0.16245868802070618
1740246558828425500,5.676425537109375,-3.7011289596557617,0.7500098347663879,0.013575729914009571
1740246558838407200,5.6864072265625,-3.818220615386963,0.8603288531303406,-0.26962828636169434
1740246558848389400,5.696389404296875,-3.9448935985565186,0.9403624534606934,-0.7100749015808105
1740246558858371300,5.706371337890625,-4.043595314025879,0.9552324414253235,-1.234338402748108
1740246558868353300,5.716353271484375,-4.049304485321045,0.8339625000953674,-1.740994930267334
1740246558878335200,5.726335205078125,-4.006885528564453,0.5212426781654358,-2.178175449371338
1740246558888317400,5.7363173828125,-3.981781005859375,0.14431136846542358,-2.5490293502807617
1740246558898299400,5.74629931640625,-3.999445915222168,-0.15762370824813843,-2.8614115715026855
1740246558908281300,5.75628125,-4.054677963256836,-0.31714892387390137,-3.062112808227539
1740246558918263600,5.766263671875,-4.1390485763549805,-0.3423733115196228,-3.1306164264678955
1740246558928245200,5.776245361328125,-4.224541664123535,-0.17272543907165527,-3.016589641571045
1740246558938227500,5.7862275390625,-4.058135032653809,1.072635531425476,-2.3926639556884766
1740246558948209400,5.79620947265625,-3.6951262950897217,-0.11854609102010727,-2.2617945671081543
1740246558958191400,5.80619140625,-3.5048182010650635,-0.14053981006145477,-2.2291011810302734
1740246558968174300,5.81617431640625,-3.142838478088379,-0.08324562013149261,-2.0764708518981934
1740246558978156300,5.82615625,-2.683333158493042,-0.13866014778614044,-1.8918251991271973
1740246558988138500,5.836138427734375,-2.1832776069641113,-0.4123084545135498,-1.714456558227539
1740246558998120200,5.8461201171875,-1.7108277082443237,-0.6638184785842896,-1.5527124404907227
1740246559008102400,5.856102294921875,-1.368064522743225,-0.7055485844612122,-1.401790738105774
1740246559018084400,5.86608447265625,-1.2162967920303345,-0.6943292617797852,-1.2871499061584473
1740246559028066300,5.87606640625,-1.2586709260940552,-0.7335925102233887,-1.2345468997955322
1740246559038048300,5.88604833984375,-1.4320755004882812,-0.772730827331543,-1.2981266975402832
1740246559048030500,5.896030517578125,-1.6471209526062012,-0.724153995513916,-1.4819653034210205
1740246559058012200,5.90601220703125,-1.7695547342300415,-0.6463894248008728,-1.6903387308120728
1740246559067994400,5.915994384765625,-1.7783122062683105,-0.5839254856109619,-1.842666745185852
1740246559077976300,5.925976318359375,-1.7165676355361938,-0.5336815118789673,-1.8834879398345947
1740246559087958300,5.935958251953125,-1.652951955795288,-0.5126795172691345,-1.7788068056106567
1740246559097940500,5.9459404296875,-1.6027358770370483,-0.5465371012687683,-1.5785399675369263
1740246559107922400,5.95592236328125,-1.5761830806732178,-0.609396755695343,-1.3787171840667725
1740246559117904400,5.965904296875,-1.5685113668441772,-0.6108663082122803,-1.2369179725646973
1740246559127886300,5.97588623046875,-1.5827301740646362,-0.4658113718032837,-1.154463291168213
1740246559137868300,5.985868408203125,-1.6230180263519287,-0.20088356733322144,-1.1020474433898926
1740246559147850200,5.995850341796875,-1.6718502044677734,0.09579150378704071,-1.0317351818084717
1740246559157832400,6.00583251953125,-1.6713154315948486,0.3382302522659302,-0.9038310647010803
1740246559167814100,6.015814208984375,-1.6574676036834717,0.4496198892593384,-0.7335203289985657
1740246559177797400,6.02579736328125,-1.6146068572998047,0.44752106070518494,-0.5298635959625244
1740246559187779300,6.035779296875,-1.5243680477142334,0.40526866912841797,-0.3041532337665558
1740246559197761300,6.04576123046875,-1.3741719722747803,0.3338882327079773,-0.06565570831298828
1740246559207743500,6.055743408203125,-1.167540431022644,0.26168113946914673,0.18552619218826294
1740246559217725200,6.06572509765625,-0.9257614016532898,0.25664377212524414,0.46430882811546326
1740246559227707400,6.075707275390625,-0.6403690576553345,0.3431917130947113,0.7631629109382629
1740246559237689300,6.085689453125,-0.29469820857048035,0.5019797682762146,1.063970923423767
1740246559247671300,6.09567138671875,0.11607068032026291,0.7161341309547424,1.348812460899353
1740246559257653200,6.1056533203125,0.5838701128959656,0.9307202100753784,1.6075409650802612
1740246559267635500,6.115635498046875,1.0422289371490479,1.0798335075378418,1.8412834405899048
1740246559277617400,6.125617431640625,1.412007451057434,1.187619686126709,2.0732970237731934
1740246559287599400,6.135599365234375,1.664394736289978,1.2639732360839844,2.3161134719848633
1740246559297581300,6.145581298828125,1.8026758432388306,1.3189438581466675,2.5856497287750244
1740246559307563300,6.155563232421875,1.8425061702728271,1.3298263549804688,2.887577772140503
1740246559317545500,6.16554541015625,1.8234730958938599,1.319450855255127,3.2043368816375732
1740246559327527200,6.175527099609375,1.7843985557556152,1.3626047372817993,3.51700758934021
1740246559337509400,6.18550927734375,1.7700092792510986,1.511687159538269,3.778073787689209
1740246559347491300,6.1954912109375,1.8419297933578491,1.7374963760375977,3.9473447799682617
1740246559357473300,6.205473388671875,1.9973162412643433,1.9495137929916382,4.000950813293457
1740246559367456500,6.21545654296875,2.2092039585113525,2.1231744289398193,3.966726303100586
1740246559377438200,6.225438232421875,2.4293432235717773,2.245779514312744,3.8461878299713135
1740246559387420400,6.23542041015625,2.631824254989624,2.3228516578674316,3.6550850868225098
1740246559397402400,6.24540234375,2.7758679389953613,2.3946564197540283,3.393123149871826
1740246559407384300,6.25538427734375,2.870096445083618,2.4450602531433105,3.079935073852539
1740246559417366300,6.2653662109375,2.9137070178985596,2.437436580657959,2.7211318016052246
1740246559427348500,6.275348388671875,2.9202640056610107,2.368812322616577,2.3172242641448975
1740246559437330200,6.285330078125,2.928156614303589,2.255723714828491,1.874796986579895
1740246559447312400,6.2953125,2.9697043895721436,2.1217570304870605,1.4180299043655396
1740246559457294300,6.30529443359375,3.056196928024292,1.9367138147354126,0.9730178713798523
1740246559467276300,6.3152763671875,3.184438467025757,1.7303942441940308,0.5661827325820923
1740246559477258500,6.325258544921875,3.311708688735962,1.5913703441619873,0.21823246777057648
1740246559487240200,6.335240234375,3.4150893688201904,1.5263742208480835,-0.04663967341184616
1740246559497222400,6.345222412109375,3.490142583847046,1.493812084197998,-0.2396935522556305
1740246559507204400,6.355204345703125,3.5408782958984375,1.4414806365966797,-0.38684359192848206
1740246559517186300,6.365186279296875,3.5600175857543945,1.3600825071334839,-0.5180527567863464
1740246559527168300,6.375168212890625,3.542059898376465,1.2873643636703491,-0.6573986411094666
1740246559537151200,6.385151123046875,3.5119731426239014,1.2447113990783691,-0.8032509088516235
1740246559547133400,6.395133544921875,3.500635862350464,1.2219398021697998,-0.9534912705421448
1740246559557116000,6.405115966796875,3.531902313232422,1.1327781677246094,-1.0760345458984375
1740246559567097900,6.415097900390625,3.5900418758392334,0.9554122090339661,-1.1605068445205688
1740246559577079800,6.425079833984375,3.6446328163146973,0.6984155774116516,-1.1968826055526733
1740246559587061800,6.435061767578125,3.6689212322235107,0.41150712966918945,-1.1811031103134155
1740246559597043700,6.445043701171875,3.69399356842041,0.12006036192178726,-1.1183435916900635
1740246559607026000,6.45502587890625,3.7131645679473877,-0.12552089989185333,-1.014793038368225
1740246559617007600,6.465007568359375,3.708946943283081,-0.31623467803001404,-0.8933504819869995
1740246559626989800,6.47498974609375,3.6629998683929443,-0.4612238109111786,-0.7602121233940125
1740246559636972000,6.484971923828125,3.5849485397338867,-0.5669225454330444,-0.6277696490287781
1740246559646953700,6.49495361328125,3.4834725856781006,-0.6369767189025879,-0.5074107646942139
1740246559656936000,6.50493603515625,3.3691115379333496,-0.6760945916175842,-0.41030895709991455
1740246559666918000,6.51491796875,3.2281689643859863,-0.7061925530433655,-0.3382640779018402
1740246559676899800,6.52489990234375,3.053711175918579,-0.7127854824066162,-0.2766129672527313
1740246559686881800,6.5348818359375,2.8172757625579834,-0.6935632824897766,-0.20360638201236725
1740246559696864000,6.544864013671875,2.512213945388794,-0.6625379920005798,-0.1048332080245018
1740246559706845700,6.554845703125,2.1449637413024902,-0.6434457898139954,0.016634371131658554
1740246559716829000,6.564828857421875,1.7168184518814087,-0.6377575397491455,0.151431605219841
1740246559726811000,6.574810791015625,1.25383460521698,-0.6720452308654785,0.28713536262512207
1740246559736792800,6.584792724609375,0.7817943692207336,-0.7656731605529785,0.3856467604637146
1740246559746774800,6.59477490234375,0.298938512802124,-0.9018757939338684,0.4263441264629364
1740246559756756700,6.6047568359375,-0.1983778029680252,-1.0472580194473267,0.3863125443458557
1740246559766739000,6.614739013671875,-0.7031189799308777,-1.1762468814849854,0.2767897844314575
1740246559776720600,6.624720703125,-1.2057772874832153,-1.2473844289779663,0.10048399865627289
1740246559786702800,6.634702880859375,-1.6677491664886475,-1.2727872133255005,-0.10474026203155518
1740246559796684800,6.644684814453125,-2.055763006210327,-1.2852602005004883,-0.2939232289791107
1740246559806666800,6.654666748046875,-2.378390073776245,-1.2742056846618652,-0.4565667510032654
1740246559816648700,6.664648681640625,-2.6452698707580566,-1.236513376235962,-0.6129166483879089
1740246559826631000,6.674630859375,-2.8582799434661865,-1.1779230833053589,-0.7643210887908936
1740246559836612900,6.68461279296875,-3.0404818058013916,-1.1002894639968872,-0.9291079044342041
1740246559846594800,6.6945947265625,-3.2431912422180176,-0.9597835540771484,-1.1176691055297852
1740246559856577000,6.704576904296875,-3.466845989227295,-0.7839502096176147,-1.309710144996643
1740246559866558700,6.714558837890625,-3.7189879417419434,-0.6590988039970398,-1.4816819429397583
1740246559876541000,6.724541015625,-4.001023769378662,-0.5879274010658264,-1.6277512311935425
1740246559886523600,6.734523681640625,-4.303069114685059,-0.5141658782958984,-1.776555061340332
1740246559896505900,6.744505859375,-4.600539207458496,-0.40603405237197876,-1.9396380186080933
1740246559906488000,6.754488037109375,-4.85660457611084,-0.24214419722557068,-2.1085264682769775
1740246559916469800,6.7644697265625,-5.054331302642822,-0.07479434460401535,-2.277263641357422
1740246559926452000,6.774451904296875,-5.209585189819336,0.05636420473456383,-2.4264211654663086
1740246559936434000,6.784433837890625,-5.318665981292725,0.10974593460559845,-2.523904800415039
1740246559946415900,6.794415771484375,-5.395439624786377,0.13409601151943207,-2.554636240005493
1740246559956397800,6.804397705078125,-5.432878494262695,0.1522499918937683,-2.5087838172912598
1740246559966379800,6.8143798828125,-5.391035556793213,0.10731473565101624,-2.387308359146118
1740246559976361700,6.82436181640625,-5.273994445800781,-0.041363686323165894,-2.21220326423645
1740246559986344000,6.834343994140625,-5.139745235443115,-0.2604004144668579,-1.9745451211929321
1740246559996325600,6.84432568359375,-5.018892288208008,-0.4971727430820465,-1.6794549226760864
1740246560006307800,6.854307861328125,-4.904245853424072,-0.7566442489624023,-1.336756706237793
1740246560016290000,6.8642900390625,-4.762234210968018,-1.035438895225525,-0.9853818416595459
1740246560026271700,6.874271728515625,-4.586353302001953,-1.2857755422592163,-0.6812707185745239
1740246560036254000,6.88425390625,-4.382763385772705,-1.4245823621749878,-0.46264752745628357
1740246560046236000,6.89423583984375,-4.1181159019470215,-1.314437747001648,-0.33612048625946045
1740246560056219000,6.904218994140625,-3.7853341102600098,-1.0342622995376587,-0.24035081267356873
1740246560066200800,6.914200927734375,-3.4220898151397705,-0.7215642929077148,-0.13353382050991058
1740246560076182800,6.924182861328125,-3.0812160968780518,-0.4415246844291687,0.004179032519459724
1740246560086165000,6.9341650390625,-2.7992427349090576,-0.2374759316444397,0.1611955463886261
1740246560096147000,6.94414697265625,-2.566965341567993,-0.1112881749868393,0.3066960275173187
1740246560106129000,6.95412890625,-2.3560657501220703,-0.03922223672270775,0.41062748432159424
1740246560116110800,6.96411083984375,-2.1733245849609375,0.009186574257910252,0.4621705710887909
1740246560126092800,6.9740927734375,-2.0409016609191895,0.06297390908002853,0.45673131942749023
1740246560136074800,6.98407470703125,-1.950944423675537,0.13874882459640503,0.402314156293869
1740246560146057000,6.994056884765625,-1.885730266571045,0.21954487264156342,0.3245501220226288
1740246560156038700,7.00403857421875,-1.8458744287490845,0.27749207615852356,0.27031776309013367
1740246560166020900,7.014020751953125,-1.8241995573043823,0.28959187865257263,0.2629852890968323
1740246560176002800,7.0240029296875,-1.820103645324707,0.262032687664032,0.30013027787208557
1740246560185984800,7.03398486328125,-1.7894184589385986,0.23448440432548523,0.375903844833374
1740246560195967000,7.043967041015625,-1.6886541843414307,0.26133599877357483,0.44995251297950745
1740246560205949000,7.053948974609375,-1.5420889854431152,0.3107980787754059,0.5079428553581238
1740246560215932000,7.063931884765625,-1.3918137550354004,0.4020225405693054,0.5502399802207947
1740246560225913900,7.073913818359375,-1.2483950853347778,0.5205665230751038,0.5760548114776611
1740246560235895800,7.083895751953125,-1.110948085784912,0.6563301682472229,0.6081900596618652
1740246560245877800,7.093877685546875,-0.9457218050956726,0.7740248441696167,0.6687332987785339
1740246560255860000,7.10385986328125,-0.7356111407279968,0.8203662633895874,0.7700160145759583
1740246560265841700,7.113841552734375,-0.47605255246162415,0.7180572152137756,0.9075149893760681
1740246560275823900,7.123823974609375,-0.1750173568725586,0.49026158452033997,1.058056354522705
1740246560285805800,7.133805908203125,0.15522366762161255,0.27008315920829773,1.1864938735961914
1740246560295787800,7.143787841796875,0.4984622597694397,0.2558019459247589,1.2232340574264526
1740246560305770000,7.15377001953125,0.885550856590271,0.500007688999176,1.105156421661377
1740246560315751700,7.163751708984375,1.3385998010635376,0.9269651174545288,0.8124508261680603
1740246560325734000,7.17373388671875,1.8082588911056519,1.2946110963821411,0.45469292998313904
1740246560335715800,7.1837158203125,2.187549591064453,1.4273171424865723,0.15364281833171844
1740246560345697800,7.19369775390625,2.4025728702545166,1.3478857278823853,-0.017837852239608765
1740246560355679700,7.2036796875,2.4634788036346436,1.166711688041687,-0.06974180042743683
1740246560365662000,7.213661865234375,2.4388656616210938,0.9865861535072327,-0.038247521966695786
1740246560375643600,7.2236435546875,2.394099235534668,0.8542088866233826,0.03125139698386192
1740246560385625900,7.2336259765625,2.396355628967285,0.8127541542053223,0.09872578084468842
1740246560395608800,7.24360888671875,2.480390787124634,0.8604660034179688,0.10812220722436905
1740246560405590800,7.2535908203125,2.6523430347442627,0.9746946096420288,0.05401529744267464
1740246560415573000,7.263572998046875,2.879970073699951,1.098882794380188,-0.045528069138526917
1740246560425554700,7.2735546875,3.1220431327819824,1.2182883024215698,-0.16047808527946472
1740246560435537000,7.283536865234375,3.3451662063598633,1.2857462167739868,-0.257217139005661
1740246560445518800,7.293518798828125,3.534472703933716,1.2812577486038208,-0.3129062354564667
1740246560455500800,7.303500732421875,3.685026168823242,1.1931251287460327,-0.3227705955505371
1740246560465483000,7.31348291015625,3.8103151321411133,1.016893744468689,-0.3087141513824463
1740246560475464700,7.323464599609375,3.9292380809783936,0.8072739243507385,-0.2866016626358032
1740246560485447000,7.333447021484375,4.0458197593688965,0.5916262865066528,-0.28738412261009216
1740246560495428900,7.343428955078125,4.167487621307373,0.40755578875541687,-0.32048773765563965
1740246560505410800,7.353410888671875,4.274560928344727,0.27471572160720825,-0.375720351934433
1740246560515392800,7.363392822265625,4.352662086486816,0.2017166018486023,-0.4312121272087097
1740246560525375000,7.373375,4.403686046600342,0.18272560834884644,-0.45588523149490356
1740246560535356700,7.383356689453125,4.435367107391357,0.20543597638607025,-0.4296027719974518
1740246560545339000,7.3933388671875,4.462375640869141,0.23784984648227692,-0.3498839735984802
1740246560555321900,7.40332177734375,4.504114151000977,0.27406591176986694,-0.22890429198741913
1740246560565304000,7.413303955078125,4.555602073669434,0.3132796287536621,-0.07726070284843445
1740246560575286000,7.4232861328125,4.604190349578857,0.34370383620262146,0.08340301364660263
1740246560585268000,7.43326806640625,4.639488697052002,0.3850310444831848,0.23640242218971252
1740246560595250000,7.44325,4.661045551300049,0.44765448570251465,0.3787555694580078
1740246560605232000,7.453232177734375,4.649013519287109,0.5251146554946899,0.5116587281227112
1740246560615213800,7.4632138671875,4.6015214920043945,0.6091128587722778,0.6404561400413513
1740246560625196000,7.473196044921875,4.526127338409424,0.6878151297569275,0.7662939429283142
1740246560635177700,7.483177734375,4.420925617218018,0.7534106373786926,0.8830666542053223
1740246560645160000,7.493159912109375,4.2803568840026855,0.7870604991912842,0.9851016998291016
1740246560655142000,7.503141845703125,4.1103010177612305,0.7825387120246887,1.0669642686843872
1740246560665123800,7.513123779296875,3.91214656829834,0.7426334023475647,1.129140853881836
1740246560675105800,7.523105712890625,3.6854379177093506,0.6659803986549377,1.179413914680481
1740246560685088000,7.533087890625,3.429598808288574,0.5577561855316162,1.2232476472854614
1740246560695070000,7.543070068359375,3.1583950519561768,0.4411875307559967,1.2356444597244263
1740246560705053000,7.553052978515625,2.855900764465332,0.37364843487739563,1.18181312084198
1740246560715035000,7.563034912109375,2.506645917892456,0.44142958521842957,1.000767707824707
1740246560725016800,7.573016845703125,2.080894947052002,0.6151220202445984,0.6807100772857666
1740246560734999000,7.5829990234375,1.5828639268875122,0.7672963738441467,0.31485435366630554
1740246560744980700,7.592980712890625,1.017737627029419,0.7703853845596313,-0.0017044231062754989
1740246560754963000,7.602962890625,0.43328726291656494,0.6302229762077332,-0.24164219200611115
1740246560764945200,7.612945068359375,-0.13665638864040375,0.4053837060928345,-0.40651023387908936
1740246560774926800,7.6229267578125,-0.6540055274963379,0.13544970750808716,-0.5157291293144226
1740246560784909000,7.632908935546875,-1.1011193990707397,-0.17334142327308655,-0.5616098046302795
1740246560794891000,7.64289111328125,-1.5063542127609253,-0.5228213667869568,-0.56508868932724
1740246560804873000,7.652873046875,-1.8628774881362915,-0.8539055585861206,-0.5415500998497009
1740246560814855000,7.66285498046875,-2.1851871013641357,-1.1020280122756958,-0.5203108191490173
1740246560824836900,7.6728369140625,-2.4757649898529053,-1.183285117149353,-0.5033401250839233
1740246560834818800,7.68281884765625,-2.71482515335083,-1.1459758281707764,-0.4780299663543701
1740246560844801000,7.692801025390625,-2.91066575050354,-1.0359553098678589,-0.4395962655544281
1740246560854784000,7.702783935546875,-3.1023974418640137,-0.8720449209213257,-0.41752028465270996
1740246560864766000,7.712765869140625,-3.3013978004455566,-0.652654230594635,-0.4397190511226654
1740246560874748000,7.722747802734375,-3.511646032333374,-0.4318329095840454,-0.5125871300697327
1740246560884729900,7.732729736328125,-3.732358694076538,-0.2303011119365692,-0.6495060920715332
1740246560894712000,7.742712158203125,-3.969158411026001,-0.03922649845480919,-0.8515385389328003
1740246560904693800,7.75269384765625,-4.218557834625244,0.13196149468421936,-1.102758526802063
1740246560914676000,7.762676025390625,-4.445530414581299,0.2389763593673706,-1.3904457092285156
1740246560924658000,7.772657958984375,-4.622037410736084,0.2573833465576172,-1.7012193202972412
1740246560934639900,7.782639892578125,-4.7411675453186035,0.18911106884479523,-2.0147502422332764
1740246560944622000,7.7926220703125,-4.8105340003967285,0.05769871547818184,-2.2970619201660156
1740246560954604000,7.80260400390625,-4.842550277709961,-0.12473607063293457,-2.519592761993408
1740246560964586000,7.8125859375,-4.852538108825684,-0.3154754042625427,-2.684469223022461
1740246560974568000,7.82256787109375,-4.85500955581665,-0.46438950300216675,-2.7815539836883545
1740246560984550000,7.8325498046875,-4.8506693840026855,-0.5327427387237549,-2.7996013164520264
1740246560994531800,7.84253173828125,-4.845545768737793,-0.490629106760025,-2.7215089797973633
1740246561004514800,7.852514892578125,-4.809442520141602,-0.3420204520225525,-2.540734052658081
1740246561014497000,7.8624970703125,-4.745849132537842,-0.11372789740562439,-2.295376777648926
1740246561024479000,7.87247900390625,-4.617035865783691,0.020540429279208183,-1.9682397842407227
1740246561034461000,7.8824609375,-4.419012069702148,0.03826829418540001,-1.5885769128799438
1740246561044443000,7.89244287109375,-4.151233673095703,-0.03133555129170418,-1.2000735998153687
1740246561054425900,7.90242578125,-3.844572067260742,-0.1256527304649353,-0.8424468040466309
1740246561064407800,7.91240771484375,-3.538663864135742,-0.20849089324474335,-0.5568422079086304
1740246561074390000,7.92239013671875,-3.2612977027893066,-0.2205459624528885,-0.3716672956943512
1740246561084371700,7.932371826171875,-3.043120861053467,-0.1434466391801834,-0.2802444398403168
1740246561094354000,7.94235400390625,-2.8951563835144043,-0.021635254845023155,-0.2706964612007141
1740246561104336100,7.952336181640625,-2.794208526611328,0.11115821450948715,-0.3190205991268158
1740246561114317800,7.96231787109375,-2.718867778778076,0.20539788901805878,-0.3917139768600464
1740246561124300000,7.972300048828125,-2.6507039070129395,0.25680676102638245,-0.444532185792923
1740246561134282000,7.982281982421875,-2.592634439468384,0.22437557578086853,-0.45737606287002563
1740246561144264000,7.992263916015625,-2.5507750511169434,0.16992245614528656,-0.42968371510505676
1740246561154246000,8.002245849609375,-2.5387606620788574,0.14345863461494446,-0.3707551658153534
1740246561164227800,8.012227783203125,-2.554948329925537,0.14741528034210205,-0.2907002866268158
1740246561174209800,8.022209716796874,-2.574209690093994,0.16498015820980072,-0.2104879915714264
1740246561184192000,8.03219189453125,-2.578786849975586,0.19641372561454773,-0.13959598541259766
1740246561194175000,8.042175048828126,-2.5573298931121826,0.2231135070323944,-0.0970996543765068
1740246561204157000,8.052156982421875,-2.484529495239258,0.23326946794986725,-0.07454507052898407
1740246561214139000,8.062138916015625,-2.3413937091827393,0.22662994265556335,-0.05253111943602562
1740246561224120800,8.072120849609375,-2.125460624694824,0.22164984047412872,-0.037034984678030014
1740246561234103000,8.08210302734375,-1.865334153175354,0.24507154524326324,-0.056782856583595276
1740246561244084700,8.092084716796874,-1.5819590091705322,0.27659857273101807,-0.14453774690628052
1740246561254067000,8.10206689453125,-1.2691432237625122,0.2831486165523529,-0.31910157203674316
1740246561264049000,8.112048828125,-0.9126932621002197,0.21787986159324646,-0.5300356149673462
1740246561274030800,8.12203076171875,-0.5343030691146851,0.060334980487823486,-0.6900396943092346
1740246561284013000,8.132012939453125,-0.17719368636608124,-0.12314803153276443,-0.741787314414978
1740246561293995000,8.1419951171875,0.14690501987934113,-0.2803214192390442,-0.657658040523529
1740246561303977000,8.15197705078125,0.4852662980556488,-0.4246266484260559,-0.48346787691116333
1740246561313959000,8.161958984375,0.8459616303443909,-0.5662074685096741,-0.28510522842407227
1740246561323941000,8.171941162109375,1.225305438041687,-0.7189086079597473,-0.10577250272035599
1740246561333922800,8.1819228515625,1.6173629760742188,-0.8350906372070312,0.019165439531207085
1740246561343906000,8.191906005859375,1.9771664142608643,-0.8658642172813416,0.0592217780649662
1740246561353888000,8.201887939453124,2.2638185024261475,-0.8262646198272705,0.029168006032705307
1740246561363870000,8.211869873046876,2.448138952255249,-0.7273393869400024,-0.0013406352372840047
1740246561373852000,8.221851806640625,2.5346972942352295,-0.5772388577461243,0.041303496807813644
1740246561383833900,8.231833740234375,2.5493223667144775,-0.3777105510234833,0.1811617910861969
1740246561393816000,8.241816162109375,2.5361552238464355,-0.14863261580467224,0.4002020061016083
1740246561403797800,8.2517978515625,2.5490562915802,0.0924076959490776,0.6742631196975708
1740246561413780000,8.261780029296874,2.599353790283203,0.32887908816337585,0.9983242750167847
1740246561423762000,8.271761962890626,2.6632049083709717,0.5627523064613342,1.3619506359100342
1740246561433744000,8.281743896484375,2.7312088012695312,0.7848045229911804,1.7254916429519653
1740246561443725800,8.291725830078125,2.8142964839935303,0.9649945497512817,2.0586650371551514
1740246561453708000,8.3017080078125,2.9285504817962646,1.1298372745513916,2.2976362705230713
1740246561463690000,8.31168994140625,3.0672290325164795,1.2911534309387207,2.4141345024108887
1740246561473672000,8.321671875,3.2134127616882324,1.4271858930587769,2.4273645877838135
1740246561483654100,8.331654052734375,3.38017201423645,1.5160754919052124,2.3509585857391357
1740246561493635800,8.3416357421875,3.576406478881836,1.5541963577270508,2.1812384128570557
1740246561503618000,8.3516181640625,3.7793285846710205,1.474030613899231,1.9424114227294922
1740246561513600000,8.36160009765625,3.950415849685669,1.2761449813842773,1.6590784788131714
1740246561523583000,8.3715830078125,4.08400297164917,1.0261788368225098,1.3460414409637451
1740246561533565000,8.38156494140625,4.205893039703369,0.785123348236084,1.0159591436386108
1740246561543547000,8.391546875,4.325132369995117,0.5487552285194397,0.6879144906997681
1740246561553529000,8.401529052734375,4.419585227966309,0.30719029903411865,0.3875565230846405
1740246561563510800,8.4115107421875,4.475032806396484,0.0882188081741333,0.13523265719413757
1740246561573493000,8.421492919921874,4.508535385131836,-0.05636713653802872,-0.050391003489494324
1740246561583475000,8.431474853515626,4.527805328369141,-0.14519953727722168,-0.1636941283941269
1740246561593457000,8.441456787109376,4.547694683074951,-0.22205570340156555,-0.21410776674747467
1740246561603438800,8.45143896484375,4.569516658782959,-0.27817302942276,-0.2099686861038208
1740246561613421000,8.461421142578125,4.575207233428955,-0.2921096086502075,-0.16517378389835358
1740246561623403000,8.471403076171875,4.552161693572998,-0.25533562898635864,-0.09165827929973602
1740246561633385000,8.481385009765624,4.51243782043457,-0.1872154325246811,0.009179117158055305
1740246561643367200,8.4913671875,4.447455883026123,-0.10715281963348389,0.1388348489999771
1740246561653348900,8.501348876953125,4.3664069175720215,-0.03428313881158829,0.291473925113678
1740246561663332000,8.51133203125,4.26270866394043,0.015274293720722198,0.4609369933605194
1740246561673313800,8.521313720703125,4.154383182525635,0.07020891457796097,0.6419070363044739
1740246561683296000,8.5312958984375,4.024599552154541,0.14947763085365295,0.8167994618415833
1740246561693278000,8.54127783203125,3.886059045791626,0.2554301619529724,0.9928085803985596
1740246561703260000,8.551260009765626,3.735870361328125,0.3717344105243683,1.1559375524520874
1740246561713242000,8.5612421875,3.5812900066375732,0.44275373220443726,1.3104853630065918
1740246561723223800,8.571223876953125,3.418530225753784,0.45267826318740845,1.4526818990707397
1740246561733206000,8.5812060546875,3.2607030868530273,0.4116344153881073,1.588791847229004
1740246561743188000,8.59118798828125,3.0943000316619873,0.3360179662704468,1.7030326128005981
1740246561753170000,8.601169921875,2.914198875427246,0.26850709319114685,1.7618474960327148
1740246561763152000,8.61115185546875,2.676954984664917,0.23885145783424377,1.745631217956543
1740246561773134000,8.621134033203125,2.346921443939209,0.28435051441192627,1.633693814277649
1740246561783115800,8.63111572265625,1.901558756828308,0.43479087948799133,1.3980852365493774
1740246561793098000,8.641097900390625,1.3617019653320312,0.5994386672973633,1.0832819938659668
1740246561803081000,8.6510810546875,0.772206723690033,0.6925734281539917,0.7708306908607483
1740246561813063000,8.66106298828125,0.1724308878183365,0.6526994705200195,0.5315621495246887
1740246561823045000,8.671045166015626,-0.3851202428340912,0.49602121114730835,0.37852680683135986
1740246561833026800,8.68102685546875,-0.8783776164054871,0.25657665729522705,0.2926960587501526
1740246561843009000,8.691009033203125,-1.3079239130020142,-0.06006307154893875,0.2370823174715042
1740246561852991000,8.700990966796875,-1.6769784688949585,-0.3982318043708801,0.1965508759021759
1740246561862973000,8.710972900390624,-1.9867911338806152,-0.7182905077934265,0.15887993574142456
1740246561872955100,8.720955078125,-2.241489887237549,-0.969465970993042,0.1398947834968567
1740246561882936800,8.730936767578125,-2.4797844886779785,-1.1222659349441528,0.11960336565971375
1740246561892919000,8.7409189453125,-2.7135860919952393,-1.1861759424209595,0.08612450212240219
1740246561902901000,8.75090087890625,-2.939270257949829,-1.1773265600204468,0.0006846986943855882
1740246561912883000,8.760883056640624,-3.1423683166503906,-1.1046605110168457,-0.14462828636169434
1740246561922865000,8.770864990234376,-3.3300318717956543,-0.9927156567573547,-0.3391024172306061
1740246561932847900,8.780847900390626,-3.5241668224334717,-0.8383756279945374,-0.5416901707649231
1740246561942829800,8.790829833984375,-3.7401421070098877,-0.6692334413528442,-0.7338654398918152
1740246561952812000,8.80081201171875,-4.004025459289551,-0.5669931173324585,-0.8934615254402161
1740246561962794000,8.8107939453125,-4.301454544067383,-0.59841388463974,-1.0577410459518433
1740246561972776000,8.82077587890625,-4.601736545562744,-0.7541491389274597,-1.2796998023986816
1740246561982758100,8.830758056640626,-4.866264343261719,-0.9967210292816162,-1.6075353622436523
1740246561992739800,8.84073974609375,-5.069274425506592,-1.2822604179382324,-2.093149423599243
1740246562002722000,8.85072216796875,-5.1967291831970215,-1.5317096710205078,-2.7483816146850586
1740246562012704000,8.8607041015625,-5.207775115966797,-1.7054859399795532,-3.5111138820648193
1740246562022686000,8.87068603515625,-5.126152515411377,-1.772509217262268,-4.233026027679443
1740246562032668000,8.88066796875,-5.021575927734375,-1.7487436532974243,-4.772871494293213
1740246562042650000,8.890650146484376,-4.959924221038818,-1.6713247299194336,-5.0689592361450195
1740246562052631800,8.9006318359375,-4.962431907653809,-1.5806196928024292,-5.169037342071533
1740246562062615000,8.910614990234375,-5.036282062530518,-1.456779956817627,-5.143293857574463
1740246562072597000,8.920596923828125,-5.089456558227539,-1.333860158920288,-5.007480144500732
1740246562082579000,8.930578857421875,-5.043008327484131,-1.145053505897522,-4.733764171600342
1740246562092561000,8.940560791015624,-4.888335704803467,-0.8752995729446411,-4.321628570556641
1740246562102542800,8.95054296875,-4.6192522048950195,-0.5929746627807617,-3.773770332336426
1740246562112525000,8.960525146484375,-4.270899295806885,-0.2812921404838562,-3.124809741973877
1740246562122506800,8.9705068359375,-3.8974502086639404,0.06153526529669762,-2.4267287254333496
1740246562132489000,8.980489013671875,-3.532386064529419,0.4094812572002411,-1.739108681678772
1740246562142471200,8.99047119140625,-3.206221103668213,0.7394993901252747,-1.1233932971954346
1740246562152452900,9.000452880859376,-2.9433610439300537,1.0197798013687134,-0.6142868399620056
1740246562162435000,9.01043505859375,-2.7563271522521973,1.214247226715088,-0.20063962042331696
1740246562172417000,9.0204169921875,-2.6608262062072754,1.3027704954147339,0.12663570046424866
1740246562182399000,9.03039892578125,-2.6433827877044678,1.320540189743042,0.37019750475883484
1740246562192381000,9.040380859375,-2.6703438758850098,1.3000342845916748,0.54685378074646
1740246562202364000,9.050364013671874,-2.702911376953125,1.2490260601043701,0.6719472408294678
1740246562212346000,9.06034619140625,-2.722898244857788,1.1897379159927368,0.758078932762146
1740246562222328000,9.070328125,-2.7285592555999756,1.1313613653182983,0.8221226334571838
1740246562232310000,9.08031005859375,-2.7190630435943604,1.127695083618164,0.8737013936042786
1740246562242292000,9.0902919921875,-2.6936891078948975,1.176572322845459,0.9338856339454651
1740246562252274000,9.10027392578125,-2.6328742504119873,1.2285054922103882,1.025282382965088
1740246562262255900,9.110255859375,-2.544860363006592,1.2238940000534058,1.14002525806427
1740246562272238000,9.120238037109376,-2.411637783050537,1.1526401042938232,1.2731835842132568
1740246562282219800,9.1302197265625,-2.241633176803589,1.0789285898208618,1.3870341777801514
1740246562292202000,9.140201904296875,-2.0201258659362793,1.0462654829025269,1.4579837322235107
1740246562302184000,9.150183837890625,-1.755180835723877,1.0745165348052979,1.4763782024383545
1740246562312166000,9.160165771484374,-1.4751800298690796,1.1712549924850464,1.4473543167114258
1740246562322147800,9.17014794921875,-1.1748042106628418,1.2722256183624268,1.411091923713684
1740246562332130800,9.180130859375,-0.80694580078125,1.2350997924804688,1.4123547077178955
1740246562342113000,9.190113037109375,-0.36487382650375366,1.0098443031311035,1.4658552408218384
1740246562352095000,9.200094970703125,0.13645212352275848,0.6107357740402222,1.5451292991638184
1740246562362077000,9.210076904296875,0.6497923731803894,0.1559682935476303,1.611492395401001
1740246562372059000,9.220058837890624,1.1487423181533813,-0.17103752493858337,1.6200581789016724
1740246562382041000,9.230041015625,1.6121515035629272,-0.25485944747924805,1.519148588180542
1740246562392022800,9.240022705078125,2.046302318572998,-0.1425749957561493,1.2616506814956665
1740246562402005000,9.2500048828125,2.4428324699401855,0.06208840385079384,0.8904649019241333
1740246562411987000,9.259987060546875,2.756133794784546,0.25059974193573,0.5439125895500183
1740246562421969000,9.269968994140624,2.9349074363708496,0.3576819598674774,0.33603793382644653
1740246562431951000,9.279951171875,3.0117921829223633,0.40556854009628296,0.28511297702789307
1740246562441932800,9.289932861328126,3.0407357215881348,0.42921608686447144,0.3540036082267761
1740246562451916000,9.299916015625,3.047638177871704,0.4301780164241791,0.5104251503944397
1740246562461897700,9.309897705078125,3.0350356101989746,0.38596367835998535,0.738140344619751
1740246562471880000,9.3198798828125,3.036830425262451,0.34210461378097534,1.0002425909042358
1740246562481862100,9.329862060546875,3.068274974822998,0.3745187520980835,1.2580612897872925
1740246562491843800,9.33984375,3.1257898807525635,0.49659910798072815,1.4661366939544678
1740246562501826000,9.349825927734376,3.192624092102051,0.7256064414978027,1.5923341512680054
1740246562511808000,9.35980810546875,3.2644073963165283,1.0259559154510498,1.628251314163208
1740246562521790000,9.3697900390625,3.3311264514923096,1.3341163396835327,1.5844225883483887
1740246562531772000,9.37977197265625,3.399088144302368,1.590437889099121,1.4768202304840088
1740246562541754000,9.389754150390624,3.47161865234375,1.7968534231185913,1.3140969276428223
1740246562551735800,9.39973583984375,3.545910120010376,1.9049338102340698,1.1058012247085571
1740246562561718000,9.409718017578125,3.623889446258545,1.8445713520050049,0.8757163286209106
1740246562571700200,9.4197001953125,3.6988964080810547,1.6727831363677979,0.6247493624687195
1740246562581683200,9.42968310546875,3.7575225830078125,1.4483226537704468,0.34598058462142944
1740246562591665200,9.4396650390625,3.805593729019165,1.2443923950195312,0.0324130654335022
1740246562601647000,9.449647216796874,3.8464555740356445,1.0815539360046387,-0.30868619680404663
1740246562611629000,9.459629150390626,3.8920786380767822,0.9449483752250671,-0.6483383178710938
1740246562621611000,9.469611083984375,3.9415030479431152,0.8007118701934814,-0.9603657126426697
1740246562631593000,9.479593017578125,3.984973669052124,0.6454698443412781,-1.2175426483154297
1740246562641575200,9.4895751953125,4.0059990882873535,0.50262451171875,-1.4062010049819946
1740246562651557000,9.49955712890625,4.022402286529541,0.384199321269989,-1.5276155471801758
1740246562661539000,9.5095390625,4.024203777313232,0.29109176993370056,-1.5819091796875
1740246562671521300,9.519521240234376,4.005790710449219,0.18035300076007843,-1.5718775987625122
1740246562681503000,9.5295029296875,3.9463086128234863,0.03567437455058098,-1.5014249086380005
1740246562691485200,9.539485107421875,3.8492488861083984,-0.10054711252450943,-1.3711282014846802
1740246562701467100,9.549467041015625,3.7444231510162354,-0.22200962901115417,-1.187192678451538
1740246562711450000,9.5594501953125,3.646083116531372,-0.2978953421115875,-0.9630944132804871
1740246562721432300,9.569432373046874,3.571427345275879,-0.3209085166454315,-0.7120893001556396
1740246562731414000,9.5794140625,3.5310308933258057,-0.3013523817062378,-0.4433790445327759
1740246562741396200,9.589396240234375,3.546154260635376,-0.29870522022247314,-0.1682577133178711
1740246562751378200,9.599378173828125,3.5822503566741943,-0.33134278655052185,0.10640287399291992
1740246562761360100,9.609360107421875,3.6021955013275146,-0.3828003704547882,0.3720627725124359
1740246562771342000,9.619342041015624,3.564460039138794,-0.4298613667488098,0.6247789263725281
1740246562781324000,9.629323974609376,3.449474573135376,-0.47720223665237427,0.8514876961708069
1740246562791306000,9.639305908203125,3.2642698287963867,-0.5038818120956421,1.0365147590637207
1740246562801288200,9.6492880859375,3.033613920211792,-0.4554194509983063,1.1542965173721313
1740246562811270000,9.659269775390625,2.786993980407715,-0.32305848598480225,1.2016770839691162
1740246562821252000,9.669252197265624,2.523165702819824,-0.14204421639442444,1.1759930849075317
1740246562831234000,9.679234130859374,2.228341817855835,0.026272350922226906,1.0867832899093628
1740246562841217000,9.689217041015626,1.8801906108856201,0.17834123969078064,0.9777500033378601
1740246562851199200,9.69919921875,1.4685466289520264,0.28251850605010986,0.8789880275726318
1740246562861181000,9.709180908203125,1.026788353919983,0.2997526228427887,0.8193457126617432
1740246562871163100,9.7191630859375,0.5842389464378357,0.23950819671154022,0.8119037747383118
1740246562881145000,9.72914501953125,0.14457902312278748,0.14600273966789246,0.8378711938858032
1740246562891127000,9.739126953125,-0.29478371143341064,0.026206037029623985,0.8712975978851318
1740246562901109000,9.74910888671875,-0.7331379055976868,-0.09090540558099747,0.8998123407363892
1740246562911091200,9.75909130859375,-1.1681565046310425,-0.17763657867908478,0.9129140377044678
1740246562921073200,9.7690732421875,-1.568028450012207,-0.22626030445098877,0.9383746385574341
1740246562931055000,9.77905517578125,-1.926354169845581,-0.2787322998046875,1.0045806169509888
1740246562941037000,9.789037109375,-2.2348320484161377,-0.35546329617500305,1.1077569723129272
1740246562951019000,9.79901904296875,-2.5111091136932373,-0.4041277766227722,1.2433561086654663
1740246562961002000,9.809001953125,-2.755450963973999,-0.36723846197128296,1.389600157737732
1740246562970984000,9.81898388671875,-2.958791732788086,-0.2270139753818512,1.5347325801849365
1740246562980966100,9.828966064453125,-3.1008145809173584,-0.008782572112977505,1.668968677520752
1740246562990948000,9.838947998046875,-3.1960573196411133,0.2099582850933075,1.7901643514633179
1740246563000930000,9.848929931640624,-3.260286808013916,0.3970158100128174,1.886596918106079
1740246563010912300,9.858912353515626,-3.3040883541107178,0.540505588054657,1.9424543380737305
1740246563020894000,9.86889404296875,-3.3273916244506836,0.6498536467552185,1.9129352569580078
1740246563030876200,9.878876220703125,-3.3521370887756348,0.7386783361434937,1.7735038995742798
1740246563040858000,9.888858154296875,-3.3924224376678467,0.7829592227935791,1.5133795738220215
1740246563050840000,9.898840087890624,-3.481614112854004,0.7562897801399231,1.1109488010406494
1740246563060822000,9.908822021484376,-3.6524085998535156,0.7021629214286804,0.48651638627052307
1740246563070804200,9.91880419921875,-3.887495279312134,0.5555042624473572,-0.34312885999679565
1740246563080787200,9.928787109375,-4.109235763549805,0.2545313537120819,-1.2186728715896606
1740246563090769200,9.93876904296875,-4.222614288330078,-0.26315200328826904,-1.9979276657104492
1740246563100751000,9.948751220703125,-4.293158531188965,-0.9270447492599487,-2.650214672088623
1740246563110733000,9.958733154296874,-4.459312438964844,-1.62166428565979,-3.209216356277466
1740246563120715300,9.96871533203125,-4.713399410247803,-2.26924204826355,-3.6675353050231934
1740246563130697000,9.978697021484376,-5.004700660705566,-2.8141086101531982,-3.9932451248168945
1740246563140679200,9.98867919921875,-5.323841094970703,-3.169607400894165,-4.185369491577148
1740246563150660900,9.998660888671875,-5.682923316955566,-3.233651638031006,-4.283352851867676
1740246563160643000,10.00864306640625,-5.9695000648498535,-3.0957729816436768,-4.289186954498291
1740246563170625000,10.018625,-6.099168300628662,-2.9447336196899414,-4.217316150665283
1740246563180607000,10.02860693359375,-5.978317737579346,-2.3595969676971436,-4.015928268432617
1740246563190589200,10.038589111328125,-5.651163578033447,-1.5469861030578613,-3.6452414989471436
1740246563200572000,10.048572021484375,-5.287174701690674,-0.7610810995101929,-3.1090285778045654
1740246563210554000,10.05855419921875,-4.983389854431152,-0.11629891395568848,-2.430790424346924
1740246563220536000,10.0685361328125,-4.757650375366211,0.4608035683631897,-1.6512168645858765
1740246563230518000,10.07851806640625,-4.581775188446045,0.9321553707122803,-0.8226009011268616
1740246563240500000,10.0885,-4.434881687164307,1.1955842971801758,-0.017946776002645493
1740246563250482200,10.098482177734375,-4.299361705780029,1.2622357606887817,0.6997810006141663
1740246563260464000,10.108464111328125,-4.131587982177734,1.2458659410476685,1.2906978130340576
1740246563270446000,10.118446044921875,-3.8546903133392334,1.2223693132400513,1.7456951141357422
1740246563280428300,10.12842822265625,-3.410778045654297,1.1464064121246338,2.0652401447296143
1740246563290410000,10.138409912109376,-2.83205246925354,1.0092315673828125,2.271832227706909
1740246563300392200,10.14839208984375,-2.209700345993042,0.816960334777832,2.371473550796509
1740246563310374100,10.1583740234375,-1.6656376123428345,0.6202347874641418,2.391908884048462
1740246563320357000,10.168357177734375,-1.2698920965194702,0.39599552750587463,2.3485991954803467
1740246563330339000,10.178339111328125,-1.0318998098373413,0.11396811157464981,2.223262071609497
1740246563340321000,10.188321044921874,-0.920819103717804,-0.1818547546863556,1.979251503944397
1740246563350303200,10.19830322265625,-0.8740891218185425,-0.3772077262401581,1.6226518154144287
1740246563360285000,10.208284912109375,-0.8279229998588562,-0.44232895970344543,1.187853455543518
1740246563370267100,10.21826708984375,-0.7191373705863953,-0.4661932587623596,0.7609606981277466
1740246563380249000,10.2282490234375,-0.5253812074661255,-0.5739492774009705,0.3974951505661011
1740246563390231000,10.23823095703125,-0.2600470185279846,-0.7719973921775818,0.11356277763843536
1740246563400213000,10.248212890625,-0.01398852001875639,-0.9810706973075867,-0.1118282601237297
1740246563410195200,10.2581953125,0.1737227886915207,-1.1434985399246216,-0.28867360949516296
1740246563420177000,10.268177001953125,0.33714818954467773,-1.2404519319534302,-0.40469369292259216
1740246563430159000,10.2781591796875,0.5254616737365723,-1.2874902486801147,-0.4751388132572174
1740246563440142000,10.28814208984375,0.7884671688079834,-1.2282123565673828,-0.5269090533256531
1740246563450124000,10.2981240234375,1.1596966981887817,-1.0316718816757202,-0.5965893864631653
1740246563460106200,10.308106201171874,1.6072057485580444,-0.75642991065979,-0.6974523067474365
1740246563470088000,10.318087890625,2.0546016693115234,-0.4735361337661743,-0.7965773344039917
1740246563480070100,10.328070068359375,2.4267728328704834,-0.1934695988893509,-0.8500418663024902
1740246563490052000,10.338052001953125,2.6808595657348633,0.08087541162967682,-0.8224579095840454
1740246563500034000,10.348033935546875,2.838728427886963,0.33563101291656494,-0.7038193941116333
1740246563510016300,10.358016357421874,2.92079758644104,0.5229007601737976,-0.5097092986106873
1740246563519998000,10.367998046875,2.952731132507324,0.6539911031723022,-0.24474556744098663
1740246563529980200,10.377980224609376,2.9654414653778076,0.7295932173728943,0.06720992922782898
1740246563539962000,10.387962158203125,2.9997313022613525,0.7755633592605591,0.4024483859539032
1740246563549944000,10.397944091796875,3.095266103744507,0.7817291021347046,0.726700484752655
1740246563559926300,10.40792626953125,3.260127067565918,0.7682649493217468,0.9877336621284485
1740246563569908500,10.417908447265624,3.4758050441741943,0.7792713046073914,1.1467821598052979
1740246563579890200,10.42789013671875,3.6901681423187256,0.8359803557395935,1.2037155628204346
1740246563589872400,10.437872314453125,3.8884778022766113,0.9537512063980103,1.1711058616638184
1740246563599854300,10.447854248046875,4.0594916343688965,1.0985177755355835,1.0645354986190796
1740246563609836300,10.457836181640625,4.20989990234375,1.2347655296325684,0.889735996723175
1740246563619818200,10.467818359375,4.346059322357178,1.3289283514022827,0.7056005597114563
1740246563629800200,10.47780029296875,4.449547290802002,1.354539155960083,0.5609964728355408
1740246563639782100,10.4877822265625,4.520879745483398,1.318472981452942,0.47201892733573914
1740246563649764400,10.497764404296875,4.5628228187561035,1.2194081544876099,0.4409600794315338
1740246563659746300,10.507746337890625,4.586203575134277,1.0693539381027222,0.4501029849052429
1740246563669728300,10.517728271484375,4.605072021484375,0.8835439085960388,0.4526928961277008
1740246563679711200,10.527711181640624,4.617886543273926,0.7150377035140991,0.42144978046417236
1740246563689693200,10.537693115234376,4.61873722076416,0.6037684679031372,0.32727691531181335
1740246563699675400,10.54767529296875,4.595721244812012,0.5492239594459534,0.19233402609825134
1740246563709657000,10.557656982421875,4.547241687774658,0.5181563496589661,0.04632754996418953
1740246563719639300,10.567639404296875,4.487128734588623,0.49089115858078003,-0.07535813748836517
1740246563729621500,10.57762158203125,4.4180426597595215,0.45247453451156616,-0.16192711889743805
1740246563739603200,10.587603271484374,4.344118118286133,0.39464452862739563,-0.21083900332450867
1740246563749585400,10.59758544921875,4.28454065322876,0.3341231048107147,-0.22444428503513336
1740246563759567400,10.6075673828125,4.222578525543213,0.29063183069229126,-0.21866470575332642
1740246563769549300,10.61754931640625,4.158051013946533,0.2670586109161377,-0.19946810603141785
1740246563779531300,10.62753125,4.085548400878906,0.2640843689441681,-0.16971606016159058
1740246563789514200,10.63751416015625,3.9968063831329346,0.2619365453720093,-0.1308746635913849
1740246563799496400,10.647496337890624,3.8966128826141357,0.24534077942371368,-0.08736739307641983
1740246563809478400,10.657478515625,3.7917935848236084,0.23374910652637482,-0.0372011661529541
1740246563819460400,10.66746044921875,3.6872377395629883,0.23112057149410248,0.006658701691776514
1740246563829442300,10.6774423828125,3.5739808082580566,0.21924446523189545,0.05445951223373413
1740246563839424300,10.68742431640625,3.444758415222168,0.19324588775634766,0.1122216135263443
1740246563849406200,10.69740625,3.2755649089813232,0.13555675745010376,0.19449357688426971
1740246563859388400,10.707388427734376,3.054222822189331,0.04790307581424713,0.2960614860057831
1740246563869370000,10.7173701171875,2.8112869262695312,-0.03696334362030029,0.4059123396873474
1740246563879352300,10.727352294921875,2.5478811264038086,-0.07033222168684006,0.4960070848464966
1740246563889334300,10.737334228515625,2.2580652236938477,-0.04127074033021927,0.5332764387130737
1740246563899316200,10.747316162109374,1.9282960891723633,0.0364762507379055,0.5103940367698669
1740246563909299500,10.757299560546874,1.5374248027801514,0.12160419672727585,0.4182049632072449
1740246563919281200,10.76728125,1.097830057144165,0.1768818348646164,0.29798829555511475
1740246563929263400,10.777263427734376,0.6326696276664734,0.1660401076078415,0.18962132930755615
1740246563939245300,10.787245361328125,0.17467433214187622,0.06926456093788147,0.10719862580299377
1740246563949227300,10.797227294921875,-0.2570751905441284,-0.10864552110433578,0.04970816895365715
1740246563959209200,10.807209228515624,-0.6686872243881226,-0.31938865780830383,0.0014026869321241975
1740246563969191400,10.81719140625,-1.0411127805709839,-0.5277844667434692,-0.06527221202850342
1740246563979173000,10.827173095703126,-1.3704898357391357,-0.7189083695411682,-0.1598927229642868
1740246563989155300,10.8371552734375,-1.664322853088379,-0.8892172574996948,-0.270514577627182
1740246563999137300,10.84713720703125,-1.9278044700622559,-1.0152939558029175,-0.39384424686431885
1740246564009119200,10.857119140625,-2.152836561203003,-1.0798462629318237,-0.49199795722961426
1740246564019102200,10.867102294921875,-2.343764066696167,-1.0625346899032593,-0.5702815651893616
1740246564029084200,10.877084228515624,-2.5465540885925293,-0.9727294445037842,-0.6302139163017273
1740246564039066400,10.88706640625,-2.7803220748901367,-0.8599680066108704,-0.7135993242263794
1740246564049048000,10.897048095703125,-3.099496364593506,-0.7674804329872131,-0.8438457250595093
1740246564059030300,10.9070302734375,-3.4613983631134033,-0.6693090796470642,-1.0178287029266357
1740246564069012500,10.917012451171875,-3.786652088165283,-0.5380927324295044,-1.206620216369629
1740246564078994200,10.926994140625,-4.03053092956543,-0.3509572148323059,-1.3854371309280396
1740246564088976400,10.936976318359376,-4.2003655433654785,-0.15076793730258942,-1.54926598072052
1740246564098958300,10.946958251953125,-4.3371195793151855,0.023611320182681084,-1.7287790775299072
1740246564108940300,10.956940185546875,-4.466490268707275,0.13774295151233673,-1.9269334077835083
1740246564118922200,10.966922119140625,-4.570669174194336,0.17367005348205566,-2.1421961784362793
1740246564128905200,10.9769052734375,-4.6454315185546875,0.14457929134368896,-2.3543365001678467
1740246564138887400,10.986887451171874,-4.682633876800537,0.08371513336896896,-2.532550573348999
1740246564148869400,10.996869384765626,-4.682563304901123,0.012769058346748352,-2.657388925552368
1740246564158851300,11.006851318359375,-4.6636528968811035,-0.03749890625476837,-2.7295594215393066
1740246564168833300,11.016833251953125,-4.634817123413086,-0.0631512701511383,-2.7378976345062256
1740246564178815500,11.0268154296875,-4.561408042907715,-0.07072636485099792,-2.661747932434082
1740246564188797200,11.036797119140624,-4.347851276397705,-0.08802519738674164,-2.504465341567993
1740246564198779400,11.046779296875,-3.9175398349761963,-0.14760011434555054,-2.248469591140747
1740246564208761000,11.056760986328126,-3.2567408084869385,-0.24574851989746094,-1.8477613925933838
1740246564218743300,11.066743408203125,-2.5758399963378906,-0.34735262393951416,-1.2629055976867676
1740246564228725200,11.076725341796875,-2.066969871520996,-0.4537496566772461,-0.47793540358543396
1740246564238708200,11.086708251953125,-1.862323522567749,-0.5513890981674194,0.428280770778656
1740246564248690400,11.0966904296875,-1.998696208000183,-0.5960740447044373,1.2877278327941895
1740246564258672000,11.106672119140624,-2.3317956924438477,-0.5710440278053284,1.9538733959197998
1740246564268654300,11.116654296875,-2.6604533195495605,-0.4463716149330139,2.363924741744995
1740246564278636300,11.12663623046875,-2.8471591472625732,-0.24384436011314392,2.4845564365386963
1740246564288618200,11.1366181640625,-2.8487064838409424,-0.05558896064758301,2.361508369445801
1740246564298600200,11.14660009765625,-2.706451654434204,0.12782160937786102,1.9965907335281372
1740246564308582400,11.15658251953125,-2.496298313140869,0.20640723407268524,1.4839913845062256
1740246564318564400,11.166564453125,-2.3172364234924316,0.07335357367992401,1.0691864490509033
1740246564328546300,11.17654638671875,-2.258964776992798,-0.1442469209432602,0.8225761651992798
1740246564338528500,11.186528564453125,-2.317758083343506,-0.3197321891784668,0.6748391389846802
1740246564348511200,11.19651123046875,-2.4213449954986572,-0.4470571279525757,0.5340551137924194
1740246564358493400,11.206493408203125,-2.518018960952759,-0.5045209527015686,0.3524478077888489
1740246564368475100,11.21647509765625,-2.5885186195373535,-0.4678729176521301,0.15705326199531555
1740246564378457300,11.226457275390626,-2.5906176567077637,-0.37506788969039917,-0.0059742690064013
1740246564388439300,11.236439208984375,-2.5165855884552,-0.28927043080329895,-0.09066172689199448
1740246564398421200,11.246421142578125,-2.4063544273376465,-0.1540641337633133,-0.11973092705011368
1740246564408403500,11.256403564453125,-2.2760748863220215,0.07804340124130249,-0.10289549082517624
1740246564418385200,11.26638525390625,-2.1132242679595947,0.38370904326438904,-0.07718160003423691
1740246564428367400,11.276367431640624,-1.8764052391052246,0.6480850577354431,-0.03393666073679924
1740246564438349300,11.286349365234376,-1.6087894439697266,0.7777612805366516,0.022057898342609406
1740246564448331300,11.296331298828125,-1.3507119417190552,0.780055046081543,0.10198015719652176
1740246564458313200,11.306313232421875,-1.130409598350525,0.6455028653144836,0.21860317885875702
1740246564468296200,11.316296142578125,-0.9356625080108643,0.4152534008026123,0.3992006480693817
1740246564478278400,11.3262783203125,-0.7310851216316223,0.19232070446014404,0.6247602701187134
1740246564488260400,11.33626025390625,-0.4752693176269531,0.08944465965032578,0.8437861204147339
1740246564498242300,11.3462421875,-0.12425564229488373,0.1313396543264389,1.012724757194519
1740246564508224300,11.356224365234375,0.32658904790878296,0.2712551951408386,1.0929315090179443
1740246564518206500,11.36620654296875,0.8688360452651978,0.4346068501472473,1.0785608291625977
1740246564528188200,11.376188232421875,1.4184200763702393,0.5732046961784363,0.9964113235473633
1740246564538170400,11.38617041015625,1.8555963039398193,0.6763275861740112,0.9058105945587158
1740246564548152300,11.39615234375,2.1022255420684814,0.7330188155174255,0.8631009459495544
1740246564558134300,11.40613427734375,2.1605732440948486,0.7495224475860596,0.9075709581375122
1740246564568117800,11.41611767578125,2.093393564224243,0.7953237295150757,1.016807198524475
1740246564578099700,11.426099609375,1.9826751947402954,0.9140722751617432,1.171122431755066
1740246564588082000,11.43608203125,1.925250768661499,1.052243947982788,1.335699439048767
1740246564598063600,11.446063720703124,1.977911353111267,1.1308133602142334,1.4794772863388062
1740246564608045800,11.4560458984375,2.132188081741333,1.204071044921875,1.5553371906280518
1740246564618027800,11.46602783203125,2.3637001514434814,1.2894037961959839,1.5560327768325806
1740246564628009700,11.476009765625,2.616941213607788,1.3600140810012817,1.485615849494934
1740246564637992000,11.485991943359375,2.8392348289489746,1.3844077587127686,1.3494303226470947
1740246564647974000,11.495973876953125,2.9951045513153076,1.3681590557098389,1.1703282594680786
1740246564657955800,11.505955810546874,3.0774340629577637,1.3616199493408203,0.9650448560714722
1740246564667937800,11.515937744140626,3.1187329292297363,1.2982656955718994,0.7402170896530151
1740246564677920800,11.525920654296876,3.1499853134155273,1.3978391885757446,0.5184825658798218
1740246564687902700,11.53590283203125,3.203123092651367,1.2704548835754395,0.28726905584335327
1740246564697884700,11.545884765625,3.304903507232666,1.1214054822921753,0.07405425608158112
1740246564707867000,11.555866943359375,3.4496684074401855,1.0773389339447021,-0.1007593646645546
1740246564717848800,11.565848876953124,3.5814127922058105,0.9667045474052429,-0.2388213723897934
1740246564727830800,11.575830810546876,3.6768009662628174,0.8180266618728638,-0.3189316391944885
1740246564737812700,11.585812744140625,3.7340126037597656,0.733047604560852,-0.362604022026062
1740246564747795000,11.595794921875,3.7606403827667236,0.7101356387138367,-0.3630636930465698
1740246564757776600,11.605776611328125,3.761392831802368,0.7265082001686096,-0.3358405828475952
1740246564767758800,11.6157587890625,3.7656631469726562,0.7944060564041138,-0.29326382279396057
1740246564777740800,11.62574072265625,3.795447587966919,0.8585584163665771,-0.2400839775800705
1740246564787723800,11.635723876953126,3.860535144805908,0.9045522212982178,-0.18813101947307587
1740246564797706000,11.6457060546875,3.9407644271850586,0.9386862516403198,-0.13110210001468658
1740246564807687700,11.655687744140625,4.026370525360107,0.9612283110618591,-0.07744205743074417
1740246564817670000,11.665669921875,4.10095739364624,0.9549882411956787,-0.014156032353639603
1740246564827651800,11.67565185546875,4.165738582611084,0.8908191323280334,0.05396389961242676
1740246564837633800,11.6856337890625,4.208446502685547,0.7997664213180542,0.11178485304117203
1740246564847615700,11.69561572265625,4.202376842498779,0.7077015042304993,0.15314480662345886
1740246564857598000,11.705597900390625,4.131669998168945,0.586686909198761,0.1758788824081421
1740246564867579600,11.71557958984375,4.026406764984131,0.43728333711624146,0.17791301012039185
1740246564877561900,11.725561767578125,3.89739990234375,0.25713858008384705,0.16017049551010132
1740246564887543800,11.735543701171874,3.759178876876831,0.00333134806714952,0.1360960453748703
1740246564897526800,11.74552685546875,3.5953636169433594,-0.2788177728652954,0.12012294679880142
1740246564907508700,11.7555087890625,3.4034295082092285,-0.49450239539146423,0.08794423937797546
1740246564917490700,11.76549072265625,3.1550421714782715,-0.5747775435447693,0.011500328779220581
1740246564927473000,11.775472900390625,2.8190054893493652,-0.4907950162887573,-0.13415008783340454
1740246564937454600,11.78545458984375,2.370690107345581,-0.3167095184326172,-0.32312560081481934
1740246564947436800,11.795436767578124,1.8297845125198364,-0.1514774113893509,-0.5046658515930176
1740246564957418800,11.805418701171876,1.2732517719268799,-0.060503825545310974,-0.6380531787872314
1740246564967400700,11.815400634765625,0.736190140247345,-0.06693322956562042,-0.7310878038406372
1740246564977383000,11.8253828125,0.22278913855552673,-0.16251620650291443,-0.7838388681411743
1740246564987364900,11.83536474609375,-0.24448564648628235,-0.3045803904533386,-0.7905641794204712
1740246564997347800,11.845347900390625,-0.6680177450180054,-0.4359738528728485,-0.748455822467804
1740246565007329800,11.855329833984374,-1.054038405418396,-0.5047430396080017,-0.6693331003189087
1740246565017311700,11.865311767578126,-1.3932406902313232,-0.5281298756599426,-0.5718454122543335
1740246565027293700,11.875293701171875,-1.6815862655639648,-0.5232781171798706,-0.4274778366088867
1740246565037276000,11.88527587890625,-1.948093295097351,-0.4963604807853699,-0.2521076202392578
1740246565047257900,11.8952578125,-2.2294766902923584,-0.45174163579940796,-0.07069680839776993
1740246565057239800,11.90523974609375,-2.512054920196533,-0.4004656672477722,0.06853858381509781
1740246565067221800,11.9152216796875,-2.786609172821045,-0.3370097279548645,0.12170007079839706
1740246565077204700,11.925204833984376,-3.0367884635925293,-0.26057565212249756,0.07590302079916
1740246565087186700,11.935186767578125,-3.2367703914642334,-0.17617370188236237,-0.0658344104886055
1740246565097168600,11.945168701171875,-3.380012273788452,-0.06612149626016617,-0.29500579833984375
1740246565107150800,11.95515087890625,-3.4514925479888916,0.06741392612457275,-0.5928201675415039
1740246565117132800,11.9651328125,-3.5037713050842285,0.19765421748161316,-0.9317678809165955
1740246565127114800,11.97511474609375,-3.5634491443634033,0.26507800817489624,-1.273780107498169
1740246565137097000,11.985096923828126,-3.6393394470214844,0.2170148640871048,-1.609356164932251
1740246565147078700,11.99507861328125,-3.7351009845733643,0.040410805493593216,-1.935337781906128
1740246565157060900,12.005060791015625,-3.8439080715179443,-0.17974872887134552,-2.260089159011841
1740246565167042800,12.015042724609375,-3.9630420207977295,-0.3795816898345947,-2.5786798000335693
1740246565177025800,12.02502587890625,-4.099475860595703,-0.5040724873542786,-2.8958706855773926
1740246565187008000,12.035008056640624,-4.2451171875,-0.5433684587478638,-3.166640043258667
1740246565196989700,12.04498974609375,-4.394715785980225,-0.5233047604560852,-3.3396506309509277
1740246565206972000,12.054971923828125,-4.53045129776001,-0.4816092550754547,-3.382979154586792
1740246565216953900,12.064953857421875,-4.656815052032471,-0.41990140080451965,-3.2953860759735107
1740246565226935800,12.074935791015625,-4.744594097137451,-0.33457425236701965,-3.1246442794799805
1740246565236917800,12.084917724609374,-4.754721641540527,-0.24744920432567596,-2.876436948776245
1740246565246900000,12.09489990234375,-4.646052837371826,-0.1949726790189743,-2.555694580078125
1740246565256881700,12.104881591796875,-4.45009708404541,-0.1473495066165924,-2.1876158714294434
1740246565266863900,12.11486376953125,-4.201923370361328,-0.09095706790685654,-1.79851233959198
1740246565276845600,12.124845458984375,-3.9095957279205322,-0.061115019023418427,-1.4079911708831787
1740246565286828800,12.134828857421875,-3.631247043609619,-0.033597107976675034,-1.0175821781158447
1740246565296810800,12.144810791015624,-3.415788173675537,0.0014689996605738997,-0.636821985244751
1740246565306792700,12.154792724609376,-3.3120639324188232,0.10387047380208969,-0.2757735252380371
1740246565316775000,12.16477490234375,-3.2844247817993164,0.27062296867370605,0.06504930555820465
1740246565326756600,12.174756591796875,-3.2647557258605957,0.43958374857902527,0.37589240074157715
1740246565336738800,12.18473876953125,-3.2088558673858643,0.5611701011657715,0.6415046453475952
1740246565346720800,12.194720703125,-3.09416127204895,0.6302304267883301,0.8434752821922302
1740246565356702700,12.20470263671875,-2.910093069076538,0.6396268606185913,0.9749305248260498
1740246565366685000,12.214684814453125,-2.693284511566162,0.6024482846260071,1.0329123735427856
1740246565376667000,12.2246669921875,-2.4801366329193115,0.5760361552238464,1.037972331047058
1740246565386648800,12.23464892578125,-2.2637500762939453,0.573905885219574,1.0192972421646118
1740246565396630800,12.244630859375,-2.0635807514190674,0.5867766737937927,0.9923308491706848
1740246565406613000,12.254613037109374,-1.89827299118042,0.5881234407424927,0.9750365018844604
1740246565416594700,12.2645947265625,-1.7605236768722534,0.5642226338386536,0.9602386951446533
1740246565426577000,12.274576904296875,-1.6159392595291138,0.4740178883075714,0.942488431930542
1740246565436560000,12.284559814453125,-1.435689091682434,0.32319775223731995,0.9008387327194214
1740246565446541800,12.294541748046875,-1.218565821647644,0.19591757655143738,0.8339467644691467
1740246565456523800,12.304523681640624,-0.9843218922615051,0.14898601174354553,0.7340680956840515
1740246565466505700,12.314505615234374,-0.7454574108123779,0.18340231478214264,0.602592945098877
1740246565476488000,12.324488037109376,-0.528100311756134,0.2522799074649811,0.4603995680809021
1740246565486469600,12.3344697265625,-0.3374778926372528,0.30063360929489136,0.3433123528957367
1740246565496451800,12.344451904296875,-0.17175498604774475,0.28161677718162537,0.2668335735797882
1740246565506433800,12.354433837890625,-0.018388062715530396,0.24263660609722137,0.24064722657203674
1740246565516415700,12.364415771484374,0.1323990523815155,0.20338614284992218,0.2677534222602844
1740246565526397700,12.374397705078126,0.3174637258052826,0.1296384185552597,0.3383980095386505
1740246565536380700,12.384380615234376,0.5764393210411072,0.03967151418328285,0.4155319631099701
1740246565546363000,12.39436279296875,0.9190661907196045,-0.02576501853764057,0.4710839092731476
1740246565556344800,12.4043447265625,1.3290798664093018,-0.07118070125579834,0.457834392786026
1740246565566326500,12.414326416015625,1.7596160173416138,-0.0741831511259079,0.36497822403907776
1740246565576308500,12.42430859375,2.113119602203369,0.013377591036260128,0.22735272347927094
1740246565586290700,12.434290771484376,2.3329052925109863,0.1481548398733139,0.11101200431585312
1740246565596272400,12.4442724609375,2.4139504432678223,0.2611602246761322,0.09715504199266434
1740246565606254600,12.454254638671875,2.388693332672119,0.34284764528274536,0.18645137548446655
1740246565616236500,12.464236572265625,2.3148398399353027,0.4463987946510315,0.34432727098464966
1740246565626218500,12.474218505859374,2.2415525913238525,0.5714307427406311,0.5658937692642212
1740246565636201700,12.48420166015625,2.2119204998016357,0.6858611702919006,0.8440840840339661
1740246565646183400,12.494183349609376,2.246185779571533,0.7595833539962769,1.1348799467086792
1740246565656165600,12.50416552734375,2.3600692749023438,0.8209761381149292,1.3874448537826538
1740246565666147600,12.514147705078125,2.549790382385254,0.882034957408905,1.5638012886047363
1740246565676129500,12.524129638671875,2.7661516666412354,0.9788398146629333,1.632705807685852
1740246565686111500,12.534111572265624,2.9464731216430664,1.1138911247253418,1.595141887664795
1740246565696093400,12.544093505859376,3.0693576335906982,1.2751576900482178,1.443449854850769
1740246565706075400,12.554075439453126,3.1464321613311768,1.3859905004501343,1.2029783725738525
1740246565716057600,12.5640576171875,3.2005553245544434,1.5400519371032715,0.9355810284614563
