time,seconds_elapsed,z,y,x
1739919872785578500,0.04257861328125,-0.8780059814453125,-0.3988494873046875,0.046844482421875
1739919872795561500,0.0525615234375,-0.8785858154296875,-0.39886474609375,0.0503997802734375
1739919872805543700,0.062543701171875,-0.884735107421875,-0.3934173583984375,0.0458984375
1739919872815525600,0.072525634765625,-0.8938446044921875,-0.388519287109375,0.0430908203125
1739919872825508600,0.082508544921875,-0.9052886962890625,-0.3890533447265625,0.047943115234375
1739919872835490800,0.09249072265625,-0.9113311767578125,-0.390869140625,0.0498199462890625
1739919872845472500,0.102472412109375,-0.907318115234375,-0.3913116455078125,0.0385894775390625
1739919872855455700,0.112455810546875,-0.8986663818359375,-0.39324951171875,0.029571533203125
1739919872865437400,0.1224375,-0.8974609375,-0.3962554931640625,0.0249176025390625
1739919872875419600,0.132419677734375,-0.90216064453125,-0.3992767333984375,0.024658203125
1739919872885402600,0.142402587890625,-0.9127655029296875,-0.3940582275390625,0.023529052734375
1739919872895384600,0.152384521484375,-0.9246978759765625,-0.3886871337890625,0.0244903564453125
1739919872905366800,0.16236669921875,-0.932403564453125,-0.389404296875,0.03045654296875
1739919872915349500,0.172349609375,-0.9351806640625,-0.39056396484375,0.0369873046875
1739919872925331700,0.182331787109375,-0.9261016845703125,-0.3922271728515625,0.03729248046875
1739919872935314700,0.192314697265625,-0.9159393310546875,-0.395599365234375,0.0350341796875
1739919872945296600,0.202296630859375,-0.9095001220703125,-0.3963165283203125,0.0357513427734375
1739919872955278600,0.212278564453125,-0.9091339111328125,-0.3959808349609375,0.0315399169921875
1739919872965261800,0.22226171875,-0.9116668701171875,-0.389068603515625,0.0344390869140625
1739919872975243500,0.232243408203125,-0.9139404296875,-0.3894805908203125,0.0387420654296875
1739919872985225700,0.242225830078125,-0.906982421875,-0.39068603515625,0.042144775390625
1739919872995208400,0.25220849609375,-0.9006805419921875,-0.3939361572265625,0.042266845703125
1739919873005190700,0.262190673828125,-0.8954315185546875,-0.3997650146484375,0.0474395751953125
1739919873015172600,0.272172607421875,-0.8934173583984375,-0.40203857421875,0.0514373779296875
1739919873025155600,0.282155517578125,-0.898956298828125,-0.39697265625,0.04205322265625
1739919873035137500,0.292137451171875,-0.9113311767578125,-0.388458251953125,0.02874755859375
1739919873045119500,0.302119384765625,-0.9232177734375,-0.3784942626953125,0.0225677490234375
1739919873055102500,0.3121025390625,-0.933502197265625,-0.372589111328125,0.0219268798828125
1739919873065084700,0.322084716796875,-0.9365692138671875,-0.373870849609375,0.0242919921875
1739919873075066600,0.332066650390625,-0.9320831298828125,-0.380706787109375,0.0280914306640625
1739919873085049600,0.342049560546875,-0.9311981201171875,-0.386077880859375,0.037750244140625
1739919873095031600,0.352031494140625,-0.9329986572265625,-0.396331787109375,0.0413360595703125
1739919873105014500,0.3620146484375,-0.9265594482421875,-0.3958892822265625,0.045013427734375
1739919873114996700,0.371996826171875,-0.921539306640625,-0.3955841064453125,0.0457763671875
1739919873124978400,0.381978515625,-0.9237213134765625,-0.3965911865234375,0.0403900146484375
1739919873134961700,0.391961669921875,-0.9214324951171875,-0.3952178955078125,0.04150390625
1739919873144943400,0.401943359375,-0.921630859375,-0.395294189453125,0.0439605712890625
1739919873154925600,0.411925537109375,-0.919769287109375,-0.3953094482421875,0.0448760986328125
1739919873164908500,0.421908447265625,-0.9189300537109375,-0.3948974609375,0.04522705078125
1739919873174890500,0.431890380859375,-0.9216461181640625,-0.3936767578125,0.04791259765625
1739919873184872700,0.441872802734375,-0.9240264892578125,-0.3919830322265625,0.0469818115234375
1739919873194855700,0.451855712890625,-0.925628662109375,-0.3883514404296875,0.0433349609375
1739919873204837600,0.461837646484375,-0.9197540283203125,-0.388092041015625,0.04620361328125
1739919873214819600,0.471819580078125,-0.9179534912109375,-0.3860931396484375,0.0526275634765625
1739919873224802600,0.481802490234375,-0.9206085205078125,-0.384765625,0.0509490966796875
1739919873234784500,0.491784423828125,-0.921722412109375,-0.38311767578125,0.046630859375
1739919873244767700,0.501767822265625,-0.925048828125,-0.384765625,0.0507354736328125
1739919873254749400,0.51174951171875,-0.9352569580078125,-0.38360595703125,0.052947998046875
1739919873264731600,0.521731689453125,-0.9421234130859375,-0.3829803466796875,0.0492095947265625
1739919873274714400,0.53171435546875,-0.9410400390625,-0.3827362060546875,0.0488433837890625
1739919873284696600,0.541696533203125,-0.937957763671875,-0.3839569091796875,0.04791259765625
1739919873294678800,0.5516787109375,-0.935638427734375,-0.3828887939453125,0.047210693359375
1739919873304661500,0.56166162109375,-0.9283599853515625,-0.381561279296875,0.0450286865234375
1739919873314643700,0.571643798828125,-0.9197998046875,-0.3887786865234375,0.0461578369140625
1739919873324625400,0.58162548828125,-0.9071197509765625,-0.394683837890625,0.05035400390625
1739919873334608600,0.591608642578125,-0.90216064453125,-0.395599365234375,0.0505218505859375
1739919873344590600,0.601590576171875,-0.9051361083984375,-0.3919219970703125,0.0485382080078125
1739919873354572500,0.611572509765625,-0.91436767578125,-0.38751220703125,0.04736328125
1739919873364555500,0.621555419921875,-0.92315673828125,-0.383209228515625,0.045074462890625
1739919873374537500,0.631537353515625,-0.9262237548828125,-0.37982177734375,0.0445556640625
1739919873384519700,0.641519775390625,-0.929779052734375,-0.3802032470703125,0.0514984130859375
1739919873394502700,0.651502685546875,-0.9319000244140625,-0.382232666015625,0.0616912841796875
1739919873404484000,0.661484130859375,-0.9271240234375,-0.385009765625,0.0606689453125
1739919873414466800,0.671466796875,-0.9176025390625,-0.384765625,0.05609130859375
1739919873424449000,0.681448974609375,-0.9131927490234375,-0.387237548828125,0.0569000244140625
1739919873434430700,0.6914306640625,-0.9197845458984375,-0.3914031982421875,0.06207275390625
1739919873444414000,0.7014140625,-0.92327880859375,-0.3868408203125,0.0641021728515625
1739919873454396000,0.71139599609375,-0.91937255859375,-0.3780670166015625,0.05810546875
1739919873464377900,0.7213779296875,-0.907501220703125,-0.3751678466796875,0.04974365234375
1739919873474360800,0.73136083984375,-0.9030609130859375,-0.3756561279296875,0.05059814453125
1739919873484342800,0.7413427734375,-0.9037322998046875,-0.37481689453125,0.0529327392578125
1739919873494325000,0.751324951171875,-0.909271240234375,-0.3748016357421875,0.0513153076171875
1739919873504308000,0.761307861328125,-0.913299560546875,-0.37774658203125,0.054351806640625
1739919873514290000,0.7712900390625,-0.9149322509765625,-0.3816375732421875,0.061798095703125
1739919873524273000,0.78127294921875,-0.9139404296875,-0.384124755859375,0.0605010986328125
1739919873534255000,0.791255126953125,-0.9102935791015625,-0.384033203125,0.0600128173828125
1739919873544236800,0.80123681640625,-0.909423828125,-0.38336181640625,0.0576629638671875
1739919873554220000,0.811219970703125,-0.909088134765625,-0.386383056640625,0.0559234619140625
1739919873564201700,0.82120166015625,-0.9084014892578125,-0.386993408203125,0.052398681640625
1739919873574184000,0.831183837890625,-0.9119720458984375,-0.386962890625,0.0499267578125
1739919873584167000,0.8411669921875,-0.92010498046875,-0.381011962890625,0.050201416015625
1739919873594148900,0.85114892578125,-0.9229583740234375,-0.3751068115234375,0.0477142333984375
1739919873604131000,0.861131103515625,-0.9279632568359375,-0.3661346435546875,0.039886474609375
1739919873614113800,0.87111376953125,-0.9337158203125,-0.3577423095703125,0.0374603271484375
1739919873624096000,0.881095947265625,-0.9362945556640625,-0.3599090576171875,0.0463104248046875
1739919873634078000,0.891077880859375,-0.9382171630859375,-0.3692626953125,0.0610198974609375
1739919873644061000,0.90106103515625,-0.9371185302734375,-0.379608154296875,0.0668487548828125
1739919873654043000,0.91104296875,-0.932708740234375,-0.381622314453125,0.0681915283203125
1739919873664024800,0.92102490234375,-0.9263153076171875,-0.3797149658203125,0.068572998046875
1739919873674007800,0.9310078125,-0.9255828857421875,-0.3774261474609375,0.0712432861328125
1739919873683990000,0.940989990234375,-0.9205780029296875,-0.3767852783203125,0.0741424560546875
1739919873693972700,0.95097265625,-0.912445068359375,-0.378509521484375,0.0724029541015625
1739919873703955000,0.960954833984375,-0.907745361328125,-0.3826751708984375,0.0725555419921875
1739919873713937000,0.97093701171875,-0.9016571044921875,-0.3843841552734375,0.0667266845703125
1739919873723920000,0.980919921875,-0.90576171875,-0.3828582763671875,0.0651397705078125
1739919873733902000,0.990902099609375,-0.9214935302734375,-0.3784027099609375,0.06451416015625
1739919873743883800,1.0008837890625,-0.9399566650390625,-0.3767547607421875,0.066925048828125
1739919873753867000,1.010866943359375,-0.95025634765625,-0.3753509521484375,0.064422607421875
1739919873763849000,1.020848876953125,-0.9468994140625,-0.372833251953125,0.053863525390625
1739919873773831000,1.030830810546875,-0.9398345947265625,-0.3775787353515625,0.0532073974609375
1739919873783814000,1.04081396484375,-0.9295806884765625,-0.384368896484375,0.0622406005859375
1739919873793795800,1.0507958984375,-0.911346435546875,-0.3864898681640625,0.0639190673828125
1739919873803778000,1.060778076171875,-0.8963623046875,-0.3847808837890625,0.060943603515625
1739919873813761000,1.070760986328125,-0.8910980224609375,-0.3800811767578125,0.0554962158203125
1739919873823743000,1.080742919921875,-0.89483642578125,-0.380279541015625,0.052825927734375
1739919873833726000,1.090725830078125,-0.904876708984375,-0.37969970703125,0.047882080078125
1739919873843708000,1.1007080078125,-0.90966796875,-0.3793792724609375,0.0427398681640625
1739919873853689900,1.11068994140625,-0.90899658203125,-0.3764495849609375,0.0368804931640625
1739919873863673000,1.120673095703125,-0.909881591796875,-0.3727264404296875,0.0331573486328125
1739919873873654800,1.13065478515625,-0.91595458984375,-0.369293212890625,0.0437469482421875
1739919873883637000,1.140636962890625,-0.922271728515625,-0.3701171875,0.0508270263671875
1739919873893620000,1.150619873046875,-0.9175262451171875,-0.3702545166015625,0.0519561767578125
1739919873903602000,1.160601806640625,-0.9112396240234375,-0.3761444091796875,0.0554656982421875
1739919873913583900,1.170583984375,-0.91131591796875,-0.3859100341796875,0.054443359375
1739919873923566800,1.18056689453125,-0.907623291015625,-0.384735107421875,0.0520477294921875
1739919873933548800,1.190548828125,-0.902923583984375,-0.384735107421875,0.045196533203125
1739919873943531000,1.200531005859375,-0.9016571044921875,-0.3828887939453125,0.0479583740234375
1739919873953514000,1.210513916015625,-0.907867431640625,-0.3841552734375,0.0587921142578125
1739919873963496000,1.220495849609375,-0.911224365234375,-0.3863067626953125,0.0599517822265625
1739919873973479000,1.23047900390625,-0.9109649658203125,-0.386993408203125,0.064422607421875
1739919873983460900,1.2404609375,-0.9130096435546875,-0.3924713134765625,0.0627288818359375
1739919873993443000,1.250443115234375,-0.909576416015625,-0.39666748046875,0.063934326171875
1739919874003425800,1.26042578125,-0.911346435546875,-0.398345947265625,0.058807373046875
1739919874013408000,1.270407958984375,-0.9219818115234375,-0.396453857421875,0.0543975830078125
1739919874023389700,1.2803896484375,-0.927215576171875,-0.39227294921875,0.0606536865234375
1739919874033373000,1.290373046875,-0.929931640625,-0.3953094482421875,0.060882568359375
1739919874043355000,1.30035498046875,-0.9251861572265625,-0.3982696533203125,0.0597686767578125
1739919874053336800,1.3103369140625,-0.91741943359375,-0.3923187255859375,0.055999755859375
1739919874063319800,1.32031982421875,-0.900482177734375,-0.3873748779296875,0.0537109375
1739919874073302000,1.330302001953125,-0.89044189453125,-0.39141845703125,0.0438995361328125
1739919874083284000,1.340283935546875,-0.889984130859375,-0.3924102783203125,0.056121826171875
1739919874093267000,1.350266845703125,-0.914337158203125,-0.4000244140625,0.0891876220703125
1739919874103249000,1.360248779296875,-0.90411376953125,-0.412353515625,0.055511474609375
1739919874113232000,1.37023193359375,-0.8951873779296875,-0.3979949951171875,0.053558349609375
1739919874123214000,1.380214111328125,-0.9078521728515625,-0.4046478271484375,0.0700225830078125
1739919874133195800,1.39019580078125,-0.91790771484375,-0.4097900390625,0.0740203857421875
1739919874143179000,1.400178955078125,-0.908843994140625,-0.4087371826171875,0.0813446044921875
1739919874153160700,1.41016064453125,-0.8935089111328125,-0.418548583984375,0.0868988037109375
1739919874163143000,1.420142822265625,-0.881011962890625,-0.420379638671875,0.0821380615234375
1739919874173126000,1.4301259765625,-0.8751220703125,-0.4201202392578125,0.08575439453125
1739919874183107800,1.44010791015625,-0.8719482421875,-0.426025390625,0.09320068359375
1739919874193090000,1.450090087890625,-0.86572265625,-0.421142578125,0.09429931640625
1739919874203073000,1.460072998046875,-0.8688507080078125,-0.4226226806640625,0.1005706787109375
1739919874213055000,1.470054931640625,-0.877197265625,-0.4243927001953125,0.1121826171875
1739919874223037000,1.480036865234375,-0.8825836181640625,-0.4230804443359375,0.1223907470703125
1739919874233020000,1.49002001953125,-0.882110595703125,-0.4212493896484375,0.119781494140625
1739919874243001900,1.500001953125,-0.8855438232421875,-0.422607421875,0.113372802734375
1739919874252985000,1.509985107421875,-0.8952789306640625,-0.4205780029296875,0.1179656982421875
1739919874262966800,1.519966796875,-0.9111328125,-0.4212188720703125,0.1160888671875
1739919874272949000,1.529948974609375,-0.925384521484375,-0.4230499267578125,0.1173248291015625
1739919874282931700,1.539931640625,-0.9341888427734375,-0.4229888916015625,0.1116180419921875
1739919874292914000,1.549913818359375,-0.933929443359375,-0.42547607421875,0.105133056640625
1739919874302896000,1.559896240234375,-0.9285430908203125,-0.4294891357421875,0.1086883544921875
1739919874312878800,1.56987890625,-0.9292144775390625,-0.4363250732421875,0.1339263916015625
1739919874322861000,1.579861083984375,-0.922393798828125,-0.4404449462890625,0.149261474609375
1739919874332842800,1.5898427734375,-0.8987579345703125,-0.4368743896484375,0.1515350341796875
1739919874342826000,1.599825927734375,-0.8739471435546875,-0.432830810546875,0.1513214111328125
1739919874352808000,1.609807861328125,-0.853973388671875,-0.425262451171875,0.150390625
1739919874362790000,1.619789794921875,-0.825531005859375,-0.4063568115234375,0.1410980224609375
1739919874372772900,1.62977294921875,-0.791839599609375,-0.3868408203125,0.1384735107421875
1739919874382754800,1.6397548828125,-0.7650909423828125,-0.3706512451171875,0.1441192626953125
1739919874392737800,1.64973779296875,-0.7282867431640625,-0.3639068603515625,0.153564453125
1739919874402720800,1.659720703125,-0.6751556396484375,-0.3702392578125,0.1611328125
1739919874412702700,1.66970263671875,-0.6173553466796875,-0.3766937255859375,0.160430908203125
1739919874422685700,1.679685791015625,-0.572723388671875,-0.3691864013671875,0.1681976318359375
1739919874432667600,1.689667724609375,-0.564300537109375,-0.36297607421875,0.18206787109375
1739919874442649600,1.699649658203125,-0.5724334716796875,-0.361358642578125,0.188812255859375
1739919874452632600,1.709632568359375,-0.5937652587890625,-0.3522186279296875,0.207427978515625
1739919874462614800,1.71961474609375,-0.6184539794921875,-0.3345184326171875,0.209442138671875
1739919874472596700,1.7295966796875,-0.6343536376953125,-0.3120880126953125,0.199951171875
1739919874482579700,1.739579833984375,-0.641448974609375,-0.29071044921875,0.1914825439453125
1739919874492562000,1.74956201171875,-0.6306915283203125,-0.2765045166015625,0.1915130615234375
1739919874502543600,1.759543701171875,-0.6144256591796875,-0.277313232421875,0.2147064208984375
1739919874512526800,1.76952685546875,-0.5695953369140625,-0.2847137451171875,0.23822021484375
1739919874522508500,1.779508544921875,-0.496978759765625,-0.28125,0.2680206298828125
1739919874532491800,1.78949169921875,-0.5732574462890625,-0.2600860595703125,0.248870849609375
1739919874542473700,1.7994736328125,-0.597900390625,-0.268768310546875,0.2438201904296875
1739919874552455700,1.80945556640625,-0.59039306640625,-0.25225830078125,0.2537689208984375
1739919874562438700,1.819438720703125,-0.595184326171875,-0.212677001953125,0.2581939697265625
1739919874572420600,1.829420654296875,-0.6262359619140625,-0.203643798828125,0.269927978515625
1739919874582402800,1.83940283203125,-0.6532135009765625,-0.2221527099609375,0.3048858642578125
1739919874592385800,1.8493857421875,-0.6448974609375,-0.216644287109375,0.3241119384765625
1739919874602367700,1.85936767578125,-0.6389923095703125,-0.1975555419921875,0.34466552734375
1739919874612349700,1.869349609375,-0.6549835205078125,-0.17877197265625,0.357025146484375
1739919874622333000,1.8793330078125,-0.6656951904296875,-0.1543426513671875,0.3681793212890625
1739919874632314600,1.889314697265625,-0.67120361328125,-0.1274871826171875,0.3619842529296875
1739919874642296800,1.899296875,-0.6713104248046875,-0.10455322265625,0.3512115478515625
1739919874652279600,1.909279541015625,-0.65704345703125,-0.0873870849609375,0.350006103515625
1739919874662261800,1.91926171875,-0.6313323974609375,-0.078369140625,0.3734283447265625
1739919874672244700,1.92924462890625,-0.59759521484375,-0.073577880859375,0.4009246826171875
1739919874682226700,1.939226806640625,-0.551513671875,-0.0576629638671875,0.41876220703125
1739919874692208600,1.949208740234375,-0.5082855224609375,-0.0348052978515625,0.449554443359375
1739919874702191600,1.959191650390625,-0.484893798828125,-0.0095977783203125,0.485992431640625
1739919874712173800,1.969173828125,-0.467529296875,0.0348052978515625,0.504364013671875
1739919874722155800,1.97915576171875,-0.4512176513671875,0.08197021484375,0.513153076171875
1739919874732138800,1.989138671875,-0.4501953125,0.1094512939453125,0.518035888671875
1739919874742120700,1.99912060546875,-0.46881103515625,0.115386962890625,0.529052734375
1739919874752102700,2.0091025390625,-0.484832763671875,0.146697998046875,0.5529022216796875
1739919874762085600,2.019085693359375,-0.4927520751953125,0.158233642578125,0.6200103759765625
1739919874772067800,2.02906787109375,-0.4832305908203125,0.15118408203125,0.69671630859375
1739919874782049500,2.039049560546875,-0.4624786376953125,0.1625213623046875,0.781951904296875
1739919874792032800,2.04903271484375,-0.4486541748046875,0.183258056640625,0.87274169921875
1739919874802014700,2.0590146484375,-0.4267425537109375,0.21307373046875,0.902923583984375
1739919874811997700,2.068997802734375,-0.40045166015625,0.25897216796875,0.9131011962890625
1739919874821979600,2.078979736328125,-0.3707733154296875,0.334381103515625,0.93511962890625
1739919874831961600,2.088961669921875,-0.3576507568359375,0.3979034423828125,0.941192626953125
1739919874841944600,2.098944580078125,-0.393463134765625,0.4340057373046875,0.957672119140625
1739919874851926800,2.1089267578125,-0.4381866455078125,0.4493865966796875,0.998016357421875
1739919874861908700,2.11890869140625,-0.434600830078125,0.4751434326171875,1.0485382080078125
1739919874871891700,2.1288916015625,-0.4016571044921875,0.504302978515625,1.12286376953125
1739919874881873700,2.138873779296875,-0.3469696044921875,0.537689208984375,1.1707611083984375
1739919874891855600,2.148855712890625,-0.289520263671875,0.5709228515625,1.2093963623046875
1739919874901838800,2.1588388671875,-0.26287841796875,0.5991058349609375,1.24896240234375
1739919874911820500,2.168820556640625,-0.2606964111328125,0.6263275146484375,1.315826416015625
1739919874921803800,2.1788037109375,-0.2850494384765625,0.6622161865234375,1.413726806640625
1739919874931785700,2.18878564453125,-0.335235595703125,0.702301025390625,1.515960693359375
1739919874941767700,2.198767578125,-0.40509033203125,0.727264404296875,1.5782012939453125
1739919874951750700,2.208750732421875,-0.467376708984375,0.7288360595703125,1.602752685546875
1739919874961732600,2.218732666015625,-0.508209228515625,0.7112884521484375,1.6272430419921875
1739919874971714800,2.22871484375,-0.5464019775390625,0.674560546875,1.6776580810546875
1739919874981697800,2.23869775390625,-0.575897216796875,0.6407012939453125,1.7306671142578125
1739919874991679700,2.2486796875,-0.5837249755859375,0.601715087890625,1.7790069580078125
1739919875001661700,2.25866162109375,-0.5615692138671875,0.544891357421875,1.7947998046875
1739919875011644700,2.268644775390625,-0.5169525146484375,0.4863739013671875,1.76788330078125
1739919875021626600,2.278626708984375,-0.466461181640625,0.424163818359375,1.71539306640625
1739919875031609900,2.28860986328125,-0.407470703125,0.407257080078125,1.6843109130859375
1739919875041591600,2.298591552734375,-0.3639373779296875,0.3641510009765625,1.639373779296875
1739919875051573800,2.30857373046875,-0.33270263671875,0.313873291015625,1.58856201171875
1739919875061556700,2.318556640625,-0.30120849609375,0.294158935546875,1.5595245361328125
1739919875071538700,2.32853857421875,-0.2584228515625,0.3107757568359375,1.5659332275390625
1739919875081521000,2.33852099609375,-0.219146728515625,0.330474853515625,1.590911865234375
1739919875091503600,2.348503662109375,-0.177215576171875,0.3402099609375,1.6131134033203125
1739919875101485800,2.35848583984375,-0.1220703125,0.3374786376953125,1.603485107421875
1739919875111467500,2.368467529296875,-0.06915283203125,0.322906494140625,1.567535400390625
1739919875121450800,2.37845068359375,-0.0068206787109375,0.313812255859375,1.5185546875
1739919875131432700,2.3884326171875,0.0408172607421875,0.296905517578125,1.41650390625
1739919875141414700,2.39841455078125,0.0587310791015625,0.2693023681640625,1.288604736328125
1739919875151397600,2.408397705078125,0.051605224609375,0.237335205078125,1.2036285400390625
1739919875161379800,2.4183798828125,0.02392578125,0.200592041015625,1.155731201171875
1739919875171362600,2.428362548828125,-0.0246429443359375,0.164459228515625,1.152252197265625
1739919875181344800,2.4383447265625,-0.0798187255859375,0.12548828125,1.209014892578125
1739919875191326700,2.44832666015625,-0.1153717041015625,0.08135986328125,1.2829132080078125
1739919875201309700,2.458309814453125,-0.1366119384765625,0.027679443359375,1.333099365234375
1739919875211292000,2.4682919921875,-0.152740478515625,-0.0244598388671875,1.3789520263671875
1739919875221273600,2.478273681640625,-0.1645050048828125,-0.0595245361328125,1.4120941162109375
1739919875231256800,2.4882568359375,-0.1607208251953125,-0.0638580322265625,1.411468505859375
1739919875241238500,2.498238525390625,-0.14752197265625,-0.04351806640625,1.400909423828125
1739919875251220700,2.508220703125,-0.1289520263671875,0.0007171630859375,1.4067230224609375
1739919875261203700,2.51820361328125,-0.1011199951171875,0.0620574951171875,1.4199676513671875
1739919875271185700,2.528185546875,-0.0675811767578125,0.13079833984375,1.428131103515625
1739919875281168600,2.538168701171875,-0.0366973876953125,0.1997528076171875,1.4469146728515625
1739919875291150800,2.54815087890625,-0.02783203125,0.2634735107421875,1.4876251220703125
1739919875301132800,2.5581328125,-0.0267333984375,0.3128814697265625,1.5025177001953125
1739919875311115800,2.56811572265625,-0.0378265380859375,0.3403472900390625,1.5062103271484375
1739919875321097700,2.57809765625,-0.04901123046875,0.352508544921875,1.4928741455078125
1739919875331079700,2.58807958984375,-0.05218505859375,0.3531646728515625,1.4493560791015625
1739919875341063000,2.59806298828125,-0.04840087890625,0.35955810546875,1.393157958984375
1739919875351044600,2.608044677734375,-0.023162841796875,0.377716064453125,1.32916259765625
1739919875361026800,2.61802685546875,0.0123748779296875,0.403533935546875,1.2667236328125
1739919875371009800,2.628009765625,0.04345703125,0.43023681640625,1.21099853515625
1739919875380991700,2.63799169921875,0.061920166015625,0.4523162841796875,1.1560211181640625
1739919875390974700,2.647974609375,0.0708770751953125,0.468963623046875,1.105499267578125
1739919875400956000,2.657955810546875,0.0740966796875,0.4791259765625,1.0747222900390625
1739919875410938000,2.667938232421875,0.0929412841796875,0.4840850830078125,1.0673980712890625
1739919875420920800,2.6779208984375,0.128509521484375,0.4944610595703125,1.091278076171875
1739919875430903000,2.687903076171875,0.17718505859375,0.520599365234375,1.1263275146484375
1739919875440884700,2.697884765625,0.213653564453125,0.549774169921875,1.144561767578125
1739919875450868000,2.707867919921875,0.2308197021484375,0.5731201171875,1.139862060546875
1739919875460850000,2.717849853515625,0.2388153076171875,0.5736083984375,1.11578369140625
1739919875470831900,2.727831787109375,0.2386627197265625,0.5455322265625,1.0859375
1739919875480814800,2.73781494140625,0.2398834228515625,0.510040283203125,1.0743255615234375
1739919875490796800,2.747796875,0.2416229248046875,0.4965362548828125,1.0881805419921875
1739919875500779800,2.75777978515625,0.230926513671875,0.4882659912109375,1.09796142578125
1739919875510762000,2.767761962890625,0.1998443603515625,0.4701385498046875,1.0968475341796875
1739919875520744000,2.777743896484375,0.1572265625,0.447052001953125,1.0847625732421875
1739919875530727000,2.787726806640625,0.1234893798828125,0.423980712890625,1.0961456298828125
1739919875540709000,2.797709228515625,0.118316650390625,0.4122314453125,1.111724853515625
1739919875550690800,2.80769091796875,0.1453094482421875,0.410308837890625,1.1288909912109375
1739919875560674000,2.817674072265625,0.1965484619140625,0.4192352294921875,1.1612548828125
1739919875570655700,2.82765576171875,0.247802734375,0.4361114501953125,1.1959991455078125
1739919875580638000,2.837637939453125,0.2949066162109375,0.4514007568359375,1.2082366943359375
1739919875590621000,2.847620849609375,0.3151702880859375,0.45367431640625,1.1930694580078125
1739919875600603000,2.857602783203125,0.303192138671875,0.449188232421875,1.1774139404296875
1739919875610585900,2.8675859375,0.2622222900390625,0.44293212890625,1.1718292236328125
1739919875620568000,2.877568115234375,0.2173309326171875,0.4550628662109375,1.19134521484375
1739919875630550000,2.887550048828125,0.1807098388671875,0.49688720703125,1.240234375
1739919875640533000,2.897532958984375,0.1451416015625,0.5401611328125,1.3005828857421875
1739919875650515000,2.907514892578125,0.1255645751953125,0.5705718994140625,1.3535919189453125
1739919875660497000,2.917496826171875,0.123443603515625,0.59130859375,1.337005615234375
1739919875670480100,2.927480224609375,0.117706298828125,0.5937042236328125,1.2524261474609375
1739919875680461800,2.9374619140625,0.0945892333984375,0.575164794921875,1.147796630859375
1739919875690445000,2.947445068359375,0.061370849609375,0.5645904541015625,1.0440826416015625
1739919875700426800,2.9574267578125,0.029144287109375,0.5515594482421875,0.9571685791015625
1739919875710409000,2.967408935546875,-0.0028228759765625,0.529876708984375,0.88751220703125
1739919875720392000,2.977391845703125,-0.034637451171875,0.4987030029296875,0.8371124267578125
1739919875730374000,2.987373779296875,-0.06292724609375,0.466339111328125,0.8003082275390625
1739919875740356000,2.997356201171875,-0.084869384765625,0.43463134765625,0.7818756103515625
1739919875750339000,3.007339111328125,-0.094970703125,0.404052734375,0.7765655517578125
1739919875760321000,3.017321044921875,-0.0918121337890625,0.380615234375,0.773468017578125
1739919875770303000,3.027302978515625,-0.08544921875,0.3722991943359375,0.777099609375
1739919875780286000,3.037285888671875,-0.0773773193359375,0.375244140625,0.7867584228515625
1739919875790268000,3.047267822265625,-0.067779541015625,0.3889923095703125,0.7996826171875
1739919875800251000,3.0572509765625,-0.0605316162109375,0.401580810546875,0.8079681396484375
1739919875810232800,3.06723291015625,-0.0590667724609375,0.4072113037109375,0.8011016845703125
1739919875820215000,3.077215087890625,-0.06207275390625,0.4092559814453125,0.771759033203125
1739919875830197800,3.08719775390625,-0.0608367919921875,0.41143798828125,0.7287445068359375
1739919875840180000,3.097179931640625,-0.065093994140625,0.4135589599609375,0.68792724609375
1739919875850162000,3.107161865234375,-0.07196044921875,0.404632568359375,0.6392364501953125
1739919875860145000,3.117144775390625,-0.074951171875,0.3850555419921875,0.5858917236328125
1739919875870126800,3.127126953125,-0.0653228759765625,0.364959716796875,0.5312652587890625
1739919875880108800,3.13710888671875,-0.0507965087890625,0.3440704345703125,0.47857666015625
1739919875890091800,3.147091796875,-0.0371856689453125,0.3236541748046875,0.433837890625
1739919875900074000,3.157073974609375,-0.0273284912109375,0.3026123046875,0.395355224609375
1739919875910056700,3.167056640625,-0.01251220703125,0.2852630615234375,0.3680419921875
1739919875920039000,3.177038818359375,-0.003021240234375,0.2700347900390625,0.34735107421875
1739919875930020900,3.187020751953125,-0.0010833740234375,0.255279541015625,0.3377227783203125
1739919875940003800,3.19700390625,0.0036468505859375,0.240447998046875,0.334930419921875
1739919875949986000,3.206986083984375,0.0293731689453125,0.23114013671875,0.3323211669921875
1739919875959967700,3.2169677734375,0.0815582275390625,0.251434326171875,0.33319091796875
1739919875969951000,3.226950927734375,0.1410980224609375,0.296844482421875,0.3252105712890625
1739919875979933000,3.236932861328125,0.1838531494140625,0.3389129638671875,0.2880859375
1739919875989915000,3.246914794921875,0.2109375,0.370330810546875,0.2502899169921875
1739919875999897900,3.25689794921875,0.222259521484375,0.400482177734375,0.216766357421875
1739919876009879800,3.2668798828125,0.228302001953125,0.4187774658203125,0.194091796875
1739919876019862800,3.27686279296875,0.232208251953125,0.4331817626953125,0.2171783447265625
1739919876029845000,3.286844970703125,0.2268218994140625,0.4627685546875,0.3038482666015625
1739919876039827000,3.296826904296875,0.2041015625,0.4990997314453125,0.4577178955078125
1739919876049810000,3.306809814453125,0.1818084716796875,0.5369110107421875,0.6497955322265625
1739919876059792000,3.3167919921875,0.159393310546875,0.58319091796875,0.8417510986328125
1739919876069773800,3.32677392578125,0.1297149658203125,0.6311187744140625,1.0225982666015625
1739919876079757000,3.336757080078125,0.0986480712890625,0.671905517578125,1.16168212890625
1739919876089738800,3.34673876953125,0.07366943359375,0.705902099609375,1.2723846435546875
1739919876099722000,3.356721923828125,0.0612945556640625,0.7404327392578125,1.3738250732421875
1739919876109704000,3.366703857421875,0.0657501220703125,0.783782958984375,1.4581451416015625
1739919876119686000,3.376685791015625,0.0845947265625,0.828460693359375,1.545806884765625
1739919876129668900,3.3866689453125,0.110504150390625,0.8901519775390625,1.636871337890625
1739919876139650800,3.39665087890625,0.1103057861328125,0.9365386962890625,1.72222900390625
1739919876149633000,3.406633056640625,0.1001739501953125,0.9600982666015625,1.8116302490234375
1739919876159616000,3.416615966796875,0.0915069580078125,0.9517822265625,1.8850555419921875
1739919876169598000,3.426597900390625,0.0790863037109375,0.9202117919921875,1.9531402587890625
1739919876179580000,3.436579833984375,0.092254638671875,0.89404296875,2.03643798828125
1739919876189563100,3.446563232421875,0.1221771240234375,0.8869476318359375,2.1438140869140625
1739919876199544800,3.456544921875,0.1466064453125,0.8818359375,2.24957275390625
1739919876209528000,3.466528076171875,0.1638641357421875,0.83770751953125,2.31842041015625
1739919876219509800,3.476509765625,0.1913604736328125,0.7408905029296875,2.316253662109375
1739919876229492000,3.486491943359375,0.2303009033203125,0.6126708984375,2.2580108642578125
1739919876239475000,3.496474853515625,0.2780303955078125,0.492156982421875,2.168365478515625
1739919876249457000,3.506456787109375,0.3125,0.3681182861328125,2.03521728515625
1739919876259439000,3.516439208984375,0.336669921875,0.239044189453125,1.857147216796875
1739919876269421800,3.526421875,0.361541748046875,0.1383514404296875,1.697021484375
1739919876279404000,3.536404052734375,0.3598175048828125,0.089569091796875,1.5948638916015625
1739919876289387000,3.546386962890625,0.3388519287109375,0.073638916015625,1.5064239501953125
1739919876299369000,3.556368896484375,0.340972900390625,0.08294677734375,1.43829345703125
1739919876309351000,3.566350830078125,0.33990478515625,0.1258544921875,1.3922271728515625
1739919876319334100,3.576334228515625,0.33111572265625,0.178802490234375,1.361328125
1739919876329315800,3.58631591796875,0.3182373046875,0.22406005859375,1.341033935546875
1739919876339298000,3.596298095703125,0.315948486328125,0.260223388671875,1.33380126953125
1739919876349280800,3.60628076171875,0.31829833984375,0.2867279052734375,1.3258819580078125
1739919876359263000,3.616262939453125,0.310150146484375,0.306396484375,1.314361572265625
1739919876369245000,3.626244873046875,0.28759765625,0.313232421875,1.299591064453125
1739919876379228000,3.636227783203125,0.26123046875,0.3050994873046875,1.275054931640625
1739919876389210000,3.646210205078125,0.222503662109375,0.278350830078125,1.2262725830078125
1739919876399192800,3.65619287109375,0.183013916015625,0.2423858642578125,1.1849212646484375
1739919876409175000,3.666175048828125,0.1434478759765625,0.209136962890625,1.152496337890625
1739919876419157200,3.6761572265625,0.1064910888671875,0.175567626953125,1.11444091796875
1739919876429140000,3.686139892578125,0.0806884765625,0.14208984375,1.0809783935546875
1739919876439122200,3.6961220703125,0.0569610595703125,0.1275787353515625,1.05743408203125
1739919876449104100,3.706104248046875,0.0454254150390625,0.1296539306640625,1.04449462890625
1739919876459087000,3.716087158203125,0.039215087890625,0.1434783935546875,1.0321197509765625
1739919876469069300,3.7260693359375,0.0411529541015625,0.1578369140625,1.01409912109375
1739919876479052000,3.736052001953125,0.0520172119140625,0.177642822265625,0.992279052734375
1739919876489034200,3.7460341796875,0.064483642578125,0.21099853515625,0.966400146484375
1739919876499016200,3.75601611328125,0.088409423828125,0.2481689453125,0.95037841796875
1739919876508999200,3.765999267578125,0.113037109375,0.287109375,0.94195556640625
1739919876518981000,3.775981201171875,0.1278839111328125,0.3282012939453125,0.93914794921875
1739919876528963000,3.785963134765625,0.1328277587890625,0.3710479736328125,0.946258544921875
1739919876538946000,3.795946044921875,0.1364288330078125,0.408660888671875,0.973480224609375
1739919876548929300,3.80592919921875,0.1578369140625,0.4416351318359375,1.015533447265625
1739919876558911000,3.815910888671875,0.183807373046875,0.4678955078125,1.050689697265625
1739919876568894200,3.825894287109375,0.204254150390625,0.4891510009765625,1.081329345703125
1739919876578876200,3.835876220703125,0.206756591796875,0.513458251953125,1.1145172119140625
1739919876588858000,3.845858154296875,0.1908111572265625,0.54632568359375,1.140838623046875
1739919876598841000,3.855841064453125,0.1730194091796875,0.5793304443359375,1.1640167236328125
1739919876608823000,3.865822998046875,0.1627960205078125,0.6121368408203125,1.184173583984375
1739919876618805200,3.87580517578125,0.158477783203125,0.6316070556640625,1.1889495849609375
1739919876628788200,3.885788330078125,0.1605072021484375,0.636322021484375,1.1762847900390625
1739919876638770200,3.895770263671875,0.1729583740234375,0.646453857421875,1.163177490234375
1739919876648752000,3.905752197265625,0.1934661865234375,0.6689300537109375,1.14813232421875
1739919876658735400,3.9157353515625,0.208221435546875,0.6975555419921875,1.1364898681640625
1739919876668717000,3.925717041015625,0.207122802734375,0.7288818359375,1.1397552490234375
1739919876678700300,3.9357001953125,0.1976318359375,0.7599029541015625,1.1482391357421875
1739919876688682000,3.945681884765625,0.176239013671875,0.776519775390625,1.149444580078125
1739919876698664200,3.955664306640625,0.1551513671875,0.7764434814453125,1.1458587646484375
1739919876708647200,3.965647216796875,0.1502227783203125,0.7799072265625,1.1474761962890625
1739919876718629000,3.975629150390625,0.16607666015625,0.808074951171875,1.1503448486328125
1739919876728611300,3.985611328125,0.183319091796875,0.8509521484375,1.1397247314453125
1739919876738594000,3.995593994140625,0.182220458984375,0.87030029296875,1.087066650390625
1739919876748576300,4.005576171875,0.1617279052734375,0.8504486083984375,0.9880523681640625
1739919876758559200,4.015559326171875,0.1318511962890625,0.8203582763671875,0.89117431640625
1739919876768541200,4.025541259765625,0.098785400390625,0.7936859130859375,0.8039398193359375
1739919876778523100,4.035523193359375,0.0628509521484375,0.7612457275390625,0.7218170166015625
1739919876788506400,4.04550634765625,0.022918701171875,0.723480224609375,0.66131591796875
1739919876798488000,4.055488037109375,-0.015869140625,0.688568115234375,0.63592529296875
1739919876808470300,4.06547021484375,-0.0559539794921875,0.65533447265625,0.643829345703125
1739919876818453000,4.075452880859375,-0.084197998046875,0.623016357421875,0.706298828125
1739919876828435200,4.085435302734375,-0.079498291015625,0.603851318359375,0.8048095703125
1739919876838418200,4.095418212890625,-0.043731689453125,0.608673095703125,0.904327392578125
1739919876848400100,4.105400146484375,0.00341796875,0.628753662109375,0.981719970703125
1739919876858382300,4.11538232421875,0.0430450439453125,0.6480865478515625,1.033905029296875
1739919876868365000,4.125364990234375,0.0750579833984375,0.65264892578125,1.04736328125
1739919876878347300,4.13534716796875,0.097869873046875,0.6393585205078125,1.0265045166015625
1739919876888329200,4.1453291015625,0.11566162109375,0.6309967041015625,0.985504150390625
1739919876898312200,4.155312255859375,0.140106201171875,0.63629150390625,0.9241943359375
1739919876908294100,4.165294189453125,0.15753173828125,0.629638671875,0.82183837890625
1739919876918277400,4.17527734375,0.1633758544921875,0.603546142578125,0.702056884765625
1739919876928259000,4.185259033203125,0.16156005859375,0.5712127685546875,0.5914459228515625
1739919876938241300,4.1952412109375,0.1594085693359375,0.539031982421875,0.49151611328125
1739919876948223200,4.20522314453125,0.154876708984375,0.5119476318359375,0.4073333740234375
1739919876958206200,4.215206298828125,0.149871826171875,0.49005126953125,0.3287506103515625
1739919876968188200,4.225188232421875,0.1439208984375,0.4754791259765625,0.2662200927734375
1739919876978171100,4.235171142578125,0.1287078857421875,0.46099853515625,0.2284088134765625
1739919876988153300,4.2451533203125,0.099212646484375,0.4470672607421875,0.21820068359375
1739919876998135000,4.255135009765625,0.0675811767578125,0.4354095458984375,0.2504730224609375
1739919877008118300,4.2651181640625,0.05511474609375,0.4219818115234375,0.3206024169921875
1739919877018100200,4.275100341796875,0.0613861083984375,0.3998565673828125,0.3932037353515625
1739919877028082200,4.285082275390625,0.0824737548828125,0.3799896240234375,0.4734954833984375
1739919877038065200,4.295065185546875,0.1026153564453125,0.3722686767578125,0.556976318359375
1739919877048047000,4.305047119140625,0.111297607421875,0.3717193603515625,0.637939453125
1739919877058030000,4.315030029296875,0.117645263671875,0.372406005859375,0.706573486328125
1739919877068012300,4.32501220703125,0.1240386962890625,0.373199462890625,0.760284423828125
1739919877077994000,4.334993896484375,0.127166748046875,0.3818206787109375,0.8148040771484375
1739919877087977200,4.344977294921875,0.13177490234375,0.3975372314453125,0.8619384765625
1739919877097959200,4.354959228515625,0.1460113525390625,0.4159393310546875,0.910919189453125
1739919877107941000,4.364941162109375,0.1633758544921875,0.4488983154296875,0.9879150390625
1739919877117924000,4.374924072265625,0.186737060546875,0.4956512451171875,1.0868377685546875
1739919877127906000,4.384906005859375,0.2085723876953125,0.534576416015625,1.16595458984375
1739919877137889000,4.394888916015625,0.2287750244140625,0.55609130859375,1.2039031982421875
1739919877147871200,4.404871337890625,0.234344482421875,0.5626068115234375,1.2205352783203125
1739919877157853200,4.414853271484375,0.2380218505859375,0.559844970703125,1.2466583251953125
1739919877167836200,4.424836181640625,0.2432098388671875,0.548126220703125,1.27325439453125
1739919877177818000,4.434818115234375,0.245513916015625,0.5522308349609375,1.3095855712890625
1739919877187800000,4.444800048828125,0.2318115234375,0.572723388671875,1.3653564453125
1739919877197783300,4.454783203125,0.207855224609375,0.586395263671875,1.445098876953125
1739919877207765000,4.464764892578125,0.1985321044921875,0.5859527587890625,1.5224761962890625
1739919877217748200,4.474748291015625,0.212127685546875,0.589111328125,1.593231201171875
1739919877227730200,4.484730224609375,0.2195892333984375,0.5920257568359375,1.67645263671875
1739919877237712100,4.494712158203125,0.2259368896484375,0.6100921630859375,1.7752838134765625
1739919877247695000,4.504695068359375,0.2337493896484375,0.6459197998046875,1.8860015869140625
1739919877257677000,4.514677001953125,0.225982666015625,0.6648101806640625,2.0029296875
1739919877267659300,4.5246591796875,0.1949005126953125,0.6327972412109375,2.0607147216796875
1739919877277642200,4.534642333984375,0.1594085693359375,0.5421600341796875,2.04180908203125
1739919877287624200,4.544624267578125,0.1248779296875,0.421539306640625,1.9745025634765625
1739919877297607200,4.554607177734375,0.0992889404296875,0.2978363037109375,1.8843841552734375
1739919877307589000,4.564589111328125,0.0853729248046875,0.170196533203125,1.7775726318359375
1739919877317571000,4.574571044921875,0.0843963623046875,0.0612335205078125,1.69622802734375
1739919877327554300,4.58455419921875,0.1042633056640625,-0.008270263671875,1.66900634765625
1739919877337536000,4.594535888671875,0.1482696533203125,-0.019073486328125,1.694854736328125
1739919877347518200,4.604518310546875,0.202728271484375,0.022430419921875,1.7434844970703125
1739919877357501200,4.614501220703125,0.2560882568359375,0.0969696044921875,1.7740936279296875
1739919877367483100,4.624483154296875,0.298919677734375,0.1848907470703125,1.759490966796875
1739919877377466000,4.634466064453125,0.3242645263671875,0.283599853515625,1.71759033203125
1739919877387448000,4.644447998046875,0.33111572265625,0.372528076171875,1.656707763671875
1739919877397430300,4.65443017578125,0.3322906494140625,0.4498748779296875,1.5856475830078125
1739919877407413000,4.6644130859375,0.3316650390625,0.5224761962890625,1.5222320556640625
1739919877417395200,4.674395263671875,0.32342529296875,0.5883941650390625,1.4813690185546875
1739919877427378200,4.684378173828125,0.3116455078125,0.6427154541015625,1.4597930908203125
1739919877437360000,4.694360107421875,0.2982940673828125,0.678955078125,1.4426422119140625
1739919877447342000,4.704342041015625,0.27655029296875,0.67987060546875,1.39544677734375
1739919877457325000,4.714324951171875,0.248138427734375,0.65399169921875,1.3525848388671875
1739919877467307000,4.72430712890625,0.2239532470703125,0.619049072265625,1.311309814453125
1739919877477289200,4.734289306640625,0.2057037353515625,0.585052490234375,1.2687225341796875
1739919877487272000,4.74427197265625,0.1886749267578125,0.5606842041015625,1.238433837890625
1739919877497254100,4.754254150390625,0.1748199462890625,0.538299560546875,1.217803955078125
1739919877507237000,4.764237060546875,0.1697998046875,0.52117919921875,1.2093048095703125
1739919877517219000,4.774218994140625,0.174652099609375,0.5100250244140625,1.2086029052734375
1739919877527201300,4.784201171875,0.1888885498046875,0.5128173828125,1.204315185546875
1739919877537184000,4.79418408203125,0.2057037353515625,0.5255584716796875,1.20233154296875
1739919877547166200,4.804166259765625,0.219757080078125,0.5379486083984375,1.20208740234375
1739919877557148000,4.81414794921875,0.2364654541015625,0.55169677734375,1.20318603515625
1739919877567131100,4.824131103515625,0.2557830810546875,0.5711822509765625,1.2014312744140625
1739919877577113000,4.834113037109375,0.2754058837890625,0.6024017333984375,1.19793701171875
1739919877587096000,4.844095947265625,0.2803497314453125,0.6391754150390625,1.1911468505859375
1739919877597078000,4.854078125,0.2679595947265625,0.659027099609375,1.1863861083984375
1739919877607060200,4.864060302734375,0.2610015869140625,0.665985107421875,1.188751220703125
1739919877617043000,4.87404296875,0.26043701171875,0.6727447509765625,1.2065277099609375
1739919877627025200,4.884025146484375,0.2610321044921875,0.676239013671875,1.232940673828125
1739919877637007000,4.894007080078125,0.264495849609375,0.673004150390625,1.2487030029296875
1739919877646990000,4.903989990234375,0.277862548828125,0.6661834716796875,1.2622833251953125
1739919877656972300,4.91397216796875,0.2907562255859375,0.6669769287109375,1.26385498046875
1739919877666955000,4.923955078125,0.301666259765625,0.681884765625,1.2479095458984375
1739919877676937200,4.933937255859375,0.301055908203125,0.71240234375,1.2220916748046875
1739919877686919000,4.9439189453125,0.2777099609375,0.743194580078125,1.1645660400390625
1739919877696902100,4.953902099609375,0.2344970703125,0.7633209228515625,1.0714569091796875
1739919877706884000,4.963884033203125,0.190765380859375,0.7713470458984375,0.977508544921875
1739919877716866000,4.973865966796875,0.150146484375,0.7683258056640625,0.899444580078125
1739919877726849000,4.98384912109375,0.1179046630859375,0.762115478515625,0.82745361328125
1739919877736831200,4.993831298828125,0.1036224365234375,0.7340850830078125,0.7469482421875
1739919877746814000,5.00381396484375,0.1112060546875,0.701171875,0.673797607421875
1739919877756796200,5.013796142578125,0.1253814697265625,0.6888885498046875,0.613311767578125
1739919877766778000,5.023778076171875,0.14007568359375,0.6832427978515625,0.5636138916015625
1739919877776761000,5.033760986328125,0.1617889404296875,0.6803131103515625,0.5110626220703125
1739919877786743000,5.043742919921875,0.1799468994140625,0.6534271240234375,0.4319305419921875
1739919877796726000,5.05372607421875,0.1825408935546875,0.6031036376953125,0.3366241455078125
1739919877806708200,5.063708251953125,0.1781005859375,0.5530548095703125,0.2470550537109375
1739919877816690000,5.07368994140625,0.16619873046875,0.504241943359375,0.17584228515625
1739919877826673200,5.083673095703125,0.1563568115234375,0.46441650390625,0.13848876953125
1739919877836655000,5.093655029296875,0.1501312255859375,0.447509765625,0.1395263671875
1739919877846637000,5.103636962890625,0.1314697265625,0.4448394775390625,0.187713623046875
1739919877856620000,5.1136201171875,0.0978240966796875,0.465057373046875,0.29266357421875
1739919877866602200,5.123602294921875,0.0512542724609375,0.5081939697265625,0.4351043701171875
1739919877876585000,5.1335849609375,0.016204833984375,0.5625457763671875,0.5745697021484375
1739919877886567200,5.143567138671875,-0.0151214599609375,0.625640869140625,0.69970703125
1739919877896548900,5.153548828125,-0.0458526611328125,0.696197509765625,0.8227691650390625
1739919877906532000,5.163531982421875,-0.080169677734375,0.751983642578125,0.905303955078125
1739919877916514000,5.17351416015625,-0.1148681640625,0.7833404541015625,0.9447021484375
1739919877926496000,5.18349609375,-0.12469482421875,0.8101654052734375,0.973236083984375
1739919877936479000,5.19347900390625,-0.1217803955078125,0.8362274169921875,0.9870452880859375
1739919877946461200,5.203461181640625,-0.1152191162109375,0.84649658203125,0.9821014404296875
1739919877956444000,5.21344384765625,-0.103759765625,0.8342437744140625,0.9684295654296875
1739919877966426000,5.223426025390625,-0.09234619140625,0.806884765625,0.95623779296875
1739919877976408000,5.233407958984375,-0.0778045654296875,0.77227783203125,0.9609222412109375
1739919877986391000,5.24339111328125,-0.0570220947265625,0.7258453369140625,0.97314453125
1739919877996373200,5.253373291015625,-0.015838623046875,0.6745452880859375,0.973419189453125
1739919878006356000,5.26335595703125,0.0302581787109375,0.6312255859375,0.980987548828125
1739919878016338200,5.273338134765625,0.0657958984375,0.60089111328125,0.9983978271484375
1739919878026320000,5.28331982421875,0.084716796875,0.5813446044921875,1.02044677734375
1739919878036303000,5.29330322265625,0.0942230224609375,0.569244384765625,1.04681396484375
1739919878046285000,5.30328515625,0.1016998291015625,0.5643768310546875,1.0768890380859375
1739919878056267000,5.31326708984375,0.1123046875,0.5640869140625,1.1004638671875
1739919878066250000,5.32325,0.137451171875,0.562835693359375,1.1247406005859375
1739919878076232200,5.333232177734375,0.168609619140625,0.5670928955078125,1.1387939453125
1739919878086215000,5.34321484375,0.2052764892578125,0.569091796875,1.1394805908203125
1739919878096197000,5.353197021484375,0.2418060302734375,0.5630340576171875,1.1369171142578125
1739919878106179000,5.363178955078125,0.26702880859375,0.552520751953125,1.143463134765625
1739919878116162000,5.373162109375,0.2923583984375,0.5487060546875,1.1668243408203125
1739919878126144300,5.383144287109375,0.3050079345703125,0.551849365234375,1.202667236328125
1739919878136127000,5.393126953125,0.31414794921875,0.5619964599609375,1.2710723876953125
1739919878146109200,5.403109130859375,0.333770751953125,0.5974578857421875,1.3539581298828125
1739919878156091000,5.4130908203125,0.3482513427734375,0.6238250732421875,1.4040985107421875
1739919878166074000,5.42307421875,0.3550872802734375,0.6216278076171875,1.4263458251953125
1739919878176056000,5.43305615234375,0.3307952880859375,0.60845947265625,1.4515228271484375
1739919878186038000,5.4430380859375,0.2823486328125,0.6222076416015625,1.4989166259765625
1739919878196021000,5.45302099609375,0.2158050537109375,0.6639862060546875,1.5696258544921875
1739919878206003200,5.463003173828125,0.1402435302734375,0.7215423583984375,1.6586151123046875
1739919878215986000,5.47298583984375,0.0532684326171875,0.7686614990234375,1.7464752197265625
1739919878225968000,5.482968017578125,-0.0330657958984375,0.7913360595703125,1.817138671875
1739919878235950000,5.4929501953125,-0.097747802734375,0.7839813232421875,1.8715057373046875
1739919878245933000,5.50293310546875,-0.1199951171875,0.748870849609375,1.8826751708984375
1739919878255915300,5.512915283203125,-0.119049072265625,0.688079833984375,1.842742919921875
1739919878265897000,5.52289697265625,-0.1100921630859375,0.6439361572265625,1.8438262939453125
1739919878275880200,5.532880126953125,-0.1146392822265625,0.64923095703125,1.9178924560546875
1739919878285862000,5.54286181640625,-0.1459503173828125,0.6584930419921875,1.9969482421875
1739919878295845000,5.55284521484375,-0.2048492431640625,0.614105224609375,2.02081298828125
1739919878305827000,5.5628271484375,-0.2705841064453125,0.511016845703125,1.9785003662109375
1739919878315809000,5.57280908203125,-0.340118408203125,0.3744049072265625,1.9001312255859375
1739919878325792000,5.5827919921875,-0.39410400390625,0.21759033203125,1.80474853515625
1739919878335774200,5.592774169921875,-0.4234619140625,0.0614166259765625,1.7069549560546875
1739919878345757000,5.6027568359375,-0.4132232666015625,-0.0609893798828125,1.647674560546875
1739919878355739100,5.6127392578125,-0.3606719970703125,-0.12615966796875,1.658111572265625
1739919878365721000,5.62272119140625,-0.2651824951171875,-0.113037109375,1.754608154296875
1739919878375704000,5.6327041015625,-0.157958984375,-0.0427398681640625,1.8451385498046875
1739919878385686300,5.642686279296875,-0.0567626953125,0.03662109375,1.8983917236328125
1739919878395669000,5.6526689453125,0.01373291015625,0.135406494140625,1.9055938720703125
1739919878405651500,5.6626513671875,0.0619659423828125,0.2496795654296875,1.8638153076171875
1739919878415633400,5.67263330078125,0.094696044921875,0.38189697265625,1.8213653564453125
1739919878425616400,5.682616455078125,0.11834716796875,0.5333709716796875,1.805816650390625
1739919878435598300,5.692598388671875,0.1371612548828125,0.6781463623046875,1.785003662109375
1739919878445580500,5.70258056640625,0.146453857421875,0.791351318359375,1.73602294921875
1739919878455563500,5.7125634765625,0.1462860107421875,0.8686676025390625,1.6565399169921875
1739919878465545500,5.72254541015625,0.1362152099609375,0.9116058349609375,1.568695068359375
1739919878475528400,5.732528564453125,0.1145172119140625,0.9285430908203125,1.4873199462890625
1739919878485510400,5.742510498046875,0.079437255859375,0.924652099609375,1.4039306640625
1739919878495492400,5.752492431640625,0.0460662841796875,0.8907470703125,1.3238525390625
1739919878505475600,5.7624755859375,0.030364990234375,0.8430938720703125,1.2653350830078125
1739919878515457300,5.772457275390625,0.039947509765625,0.799407958984375,1.228240966796875
1739919878525440500,5.7824404296875,0.06243896484375,0.7579803466796875,1.2057037353515625
1739919878535422500,5.79242236328125,0.0906219482421875,0.7292327880859375,1.2016754150390625
1739919878545404400,5.802404296875,0.1139984130859375,0.7150115966796875,1.2109832763671875
1739919878555387400,5.812387451171875,0.131500244140625,0.7042388916015625,1.2108917236328125
1739919878565369300,5.822369384765625,0.1435546875,0.6987762451171875,1.2010498046875
1739919878575351600,5.8323515625,0.159759521484375,0.7010955810546875,1.19146728515625
1739919878585334500,5.84233447265625,0.19268798828125,0.70843505859375,1.1872711181640625
1739919878595316500,5.85231640625,0.2389678955078125,0.7164154052734375,1.1841583251953125
1739919878605299500,5.862299560546875,0.2857818603515625,0.735260009765625,1.183258056640625
1739919878615281400,5.872281494140625,0.31494140625,0.7635650634765625,1.179840087890625
1739919878625263400,5.882263427734375,0.31488037109375,0.7867431640625,1.168304443359375
1739919878635246600,5.89224658203125,0.29718017578125,0.800506591796875,1.150390625
1739919878645228300,5.902228271484375,0.2714385986328125,0.80902099609375,1.1410064697265625
1739919878655211500,5.91221142578125,0.2390899658203125,0.812591552734375,1.1298675537109375
1739919878665193500,5.922193359375,0.221435546875,0.8091888427734375,1.1168212890625
1739919878675175400,5.932175537109375,0.2234649658203125,0.8097076416015625,1.1266326904296875
1739919878685158400,5.942158447265625,0.24285888671875,0.817291259765625,1.17120361328125
1739919878695140400,5.952140380859375,0.2628021240234375,0.81146240234375,1.1988372802734375
1739919878705123300,5.962123291015625,0.271209716796875,0.7982635498046875,1.22686767578125
1739919878715105500,5.97210546875,0.28973388671875,0.794647216796875,1.25335693359375
1739919878725087500,5.98208740234375,0.3108978271484375,0.791595458984375,1.24920654296875
1739919878735070500,5.992070556640625,0.33929443359375,0.790740966796875,1.2110595703125
1739919878745052700,6.002052734375,0.3337860107421875,0.7969970703125,1.1218719482421875
1739919878755034400,6.012034423828125,0.2886505126953125,0.8074188232421875,1.0116424560546875
1739919878765017600,6.022017578125,0.2300262451171875,0.826080322265625,0.9268646240234375
1739919878774999300,6.031999267578125,0.164398193359375,0.8464508056640625,0.8553314208984375
1739919878784982500,6.041982421875,0.1208953857421875,0.871002197265625,0.790496826171875
1739919878794964500,6.051964599609375,0.082427978515625,0.8920745849609375,0.7125091552734375
1739919878804946400,6.061946533203125,0.048797607421875,0.8915863037109375,0.6103668212890625
1739919878814929400,6.071929443359375,0.0167694091796875,0.8580169677734375,0.4713897705078125
1739919878824911400,6.081911376953125,-0.0084228515625,0.7889251708984375,0.3212127685546875
1739919878834894300,6.091894287109375,-0.023284912109375,0.707916259765625,0.1809844970703125
1739919878844876500,6.10187646484375,-0.0289459228515625,0.6266021728515625,0.0569000244140625
1739919878854858500,6.1118583984375,-0.031494140625,0.5612945556640625,-0.0361175537109375
1739919878864841500,6.121841552734375,-0.0429840087890625,0.524444580078125,-0.0779876708984375
1739919878874823700,6.13182373046875,-0.066864013671875,0.5101776123046875,-0.061614990234375
1739919878884806400,6.141806396484375,-0.092559814453125,0.5237579345703125,0.0267486572265625
1739919878894788600,6.15178857421875,-0.108245849609375,0.559112548828125,0.20379638671875
1739919878904770300,6.161770263671875,-0.1095733642578125,0.5997467041015625,0.39154052734375
1739919878914753500,6.17175341796875,-0.092041015625,0.644927978515625,0.566070556640625
1739919878924735500,6.181735595703125,-0.0540313720703125,0.6937408447265625,0.7368316650390625
1739919878934717400,6.191717529296875,-0.0043182373046875,0.72882080078125,0.8799285888671875
1739919878944700400,6.201700439453125,0.064239501953125,0.764923095703125,1.0010986328125
1739919878954682400,6.211682373046875,0.13250732421875,0.7938385009765625,1.091156005859375
1739919878964665300,6.221665283203125,0.1827239990234375,0.8183441162109375,1.1417083740234375
1739919878974647600,6.2316474609375,0.2104034423828125,0.835723876953125,1.1646270751953125
1739919878984629500,6.24162939453125,0.21478271484375,0.840087890625,1.1544647216796875
1739919878994612500,6.251612548828125,0.2003631591796875,0.830108642578125,1.1267242431640625
1739919879004594700,6.2615947265625,0.181365966796875,0.8252105712890625,1.10223388671875
1739919879014577400,6.271577392578125,0.1631927490234375,0.8264007568359375,1.0889129638671875
1739919879024559600,6.2815595703125,0.1422119140625,0.8267669677734375,1.0957794189453125
1739919879034541300,6.291541259765625,0.1098785400390625,0.830047607421875,1.1435089111328125
1739919879044524500,6.301524658203125,0.076507568359375,0.8186187744140625,1.18585205078125
1739919879054506500,6.311506591796875,0.051025390625,0.7991943359375,1.23681640625
1739919879064489500,6.321489501953125,0.0339508056640625,0.7712554931640625,1.2726287841796875
1739919879074471400,6.331471435546875,0.033477783203125,0.736297607421875,1.2925872802734375
1739919879084453400,6.341453369140625,0.052642822265625,0.7100372314453125,1.3191986083984375
1739919879094436400,6.351436279296875,0.0825347900390625,0.690582275390625,1.338165283203125
1739919879104418600,6.36141845703125,0.1154327392578125,0.6698455810546875,1.3505859375
1739919879114401500,6.371401611328125,0.1463470458984375,0.648712158203125,1.3486480712890625
1739919879124383500,6.381383544921875,0.1841278076171875,0.6315460205078125,1.3361663818359375
1739919879134365400,6.391365478515625,0.2170562744140625,0.6179962158203125,1.3188629150390625
1739919879144348400,6.401348388671875,0.23687744140625,0.6016387939453125,1.3012237548828125
1739919879154330400,6.411330322265625,0.2498626708984375,0.593048095703125,1.296173095703125
1739919879164312300,6.421312255859375,0.261474609375,0.59710693359375,1.3144989013671875
1739919879174295600,6.431295654296875,0.2756195068359375,0.6280059814453125,1.36968994140625
1739919879184277500,6.441277587890625,0.2825775146484375,0.657501220703125,1.4275970458984375
1739919879194260500,6.451260498046875,0.2831268310546875,0.66888427734375,1.4694671630859375
1739919879204242400,6.461242431640625,0.285675048828125,0.67010498046875,1.511505126953125
1739919879214224600,6.471224609375,0.2957305908203125,0.6766357421875,1.5590362548828125
1739919879224207400,6.481207275390625,0.3140716552734375,0.6810302734375,1.599822998046875
1739919879234189600,6.491189453125,0.3181915283203125,0.684326171875,1.6284637451171875
1739919879244172500,6.501172607421875,0.3135528564453125,0.6958770751953125,1.6712188720703125
1739919879254154500,6.511154541015625,0.30181884765625,0.7110137939453125,1.7148284912109375
1739919879264136400,6.521136474609375,0.27716064453125,0.7100067138671875,1.7588043212890625
1739919879274119400,6.531119384765625,0.2654876708984375,0.6834869384765625,1.7846527099609375
1739919879284101400,6.541101318359375,0.260650634765625,0.6284637451171875,1.7787933349609375
1739919879294084600,6.551084716796875,0.24554443359375,0.5677642822265625,1.7794189453125
1739919879304066300,6.56106640625,0.2384033203125,0.534393310546875,1.8308258056640625
1739919879314048500,6.571048583984375,0.238311767578125,0.5128631591796875,1.898681640625
1739919879324031200,6.58103125,0.23583984375,0.4648895263671875,1.9363555908203125
1739919879334013400,6.591013427734375,0.2370758056640625,0.38995361328125,1.963165283203125
1739919879343996400,6.600996337890625,0.245819091796875,0.2935333251953125,1.965484619140625
1739919879353978400,6.610978271484375,0.263214111328125,0.17132568359375,1.9134674072265625
1739919879363960600,6.620960693359375,0.2823333740234375,0.0379486083984375,1.799163818359375
1739919879373943600,6.630943603515625,0.3162994384765625,-0.0770721435546875,1.6579437255859375
1739919879383925500,6.640925537109375,0.36871337890625,-0.136138916015625,1.534912109375
1739919879393907500,6.650907470703125,0.4176025390625,-0.13690185546875,1.448028564453125
1739919879403890400,6.660890380859375,0.4558563232421875,-0.086883544921875,1.3894500732421875
1739919879413872000,6.6708720703125,0.484344482421875,0.0117034912109375,1.3541259765625
1739919879423855000,6.680855224609375,0.4981536865234375,0.1212158203125,1.3285980224609375
1739919879433837000,6.690837158203125,0.4910430908203125,0.216644287109375,1.301177978515625
1739919879443819000,6.700819091796875,0.47430419921875,0.307281494140625,1.2807464599609375
1739919879453802000,6.710802001953125,0.447235107421875,0.3986358642578125,1.277496337890625
1739919879463784000,6.720783935546875,0.4047698974609375,0.4987335205078125,1.2913665771484375
1739919879473767200,6.73076708984375,0.3480072021484375,0.595489501953125,1.293487548828125
1739919879483749000,6.7407490234375,0.269866943359375,0.66497802734375,1.2890777587890625
1739919879493731000,6.75073095703125,0.1943817138671875,0.7232666015625,1.295867919921875
1739919879503714000,6.760714111328125,0.113922119140625,0.7573394775390625,1.3100128173828125
1739919879513696300,6.7706962890625,0.0376129150390625,0.7700347900390625,1.3291015625
1739919879523679000,6.780678955078125,-0.0128326416015625,0.76806640625,1.3502960205078125
1739919879533661200,6.7906611328125,-0.0406341552734375,0.751434326171875,1.3594207763671875
1739919879543643000,6.800642822265625,-0.0449371337890625,0.719757080078125,1.3445587158203125
1739919879553626000,6.810626220703125,-0.03314208984375,0.6841888427734375,1.318267822265625
1739919879563608000,6.820608154296875,-0.007781982421875,0.653411865234375,1.3008575439453125
1739919879573591000,6.830591064453125,0.0122833251953125,0.6455230712890625,1.308258056640625
1739919879583573000,6.840572998046875,0.0265655517578125,0.641571044921875,1.3162689208984375
1739919879593555000,6.850554931640625,0.04229736328125,0.640106201171875,1.3240509033203125
1739919879603538000,6.860537841796875,0.06927490234375,0.6508941650390625,1.3358001708984375
1739919879613520100,6.87052001953125,0.0954437255859375,0.671112060546875,1.3435211181640625
1739919879623502800,6.8805029296875,0.1070709228515625,0.7019195556640625,1.3468475341796875
1739919879633485000,6.890485107421875,0.117340087890625,0.7393646240234375,1.34765625
1739919879643467300,6.90046728515625,0.1280364990234375,0.7826080322265625,1.347930908203125
1739919879653450000,6.910449951171875,0.13079833984375,0.822509765625,1.3441619873046875
1739919879663432200,6.92043212890625,0.1237030029296875,0.8580322265625,1.343017578125
1739919879673415200,6.930415283203125,0.1148529052734375,0.8978424072265625,1.3472137451171875
1739919879683397000,6.940397216796875,0.1057586669921875,0.944915771484375,1.3566131591796875
1739919879693379000,6.950379150390625,0.0957489013671875,0.9803314208984375,1.338165283203125
1739919879703362000,6.960362060546875,0.0874481201171875,0.99578857421875,1.3050994873046875
1739919879713344000,6.970343994140625,0.07977294921875,1.0076904296875,1.27947998046875
1739919879723326000,6.980325927734375,0.06414794921875,1.0143280029296875,1.245361328125
1739919879733309000,6.990308837890625,0.0555267333984375,1.00439453125,1.20257568359375
1739919879743291100,7.000291015625,0.0559844970703125,0.985687255859375,1.1572723388671875
1739919879753274000,7.010274169921875,0.0688323974609375,0.967376708984375,1.11773681640625
1739919879763256000,7.020256103515625,0.0828399658203125,0.9526519775390625,1.0860748291015625
1739919879773238300,7.03023828125,0.09796142578125,0.9326934814453125,1.0447235107421875
1739919879783221000,7.040220947265625,0.106903076171875,0.912933349609375,0.992523193359375
1739919879793203200,7.050203125,0.1005859375,0.8991851806640625,0.929901123046875
1739919879803186200,7.060186279296875,0.0872650146484375,0.88775634765625,0.873992919921875
1739919879813168000,7.070168212890625,0.075592041015625,0.8918914794921875,0.8443450927734375
1739919879823150000,7.080150146484375,0.0789031982421875,0.905181884765625,0.81988525390625
1739919879833133000,7.090133056640625,0.0965728759765625,0.893829345703125,0.7662811279296875
1739919879843115000,7.100114990234375,0.117950439453125,0.851043701171875,0.6695709228515625
1739919879853098200,7.11009814453125,0.139556884765625,0.7828521728515625,0.5435333251953125
1739919879863080000,7.120079833984375,0.154266357421875,0.7131195068359375,0.4151458740234375
1739919879873062100,7.130062255859375,0.169677734375,0.660186767578125,0.3073577880859375
1739919879883045000,7.140045166015625,0.184326171875,0.625091552734375,0.22296142578125
1739919879893027000,7.150027099609375,0.1950225830078125,0.5872344970703125,0.15704345703125
1739919879903010000,7.160010009765625,0.20147705078125,0.5510406494140625,0.1180572509765625
1739919879912992000,7.169991943359375,0.2020416259765625,0.518768310546875,0.1289215087890625
1739919879922974200,7.17997412109375,0.1871795654296875,0.49566650390625,0.1934814453125
1739919879932957200,7.189957275390625,0.1634368896484375,0.4862823486328125,0.29473876953125
1739919879942939100,7.199939208984375,0.143829345703125,0.4930877685546875,0.3964691162109375
1739919879952922000,7.209922119140625,0.129058837890625,0.50433349609375,0.4919586181640625
1739919879962904000,7.219904052734375,0.1238250732421875,0.52447509765625,0.5883941650390625
1739919879972886000,7.229885986328125,0.110565185546875,0.562103271484375,0.6842193603515625
1739919879982869200,7.239869140625,0.095489501953125,0.60662841796875,0.7711639404296875
1739919879992851000,7.249850830078125,0.0720062255859375,0.653289794921875,0.840118408203125
1739919880002834200,7.259834228515625,0.0445709228515625,0.70343017578125,0.8968505859375
1739919880012816100,7.269816162109375,0.021240234375,0.7535858154296875,0.9318695068359375
1739919880022798000,7.279798095703125,0.007476806640625,0.791015625,0.9527740478515625
1739919880032781000,7.289781005859375,-0.001678466796875,0.8022613525390625,0.952178955078125
1739919880042763000,7.299762939453125,-0.00244140625,0.7906341552734375,0.9252777099609375
1739919880052746000,7.30974609375,-0.005889892578125,0.7704925537109375,0.900970458984375
1739919880062728200,7.319728271484375,-0.012451171875,0.757965087890625,0.8959503173828125
1739919880072710100,7.329710205078125,-0.0159454345703125,0.7461395263671875,0.9037933349609375
1739919880082693000,7.339693115234375,-0.0144805908203125,0.7360992431640625,0.93255615234375
1739919880092675000,7.349675048828125,-0.011962890625,0.7328643798828125,0.9754180908203125
1739919880102658000,7.359657958984375,-0.012969970703125,0.7369232177734375,1.0367584228515625
1739919880112640300,7.36964013671875,-0.0139312744140625,0.747100830078125,1.0976715087890625
1739919880122622000,7.3796220703125,-0.00970458984375,0.768463134765625,1.1676025390625
1739919880132605200,7.389605224609375,-0.0020904541015625,0.7964324951171875,1.25238037109375
1739919880142587100,7.399587158203125,0.02947998046875,0.8124847412109375,1.3549346923828125
1739919880152570000,7.409570068359375,0.100067138671875,0.8057861328125,1.4184417724609375
1739919880162552000,7.419552001953125,0.1819000244140625,0.7766876220703125,1.43914794921875
1739919880172534000,7.429533935546875,0.2633819580078125,0.7470245361328125,1.450439453125
1739919880182517000,7.43951708984375,0.3279266357421875,0.71624755859375,1.454742431640625
1739919880192499200,7.449499267578125,0.3517913818359375,0.6885986328125,1.45281982421875
1739919880202482000,7.45948193359375,0.3511962890625,0.6873779296875,1.4803619384765625
1739919880212464000,7.469464111328125,0.346221923828125,0.7013702392578125,1.5437774658203125
1739919880222446000,7.479446044921875,0.34661865234375,0.7159423828125,1.616912841796875
1739919880232429000,7.489428955078125,0.3447113037109375,0.720184326171875,1.6737823486328125
1739919880242411300,7.499411376953125,0.3226776123046875,0.7132110595703125,1.730865478515625
1739919880252394200,7.509394287109375,0.2810516357421875,0.7000274658203125,1.7921295166015625
1739919880262376200,7.519376220703125,0.2391510009765625,0.6904754638671875,1.8625030517578125
1739919880272358100,7.529358154296875,0.192901611328125,0.6564483642578125,1.89617919921875
1739919880282341000,7.539341064453125,0.157470703125,0.5982208251953125,1.89825439453125
1739919880292323000,7.549322998046875,0.1488800048828125,0.5492095947265625,1.8973388671875
1739919880302306000,7.55930615234375,0.1541290283203125,0.5174102783203125,1.88580322265625
1739919880312288000,7.5692880859375,0.169647216796875,0.5012359619140625,1.8761138916015625
1739919880322270200,7.579270263671875,0.1874542236328125,0.485870361328125,1.8622894287109375
1739919880332253000,7.5892529296875,0.2252044677734375,0.4681549072265625,1.844512939453125
1739919880342235100,7.599235107421875,0.2838592529296875,0.4809417724609375,1.8242950439453125
1739919880352217000,7.609217041015625,0.3363189697265625,0.53057861328125,1.8108978271484375
1739919880362200000,7.619199951171875,0.35565185546875,0.5689544677734375,1.77301025390625
1739919880372182000,7.62918212890625,0.3352813720703125,0.5635986328125,1.678466796875
1739919880382165200,7.639165283203125,0.2908782958984375,0.5135345458984375,1.5551910400390625
1739919880392147000,7.64914697265625,0.2520294189453125,0.437255859375,1.4281463623046875
1739919880402129200,7.659129150390625,0.222869873046875,0.3414306640625,1.2967681884765625
1739919880412112100,7.669112060546875,0.2072906494140625,0.23065185546875,1.18963623046875
1739919880422094300,7.67909423828125,0.2159271240234375,0.1355743408203125,1.139923095703125
1739919880432077300,7.689077392578125,0.2411041259765625,0.076904296875,1.13287353515625
1739919880442059300,7.699059326171875,0.2845001220703125,0.0635986328125,1.16705322265625
1739919880452041500,7.70904150390625,0.330230712890625,0.08428955078125,1.210693359375
1739919880462024200,7.719024169921875,0.367950439453125,0.12896728515625,1.2471923828125
1739919880472006400,7.72900634765625,0.39208984375,0.186370849609375,1.2719879150390625
1739919880481989400,7.7389892578125,0.40789794921875,0.2525177001953125,1.2873992919921875
1739919880491971300,7.748971435546875,0.4227752685546875,0.3282623291015625,1.302764892578125
1739919880501953300,7.758953369140625,0.4244537353515625,0.4045562744140625,1.31536865234375
1739919880511936300,7.768936279296875,0.40966796875,0.4748382568359375,1.3094329833984375
1739919880521918200,7.778918212890625,0.370574951171875,0.53778076171875,1.318939208984375
1739919880531901400,7.7889013671875,0.306915283203125,0.591644287109375,1.3593597412109375
1739919880541883100,7.798883056640625,0.2298736572265625,0.6311492919921875,1.4156341552734375
1739919880551866400,7.808866455078125,0.151947021484375,0.65692138671875,1.48681640625
1739919880561848300,7.818848388671875,0.10345458984375,0.669647216796875,1.5717315673828125
1739919880571830300,7.828830322265625,0.0925445556640625,0.668426513671875,1.594482421875
1739919880581813200,7.838813232421875,0.10430908203125,0.6417083740234375,1.5585174560546875
1739919880591795200,7.848795166015625,0.1124725341796875,0.6154327392578125,1.499664306640625
1739919880601778200,7.858778076171875,0.1165313720703125,0.6070556640625,1.4410247802734375
1739919880611760400,7.868760498046875,0.1265411376953125,0.6170654296875,1.3948211669921875
1739919880621742300,7.878742431640625,0.1416473388671875,0.64898681640625,1.3692474365234375
1739919880631725300,7.888725341796875,0.162872314453125,0.6937713623046875,1.35784912109375
1739919880641707300,7.898707275390625,0.1869049072265625,0.738250732421875,1.344757080078125
1739919880651690200,7.908690185546875,0.2128753662109375,0.7736358642578125,1.319915771484375
1739919880661672400,7.91867236328125,0.228240966796875,0.7930145263671875,1.2848358154296875
1739919880671654100,7.928654052734375,0.2363433837890625,0.804290771484375,1.2520904541015625
1739919880681637400,7.938637451171875,0.238525390625,0.8249053955078125,1.23052978515625
1739919880691619300,7.948619384765625,0.2300567626953125,0.8508758544921875,1.21551513671875
1739919880701602300,7.958602294921875,0.2048187255859375,0.8756866455078125,1.2028961181640625
1739919880711584300,7.968584228515625,0.1761322021484375,0.88812255859375,1.18365478515625
1739919880721566200,7.978566162109375,0.1454925537109375,0.8858184814453125,1.154754638671875
1739919880731549200,7.988549072265625,0.1229095458984375,0.885223388671875,1.131988525390625
1739919880741531400,7.998531494140625,0.107818603515625,0.892730712890625,1.119049072265625
1739919880751514000,8.00851416015625,0.0921173095703125,0.8967742919921875,1.1007080078125
1739919880761496300,8.018496337890625,0.0787811279296875,0.89013671875,1.0780029296875
1739919880771478300,8.028478271484374,0.0635223388671875,0.8814239501953125,1.0547332763671875
1739919880781461200,8.038461181640624,0.038055419921875,0.8792572021484375,1.0357513427734375
1739919880791443500,8.048443359375,0.015655517578125,0.87506103515625,1.01544189453125
1739919880801426400,8.058426513671876,-0.004364013671875,0.8620147705078125,0.9881134033203125
1739919880811408400,8.068408447265625,-0.02117919921875,0.8490753173828125,0.9623870849609375
1739919880821390300,8.078390380859375,-0.0324554443359375,0.83538818359375,0.9273681640625
1739919880831373300,8.088373291015625,-0.041351318359375,0.8094635009765625,0.8708343505859375
1739919880841355300,8.098355224609374,-0.047454833984375,0.777313232421875,0.8183746337890625
1739919880851338500,8.10833837890625,-0.040771484375,0.7707977294921875,0.7993927001953125
1739919880861320200,8.1183203125,-0.025604248046875,0.7966156005859375,0.8097686767578125
1739919880871302400,8.128302490234375,-0.0113372802734375,0.8108367919921875,0.8001251220703125
1739919880881285000,8.13828515625,-0.0008087158203125,0.7791595458984375,0.731170654296875
1739919880891267300,8.148267333984375,0.0092315673828125,0.7228851318359375,0.6365203857421875
1739919880901250300,8.158250244140625,0.0181732177734375,0.672119140625,0.556182861328125
1739919880911232300,8.168232177734374,0.0218353271484375,0.6314544677734375,0.4998321533203125
1739919880921214500,8.17821435546875,0.0212860107421875,0.595123291015625,0.474853515625
1739919880931197400,8.188197509765626,0.0206451416015625,0.5697784423828125,0.4956207275390625
1739919880941179400,8.198179443359376,0.0091552734375,0.561248779296875,0.550994873046875
1739919880951161300,8.208161376953125,-0.007110595703125,0.544677734375,0.608123779296875
1739919880961144300,8.218144287109375,-0.0129547119140625,0.5214691162109375,0.6623687744140625
1739919880971126300,8.228126220703125,-0.0032958984375,0.5196075439453125,0.722625732421875
1739919880981109500,8.238109619140625,0.0265350341796875,0.5345916748046875,0.774688720703125
1739919880991091200,8.24809130859375,0.0751190185546875,0.5594482421875,0.8038177490234375
1739919881001073400,8.258073486328126,0.122283935546875,0.5846405029296875,0.8036346435546875
1739919881011056000,8.26805615234375,0.15838623046875,0.6058197021484375,0.7857513427734375
1739919881021038300,8.278038330078125,0.1727294921875,0.6270599365234375,0.766845703125
1739919881031021300,8.288021240234375,0.167816162109375,0.649688720703125,0.7507171630859375
1739919881041003300,8.298003173828125,0.14483642578125,0.6700439453125,0.7375640869140625
1739919881050985200,8.307985107421874,0.1019287109375,0.6732940673828125,0.728973388671875
1739919881060968400,8.317968505859374,0.049835205078125,0.6639862060546875,0.7236175537109375
1739919881070950100,8.3279501953125,0.0032196044921875,0.64166259765625,0.7221527099609375
1739919881080933400,8.337933349609376,-0.030242919921875,0.6134490966796875,0.716644287109375
1739919881090915300,8.347915283203125,-0.045867919921875,0.587554931640625,0.7210540771484375
1739919881100897300,8.357897216796875,-0.0538787841796875,0.562164306640625,0.73199462890625
1739919881110880300,8.36788037109375,-0.052978515625,0.5401763916015625,0.75396728515625
1739919881120862200,8.3778623046875,-0.042388916015625,0.5297088623046875,0.7826385498046875
1739919881130845200,8.38784521484375,-0.017852783203125,0.5265655517578125,0.822998046875
1739919881140827100,8.3978271484375,0.0054168701171875,0.5348052978515625,0.85260009765625
1739919881150809300,8.407809326171876,0.021820068359375,0.5545806884765625,0.893463134765625
1739919881160792300,8.417792236328125,0.024871826171875,0.5782012939453125,0.9400787353515625
1739919881170774300,8.427774169921875,0.00030517578125,0.6198883056640625,0.9840087890625
1739919881180757200,8.43775732421875,-0.042510986328125,0.671539306640625,1.038055419921875
1739919881190739500,8.447739501953125,-0.0782623291015625,0.71197509765625,1.105224609375
1739919881200721200,8.45772119140625,-0.1114044189453125,0.7478179931640625,1.1763916015625
1739919881210704400,8.467704345703124,-0.1200103759765625,0.806732177734375,1.2639007568359375
1739919881220686000,8.47768603515625,-0.0864410400390625,0.879669189453125,1.353485107421875
1739919881230669300,8.48766943359375,-0.01129150390625,0.9332122802734375,1.4245147705078125
1739919881240651300,8.4976513671875,0.0902862548828125,0.9459228515625,1.504425048828125
1739919881250633200,8.50763330078125,0.2036285400390625,0.943572998046875,1.578094482421875
1739919881260616200,8.5176162109375,0.3049774169921875,0.9469146728515625,1.6244049072265625
1739919881270598400,8.527598388671874,0.3788909912109375,0.924163818359375,1.6399688720703125
1739919881280581000,8.5375810546875,0.4188385009765625,0.87744140625,1.63189697265625
1739919881290563300,8.547563232421876,0.44482421875,0.8286895751953125,1.645294189453125
1739919881300545300,8.557545166015625,0.4624176025390625,0.790008544921875,1.67120361328125
1739919881310528300,8.5675283203125,0.4759674072265625,0.7508087158203125,1.7137451171875
1739919881320510500,8.577510498046875,0.4862823486328125,0.7112274169921875,1.7570037841796875
1739919881330493200,8.5874931640625,0.5005035400390625,0.6784820556640625,1.787322998046875
1739919881340475400,8.597475341796875,0.508087158203125,0.656036376953125,1.8152923583984375
1739919881350457000,8.60745703125,0.4970703125,0.6268157958984375,1.8284912109375
1739919881360440300,8.6174404296875,0.47833251953125,0.587921142578125,1.819915771484375
1739919881370422300,8.62742236328125,0.4557647705078125,0.5416717529296875,1.7929229736328125
1739919881380405200,8.6374052734375,0.4481048583984375,0.51104736328125,1.782745361328125
1739919881390387200,8.64738720703125,0.4415435791015625,0.5240478515625,1.81036376953125
1739919881400370400,8.657370361328125,0.4060516357421875,0.556732177734375,1.8321533203125
1739919881410354000,8.66735400390625,0.3458251953125,0.551971435546875,1.7956695556640625
1739919881420336000,8.677336181640625,0.28277587890625,0.5135345458984375,1.703399658203125
1739919881430318800,8.68731884765625,0.2350311279296875,0.4554290771484375,1.5963897705078125
1739919881440301000,8.697301025390624,0.216583251953125,0.3763885498046875,1.4595794677734375
1739919881450284000,8.707283935546876,0.227508544921875,0.3009185791015625,1.3156280517578125
1739919881460266000,8.717265869140626,0.24591064453125,0.2487335205078125,1.2195281982421875
1739919881470248000,8.727248046875,0.2658538818359375,0.237030029296875,1.18414306640625
1739919881480231000,8.73723095703125,0.2852630615234375,0.255767822265625,1.18414306640625
1739919881490212900,8.747212890625,0.31085205078125,0.294525146484375,1.21051025390625
1739919881500196000,8.757196044921875,0.3350982666015625,0.342620849609375,1.2447967529296875
1739919881510177800,8.767177734375,0.3538970947265625,0.39068603515625,1.2689971923828125
1739919881520160000,8.777159912109376,0.3696746826171875,0.44110107421875,1.2828216552734375
1739919881530143000,8.78714306640625,0.369384765625,0.4927978515625,1.2845306396484375
1739919881540125000,8.797125,0.3505401611328125,0.54290771484375,1.274749755859375
1739919881550108000,8.80710791015625,0.31500244140625,0.5908660888671875,1.30035400390625
1739919881560089900,8.81708984375,0.2689666748046875,0.6378631591796875,1.3673248291015625
1739919881570071800,8.82707177734375,0.216064453125,0.68212890625,1.438934326171875
1739919881580055000,8.837054931640624,0.156402587890625,0.7145843505859375,1.481903076171875
1739919881590037000,8.847037109375,0.0953369140625,0.724517822265625,1.4948272705078125
1739919881600020000,8.85702001953125,0.05572509765625,0.7212677001953125,1.501129150390625
1739919881610002000,8.867001953125,0.0321197509765625,0.7122955322265625,1.5042724609375
1739919881619984000,8.87698388671875,0.0225067138671875,0.7041473388671875,1.5047760009765625
1739919881629966800,8.886966796875,0.02728271484375,0.704833984375,1.500732421875
1739919881639948800,8.89694873046875,0.041259765625,0.7167205810546875,1.4962158203125
1739919881649932000,8.90693212890625,0.052642822265625,0.7344207763671875,1.4851531982421875
1739919881659914000,8.9169140625,0.0607452392578125,0.7476959228515625,1.4575653076171875
1739919881669897000,8.92689697265625,0.0728302001953125,0.767547607421875,1.4192657470703125
1739919881679879000,8.93687890625,0.088134765625,0.8172454833984375,1.365875244140625
1739919881689860900,8.94686083984375,0.0870513916015625,0.8598480224609375,1.30169677734375
1739919881699843800,8.95684375,0.0733489990234375,0.882354736328125,1.24456787109375
1739919881709826000,8.966825927734375,0.074798583984375,0.8990631103515625,1.2073974609375
1739919881719808800,8.976808837890625,0.0839691162109375,0.9206695556640625,1.179443359375
1739919881729791000,8.986791015625,0.09088134765625,0.9312286376953125,1.1412811279296875
1739919881739773000,8.99677294921875,0.0962677001953125,0.9254150390625,1.102935791015625
1739919881749756000,9.006755859375,0.107757568359375,0.91461181640625,1.0673980712890625
1739919881759737900,9.01673779296875,0.1163177490234375,0.912445068359375,1.0440521240234375
1739919881769721000,9.02672119140625,0.11572265625,0.908172607421875,1.028656005859375
1739919881779702800,9.036702880859375,0.103363037109375,0.8988189697265625,1.0101470947265625
1739919881789685000,9.04668505859375,0.0884857177734375,0.884857177734375,0.9881744384765625
1739919881799667700,9.056667724609374,0.0801849365234375,0.8861236572265625,0.980224609375
1739919881809650000,9.06664990234375,0.072479248046875,0.8979339599609375,0.973297119140625
1739919881819633000,9.0766328125,0.0611114501953125,0.9002532958984375,0.9525604248046875
1739919881829614800,9.08661474609375,0.0521392822265625,0.9048614501953125,0.9320068359375
1739919881839597000,9.09659716796875,0.0504608154296875,0.91082763671875,0.9091949462890625
1739919881849579800,9.106579833984375,0.049285888671875,0.9126434326171875,0.878265380859375
1739919881859562000,9.11656201171875,0.042205810546875,0.9004364013671875,0.8328094482421875
1739919881869545000,9.126544921875,0.030731201171875,0.869781494140625,0.7716522216796875
1739919881879527000,9.13652685546875,0.0267486572265625,0.8494873046875,0.727264404296875
1739919881889510000,9.146510009765626,0.025726318359375,0.860565185546875,0.703948974609375
1739919881899492000,9.1564921875,0.0254058837890625,0.8740386962890625,0.6623992919921875
1739919881909473800,9.166473876953125,0.017364501953125,0.872161865234375,0.601898193359375
1739919881919457000,9.17645703125,0.0010223388671875,0.8455963134765625,0.517242431640625
1739919881929438700,9.186438720703125,-0.01824951171875,0.8057861328125,0.4358978271484375
1739919881939422000,9.196421875,-0.02825927734375,0.7807464599609375,0.4004058837890625
1739919881949404000,9.20640380859375,-0.0395660400390625,0.7723236083984375,0.382781982421875
1739919881959385900,9.2163857421875,-0.047027587890625,0.7425689697265625,0.3583526611328125
1739919881969368800,9.226368896484376,-0.0510101318359375,0.7070770263671875,0.373443603515625
1739919881979350800,9.236350830078125,-0.050689697265625,0.691925048828125,0.4482421875
1739919881989333800,9.246333740234375,-0.0324249267578125,0.6880950927734375,0.5365447998046875
1739919881999316000,9.25631591796875,-0.0079498291015625,0.6954193115234375,0.6423187255859375
1739919882009298000,9.2662978515625,0.01837158203125,0.722015380859375,0.76385498046875
1739919882019281000,9.276281005859374,0.053009033203125,0.7536163330078125,0.873565673828125
1739919882029263000,9.28626318359375,0.0990753173828125,0.7852020263671875,0.972564697265625
1739919882039245800,9.296245849609376,0.1529541015625,0.8254241943359375,1.0697479248046875
1739919882049228000,9.30622802734375,0.20343017578125,0.861297607421875,1.1450347900390625
1739919882059209700,9.316209716796875,0.2424468994140625,0.876953125,1.201263427734375
1739919882069193000,9.32619287109375,0.2694854736328125,0.873077392578125,1.24053955078125
1739919882079175000,9.3361748046875,0.29833984375,0.8652496337890625,1.2700653076171875
1739919882089158000,9.346157958984374,0.3013763427734375,0.839630126953125,1.2854461669921875
1739919882099139800,9.356139892578126,0.29083251953125,0.7943267822265625,1.2764739990234375
1739919882109121800,9.366121826171875,0.286651611328125,0.7448883056640625,1.255523681640625
1739919882119104800,9.376104736328125,0.27423095703125,0.6949920654296875,1.228790283203125
1739919882129087000,9.3860869140625,0.2416534423828125,0.645965576171875,1.2016448974609375
1739919882139070000,9.396070068359375,0.212310791015625,0.6160125732421875,1.184967041015625
1739919882149052000,9.406052001953125,0.185546875,0.60748291015625,1.1762847900390625
1739919882159035000,9.416034912109374,0.1724853515625,0.5963287353515625,1.1726226806640625
1739919882169016800,9.426016845703124,0.1690521240234375,0.57757568359375,1.1602630615234375
1739919882178999000,9.4359990234375,0.18157958984375,0.55010986328125,1.1250457763671875
1739919882188982000,9.44598193359375,0.1948699951171875,0.52227783203125,1.1062774658203125
1739919882198964000,9.4559638671875,0.2076263427734375,0.5119476318359375,1.093109130859375
1739919882208947000,9.465947021484375,0.2265167236328125,0.5121612548828125,1.1097869873046875
1739919882218929000,9.475928955078125,0.2428436279296875,0.5051116943359375,1.1536102294921875
1739919882228910800,9.485910888671874,0.2511444091796875,0.4933624267578125,1.1837921142578125
1739919882238894000,9.49589404296875,0.267059326171875,0.4752960205078125,1.2170867919921875
1739919882248875800,9.505875732421876,0.294189453125,0.454254150390625,1.2785491943359375
1739919882258859000,9.51585888671875,0.3233642578125,0.43121337890625,1.3138275146484375
1739919882268841000,9.525841064453125,0.3334808349609375,0.4236907958984375,1.326416015625
1739919882278823000,9.535822998046875,0.3217315673828125,0.4190216064453125,1.33050537109375
1739919882288806000,9.545805908203125,0.3057708740234375,0.4302978515625,1.3469696044921875
1739919882298787800,9.555787841796874,0.27923583984375,0.4473724365234375,1.3745880126953125
1739919882308770800,9.565770751953124,0.2588958740234375,0.4575958251953125,1.419921875
1739919882318753000,9.5757529296875,0.248046875,0.4668121337890625,1.4638214111328125
1739919882328735700,9.58573583984375,0.2418975830078125,0.4540252685546875,1.50299072265625
1739919882338718000,9.595718017578125,0.2305145263671875,0.4168701171875,1.53411865234375
1739919882348700000,9.605699951171875,0.2366943359375,0.3892822265625,1.55987548828125
1739919882358683000,9.615682861328125,0.2600555419921875,0.37646484375,1.5913238525390625
1739919882368665000,9.6256650390625,0.282562255859375,0.375152587890625,1.622833251953125
1739919882378647800,9.635647705078124,0.29498291015625,0.37530517578125,1.64190673828125
1739919882388630000,9.645630126953124,0.2877044677734375,0.3720245361328125,1.648193359375
1739919882398612000,9.655612060546876,0.2779083251953125,0.368499755859375,1.6592864990234375
1739919882408593200,9.66559326171875,0.273223876953125,0.3659820556640625,1.6802825927734375
1739919882418575400,9.675575439453125,0.288299560546875,0.368621826171875,1.7119140625
1739919882428558000,9.68555810546875,0.326507568359375,0.3985595703125,1.7701263427734375
1739919882438540300,9.695540283203124,0.3549652099609375,0.42718505859375,1.797210693359375
1739919882448522000,9.70552197265625,0.3608856201171875,0.4118804931640625,1.732666015625
1739919882458505200,9.715505126953126,0.3573150634765625,0.360626220703125,1.62091064453125
1739919882468487200,9.725487060546875,0.35699462890625,0.30474853515625,1.5138092041015625
1739919882478470100,9.73547021484375,0.3570404052734375,0.2470703125,1.4163665771484375
1739919882488452000,9.7454521484375,0.3624420166015625,0.1829986572265625,1.3298187255859375
1739919882498435300,9.755435302734375,0.3916473388671875,0.1363525390625,1.2721099853515625
1739919882508417000,9.7654169921875,0.4173126220703125,0.1253662109375,1.246337890625
1739919882518399200,9.775399169921876,0.43499755859375,0.148773193359375,1.249786376953125
1739919882528382000,9.7853818359375,0.45245361328125,0.2045440673828125,1.283294677734375
1739919882538364200,9.7953642578125,0.4595947265625,0.2789154052734375,1.321319580078125
1739919882548347100,9.80534716796875,0.4481658935546875,0.357269287109375,1.341094970703125
1739919882558329000,9.8153291015625,0.445831298828125,0.4357147216796875,1.3444061279296875
1739919882568311300,9.825311279296875,0.435882568359375,0.5187225341796875,1.3519287109375
1739919882578294300,9.835294189453125,0.389434814453125,0.6142120361328125,1.36138916015625
1739919882588276200,9.845276123046874,0.3214111328125,0.69488525390625,1.3946685791015625
1739919882598259200,9.85525927734375,0.24169921875,0.7612762451171875,1.4364471435546875
1739919882608241200,9.8652412109375,0.15911865234375,0.8221893310546875,1.47314453125
1739919882618223000,9.87522314453125,0.0803070068359375,0.862060546875,1.4871978759765625
1739919882628206300,9.885206298828125,0.006378173828125,0.86883544921875,1.4934539794921875
1739919882638188000,9.89518798828125,-0.0542755126953125,0.854705810546875,1.50445556640625
1739919882648171300,9.905171142578125,-0.0726776123046875,0.8179779052734375,1.4832611083984375
1739919882658153000,9.915153076171874,-0.0345458984375,0.7606353759765625,1.4146881103515625
1739919882668135200,9.92513525390625,0.01702880859375,0.7053070068359375,1.3453826904296875
1739919882678118100,9.9351181640625,0.0692138671875,0.6676483154296875,1.2909393310546875
1739919882688100000,9.94510009765625,0.1100311279296875,0.65673828125,1.2492828369140625
1739919882698083000,9.9550830078125,0.1354827880859375,0.6600189208984375,1.2132568359375
1739919882708065300,9.965065185546875,0.1388702392578125,0.6636199951171875,1.17669677734375
1739919882718048000,9.975048095703125,0.1347198486328125,0.657135009765625,1.146514892578125
1739919882728030200,9.9850302734375,0.133148193359375,0.6438140869140625,1.1219024658203125
1739919882738012200,9.99501220703125,0.1182098388671875,0.635406494140625,1.1118927001953125
1739919882747995100,10.0049951171875,0.1054534912109375,0.6368560791015625,1.116485595703125
1739919882757977300,10.014977294921875,0.0971527099609375,0.6466217041015625,1.11920166015625
1739919882767960000,10.0249599609375,0.0888519287109375,0.66326904296875,1.11627197265625
1739919882777942300,10.0349423828125,0.08294677734375,0.6825103759765625,1.1090087890625
1739919882787924000,10.044924072265625,0.0781402587890625,0.7074737548828125,1.097686767578125
1739919882797907200,10.0549072265625,0.07574462890625,0.73388671875,1.0865020751953125
1739919882807889200,10.06488916015625,0.073028564453125,0.7648468017578125,1.0803680419921875
1739919882817872400,10.074872314453126,0.0619049072265625,0.796112060546875,1.0724334716796875
1739919882827854000,10.08485400390625,0.0431671142578125,0.8162689208984375,1.05926513671875
1739919882837837300,10.09483740234375,0.0232391357421875,0.8334808349609375,1.0540924072265625
1739919882847819000,10.104819091796875,0.001220703125,0.852447509765625,1.04754638671875
1739919882857801200,10.11480126953125,-0.0222320556640625,0.87139892578125,1.031585693359375
1739919882867784200,10.1247841796875,-0.0593109130859375,0.8909454345703125,0.993316650390625
1739919882877766100,10.13476611328125,-0.0955963134765625,0.9048004150390625,0.92913818359375
1739919882887749000,10.1447490234375,-0.110626220703125,0.9114837646484375,0.86376953125
1739919882897731000,10.15473095703125,-0.14837646484375,0.9002685546875,0.76702880859375
1739919882907713300,10.16471337890625,-0.1808624267578125,0.8765716552734375,0.6753997802734375
1739919882917696300,10.1746962890625,-0.189910888671875,0.8682708740234375,0.5964813232421875
1739919882927678200,10.18467822265625,-0.17303466796875,0.89581298828125,0.534423828125
1739919882937661200,10.1946611328125,-0.13543701171875,0.9455413818359375,0.5017547607421875
1739919882947643400,10.204643310546874,-0.097412109375,0.9939727783203125,0.4752655029296875
1739919882957625000,10.214625,-0.08056640625,1.003631591796875,0.4173126220703125
1739919882967608300,10.2246083984375,-0.06982421875,0.9751434326171875,0.342498779296875
1739919882977590000,10.234590087890625,-0.06903076171875,0.9229736328125,0.302154541015625
1739919882987573200,10.2445732421875,-0.0782318115234375,0.8580474853515625,0.29144287109375
1739919882997555200,10.25455517578125,-0.073150634765625,0.796356201171875,0.3094024658203125
1739919883007538200,10.2645380859375,-0.0169830322265625,0.7501678466796875,0.4083099365234375
1739919883017520000,10.27452001953125,0.0540924072265625,0.712493896484375,0.5282440185546875
1739919883027502000,10.284502197265626,0.0998992919921875,0.690155029296875,0.613983154296875
1739919883037485000,10.294485107421876,0.1507415771484375,0.701263427734375,0.6971282958984375
1739919883047467300,10.30446728515625,0.20245361328125,0.7412109375,0.776611328125
1739919883057450000,10.314449951171875,0.2569427490234375,0.7880096435546875,0.8466644287109375
1739919883067432200,10.32443212890625,0.299713134765625,0.83770751953125,0.911865234375
1739919883077414400,10.334414306640625,0.32830810546875,0.896270751953125,0.9810028076171875
1739919883087397000,10.344397216796875,0.336700439453125,0.9524993896484375,1.0487823486328125
1739919883097379300,10.35437939453125,0.326934814453125,0.983612060546875,1.1203765869140625
1739919883107362300,10.3643623046875,0.310516357421875,0.9973602294921875,1.192108154296875
1739919883117344300,10.37434423828125,0.290008544921875,1.00555419921875,1.261322021484375
1739919883127326200,10.384326171875,0.2674407958984375,0.999725341796875,1.3072662353515625
1739919883137309200,10.39430908203125,0.2386627197265625,0.9828033447265625,1.324462890625
1739919883147291100,10.404291015625,0.2058868408203125,0.9618988037109375,1.31890869140625
1739919883157274400,10.4142744140625,0.162689208984375,0.930450439453125,1.28594970703125
1739919883167256000,10.424256103515624,0.1101837158203125,0.887176513671875,1.2503814697265625
1739919883177239300,10.4342392578125,0.0618743896484375,0.84112548828125,1.2424468994140625
1739919883187221000,10.444220947265626,0.027587890625,0.8033294677734375,1.2628631591796875
1739919883197203200,10.454203125,0.0015411376953125,0.7773284912109375,1.298919677734375
1739919883207186200,10.464186279296875,-0.0182037353515625,0.7474365234375,1.332122802734375
1739919883217168100,10.474168212890625,-0.0208282470703125,0.7010040283203125,1.351959228515625
1739919883227151000,10.484151123046875,-0.002349853515625,0.6402435302734375,1.3827362060546875
1739919883237133300,10.49413330078125,0.0477294921875,0.576690673828125,1.4375457763671875
1739919883247115000,10.504114990234376,0.1307220458984375,0.5068359375,1.4709625244140625
1739919883257098200,10.51409814453125,0.2250213623046875,0.4558868408203125,1.4784393310546875
1739919883267080200,10.524080078125,0.3000946044921875,0.4286956787109375,1.4769744873046875
1739919883277063200,10.534063232421875,0.3438568115234375,0.41717529296875,1.45733642578125
1739919883287045000,10.544045166015625,0.3624114990234375,0.408233642578125,1.4268035888671875
1739919883297028000,10.554028076171875,0.3586273193359375,0.3939971923828125,1.3940582275390625
1739919883307010000,10.564010009765624,0.3480987548828125,0.3738555908203125,1.3618927001953125
1739919883316992300,10.5739921875,0.3420257568359375,0.3624420166015625,1.343414306640625
1739919883326975200,10.583975341796876,0.34674072265625,0.365386962890625,1.332366943359375
1739919883336957200,10.593957275390625,0.3520660400390625,0.36669921875,1.332763671875
1739919883346940200,10.603940185546875,0.3596954345703125,0.3644866943359375,1.35498046875
1739919883356922000,10.613922119140625,0.371002197265625,0.3498382568359375,1.3855743408203125
1739919883366904300,10.623904296875,0.3697357177734375,0.32879638671875,1.4042510986328125
1739919883376887000,10.633886962890625,0.3613739013671875,0.3159027099609375,1.426300048828125
1739919883386869200,10.643869140625,0.3373260498046875,0.318695068359375,1.451416015625
1739919883396852200,10.653852294921874,0.30877685546875,0.332733154296875,1.4634246826171875
1739919883406834700,10.663834716796876,0.2852020263671875,0.3582000732421875,1.4833831787109375
1739919883416816600,10.673816650390625,0.249420166015625,0.386566162109375,1.4966888427734375
1739919883426799900,10.6837998046875,0.215972900390625,0.4056396484375,1.52581787109375
1739919883436781600,10.693781494140625,0.1920166015625,0.41754150390625,1.5565338134765625
1739919883446764800,10.703764892578125,0.200897216796875,0.422515869140625,1.5952606201171875
1739919883456746500,10.71374658203125,0.2469940185546875,0.4497222900390625,1.6707763671875
1739919883466729700,10.723729736328124,0.3139801025390625,0.4960174560546875,1.745697021484375
1739919883476711700,10.733711669921876,0.366973876953125,0.506866455078125,1.7486724853515625
1739919883486693600,10.743693603515625,0.4081268310546875,0.48077392578125,1.68048095703125
1739919883496676600,10.753676513671875,0.4359130859375,0.4330596923828125,1.59124755859375
1739919883506658600,10.763658447265625,0.4396820068359375,0.373992919921875,1.4944000244140625
1739919883516641500,10.7736416015625,0.4261474609375,0.3038482666015625,1.3959197998046875
1739919883526623700,10.783623779296875,0.409637451171875,0.2377166748046875,1.3285675048828125
1739919883536605700,10.793605712890624,0.404693603515625,0.21380615234375,1.3056488037109375
1739919883546588700,10.803588623046876,0.38775634765625,0.2319488525390625,1.31927490234375
1739919883556571000,10.81357080078125,0.3660736083984375,0.2805938720703125,1.3498077392578125
1739919883566553600,10.8235537109375,0.350677490234375,0.3493499755859375,1.38446044921875
1739919883576535800,10.833535888671875,0.3375244140625,0.4249725341796875,1.4140625
1739919883586518800,10.843518798828125,0.3280792236328125,0.505645751953125,1.4322509765625
1739919883596500700,10.853500732421875,0.31103515625,0.6101226806640625,1.4585418701171875
1739919883606482700,10.863482666015624,0.2675018310546875,0.708038330078125,1.4642791748046875
1739919883616465700,10.873465576171874,0.2189178466796875,0.7719268798828125,1.4548187255859375
1739919883626447600,10.883447509765626,0.182373046875,0.8118438720703125,1.4534759521484375
1739919883636430800,10.893430908203126,0.14385986328125,0.825103759765625,1.4366912841796875
1739919883646412500,10.90341259765625,0.1061248779296875,0.816986083984375,1.4074554443359375
1739919883656394800,10.913394775390625,0.0750274658203125,0.7922515869140625,1.379974365234375
1739919883666377700,10.923377685546875,0.0466461181640625,0.75811767578125,1.3514862060546875
1739919883676359700,10.933359619140624,0.021636962890625,0.7189483642578125,1.326080322265625
1739919883686342700,10.9433427734375,0.0071258544921875,0.6919097900390625,1.3115234375
1739919883696324600,10.95332470703125,-0.0017547607421875,0.680328369140625,1.3097686767578125
1739919883706306800,10.963306884765625,-0.017974853515625,0.6767578125,1.309661865234375
1739919883716289800,10.973289794921875,-0.03265380859375,0.673004150390625,1.29034423828125
1739919883726271700,10.983271728515625,-0.0360565185546875,0.6694183349609375,1.2672271728515625
1739919883736254700,10.993254638671875,-0.030792236328125,0.6775665283203125,1.2627410888671875
1739919883746236700,11.003236572265624,-0.0101776123046875,0.6845550537109375,1.2423248291015625
1739919883756219600,11.0132197265625,0.028839111328125,0.687225341796875,1.2132415771484375
1739919883766201900,11.023201904296876,0.06158447265625,0.69976806640625,1.2066802978515625
1739919883776183600,11.03318359375,0.068572998046875,0.7192840576171875,1.2091217041015625
1739919883786166800,11.043166748046875,0.0557708740234375,0.7374267578125,1.2084197998046875
1739919883796148700,11.053148681640625,0.0327606201171875,0.760528564453125,1.22113037109375
1739919883806131700,11.063131591796875,0.0109405517578125,0.7942657470703125,1.240753173828125
1739919883816113700,11.07311376953125,0.0011444091796875,0.84112548828125,1.2547607421875
1739919883826095600,11.083095703125,0.000762939453125,0.8905181884765625,1.261810302734375
1739919883836078600,11.09307861328125,0.0110931396484375,0.942535400390625,1.253814697265625
1739919883846060800,11.103060791015626,0.017364501953125,0.99493408203125,1.239227294921875
1739919883856043500,11.11304345703125,0.01959228515625,1.0360260009765625,1.2037353515625
1739919883866025700,11.123025634765625,0.02593994140625,1.05181884765625,1.1497650146484375
1739919883876008700,11.1330087890625,0.0381927490234375,1.0629730224609375,1.0928192138671875
1739919883885990700,11.14299072265625,0.05267333984375,1.0543975830078125,1.015594482421875
1739919883895972600,11.15297265625,0.060791015625,1.0220947265625,0.920501708984375
1739919883905955600,11.16295556640625,0.0675201416015625,0.969818115234375,0.8188018798828125
1739919883915937500,11.1729375,0.0681915283203125,0.9090728759765625,0.72442626953125
1739919883925920800,11.182920654296876,0.0680389404296875,0.850921630859375,0.6418304443359375
1739919883935902700,11.19290283203125,0.0724029541015625,0.805633544921875,0.5687408447265625
1739919883945884700,11.202884765625,0.067779541015625,0.779052734375,0.5064697265625
1739919883955867600,11.21286767578125,0.0574951171875,0.777618408203125,0.4734039306640625
1739919883965849600,11.222849609375,0.0417633056640625,0.797088623046875,0.46563720703125
1739919883975832600,11.23283251953125,0.0258026123046875,0.8298187255859375,0.4621429443359375
1739919883985814500,11.242814453125,0.00921630859375,0.852874755859375,0.430389404296875
1739919883995797800,11.2527978515625,-0.0113983154296875,0.8395843505859375,0.363525390625
1739919884005779700,11.26277978515625,-0.0227203369140625,0.8004913330078125,0.279144287109375
1739919884015761700,11.27276171875,-0.0374603271484375,0.752960205078125,0.202392578125
1739919884025744600,11.28274462890625,-0.06304931640625,0.7053070068359375,0.1448516845703125
1739919884035726800,11.292726806640625,-0.09722900390625,0.66357421875,0.138641357421875
1739919884045709600,11.30270947265625,-0.1111907958984375,0.63897705078125,0.1824493408203125
1739919884055691800,11.31269189453125,-0.095458984375,0.6314849853515625,0.2664031982421875
1739919884065673500,11.322673583984376,-0.0684967041015625,0.665985107421875,0.4141082763671875
1739919884075656700,11.33265673828125,-0.04473876953125,0.7085418701171875,0.5981292724609375
1739919884085638700,11.342638671875,-0.0147552490234375,0.75238037109375,0.79052734375
1739919884095621600,11.35262158203125,0.02679443359375,0.803253173828125,0.960205078125
1739919884105603600,11.362603515625,0.081024169921875,0.8427581787109375,1.11376953125
1739919884115586800,11.3725869140625,0.1256866455078125,0.8617095947265625,1.217437744140625
1739919884125568500,11.382568603515624,0.164703369140625,0.8597412109375,1.2701416015625
1739919884135550700,11.39255078125,0.2070770263671875,0.8588104248046875,1.304534912109375
1739919884145533400,11.402533447265625,0.2576141357421875,0.85931396484375,1.3444671630859375
1739919884155515600,11.412515625,0.32470703125,0.8497314453125,1.4031829833984375
1739919884165498600,11.42249853515625,0.37628173828125,0.82293701171875,1.452545166015625
1739919884175480600,11.43248046875,0.39544677734375,0.781463623046875,1.4580230712890625
1739919884185462800,11.442462890625,0.3919525146484375,0.7383575439453125,1.4334564208984375
1739919884195445800,11.45244580078125,0.373260498046875,0.70819091796875,1.3942718505859375
1739919884205427700,11.462427734375,0.33599853515625,0.694122314453125,1.3625335693359375
1739919884215410700,11.47241064453125,0.288177490234375,0.674163818359375,1.34429931640625
1739919884225392600,11.482392578125,0.2320709228515625,0.635772705078125,1.34423828125
1739919884235374600,11.49237451171875,0.18975830078125,0.5834503173828125,1.3543853759765625
1739919884245357800,11.50235791015625,0.1710357666015625,0.5242767333984375,1.3653106689453125
1739919884255339500,11.512339599609374,0.1835174560546875,0.4727325439453125,1.3977813720703125
1739919884265322800,11.52232275390625,0.21490478515625,0.434234619140625,1.4140625
1739919884275304400,11.532304443359376,0.236907958984375,0.4134063720703125,1.427703857421875
1739919884285287700,11.54228759765625,0.2804107666015625,0.38311767578125,1.4208526611328125
1739919884295269600,11.55226953125,0.3158416748046875,0.3597869873046875,1.4151458740234375
1739919884305251600,11.56225146484375,0.311279296875,0.347137451171875,1.422943115234375
1739919884315234600,11.572234619140625,0.2934112548828125,0.3259429931640625,1.435455322265625
1739919884325216800,11.582216796875,0.288177490234375,0.301116943359375,1.448150634765625
1739919884335199500,11.592199462890624,0.2767791748046875,0.3050079345703125,1.4512939453125
1739919884345181700,11.602181640625,0.2630615234375,0.320068359375,1.45843505859375
1739919884355164700,11.61216455078125,0.2472381591796875,0.335601806640625,1.4558563232421875
1739919884365146600,11.622146728515625,0.2504425048828125,0.3572998046875,1.4548492431640625
1739919884375128800,11.63212890625,0.2436065673828125,0.390106201171875,1.4738616943359375
1739919884385111600,11.642111572265625,0.2201690673828125,0.411102294921875,1.50408935546875
1739919884395093800,11.65209375,0.2014923095703125,0.4209136962890625,1.53741455078125
1739919884405076700,11.66207666015625,0.18597412109375,0.432586669921875,1.5645294189453125
1739919884415058700,11.67205859375,0.154876708984375,0.4348602294921875,1.576324462890625
1739919884425040400,11.682040283203126,0.1245574951171875,0.42877197265625,1.5808258056640625
1739919884435023600,11.692023681640626,0.098358154296875,0.4133453369140625,1.589202880859375
1739919884445005600,11.702005615234375,0.0920867919921875,0.38177490234375,1.602203369140625
1739919884454988500,11.711988525390625,0.1006622314453125,0.3480682373046875,1.614410400390625
1739919884464970500,11.721970458984375,0.1217498779296875,0.3417816162109375,1.6494598388671875
1739919884474953700,11.73195361328125,0.1494293212890625,0.37554931640625,1.7147369384765625
1739919884484935400,11.741935302734374,0.157928466796875,0.4119415283203125,1.7763824462890625
1739919884494917600,11.751917724609376,0.1445159912109375,0.415740966796875,1.7898406982421875
1739919884504900400,11.761900390625,0.1253509521484375,0.372772216796875,1.7558135986328125
1739919884514882600,11.771882568359375,0.11419677734375,0.31549072265625,1.69647216796875
1739919884524865500,11.781865478515625,0.1034698486328125,0.24517822265625,1.6208343505859375
1739919884534847500,11.791847412109375,0.1032562255859375,0.1497802734375,1.542510986328125
1739919884544829700,11.80182958984375,0.119293212890625,0.051300048828125,1.4627532958984375
1739919884554812400,11.8118125,0.1399688720703125,-0.02227783203125,1.4075469970703125
1739919884564795400,11.82179541015625,0.170867919921875,-0.0426788330078125,1.392669677734375
1739919884574777600,11.831777587890626,0.2102203369140625,0.011077880859375,1.4230499267578125
1739919884584759600,11.841759521484375,0.248687744140625,0.1225433349609375,1.481658935546875
1739919884594742500,11.851742431640625,0.2664642333984375,0.25250244140625,1.5345001220703125
1739919884604724700,11.861724853515625,0.2732391357421875,0.3822021484375,1.564605712890625
1739919884614707500,11.87170751953125,0.274261474609375,0.5127410888671875,1.5893402099609375
1739919884624689700,11.881689697265625,0.281036376953125,0.6290435791015625,1.5964813232421875
1739919884634672600,11.891672607421874,0.2765655517578125,0.726348876953125,1.5818634033203125
1739919884644654600,11.901654541015626,0.247283935546875,0.798980712890625,1.5483551025390625
1739919884654636500,11.911636474609375,0.20941162109375,0.8499908447265625,1.498626708984375
1739919884664619500,11.92161962890625,0.1656341552734375,0.8710479736328125,1.437713623046875
1739919884674601500,11.9316015625,0.1194000244140625,0.8545684814453125,1.3692474365234375
1739919884684584700,11.941584716796875,0.08343505859375,0.8184051513671875,1.3022003173828125
1739919884694566400,11.95156640625,0.0746612548828125,0.7890167236328125,1.2555084228515625
1739919884704548600,11.961548583984374,0.075897216796875,0.772125244140625,1.23309326171875
1739919884714531600,11.971531494140624,0.0766448974609375,0.7612762451171875,1.21630859375
1739919884724513500,11.981513427734376,0.07025146484375,0.7494049072265625,1.19854736328125
1739919884734496500,11.99149658203125,0.0676727294921875,0.7424774169921875,1.182281494140625
1739919884744478500,12.001478515625,0.0719757080078125,0.73974609375,1.1641998291015625
1739919884754461400,12.01146142578125,0.08221435546875,0.73822021484375,1.1498565673828125
1739919884764443600,12.021443603515625,0.0950775146484375,0.73602294921875,1.140533447265625
1739919884774425600,12.031425537109374,0.1109771728515625,0.7373809814453125,1.1306915283203125
1739919884784408600,12.04140869140625,0.13165283203125,0.7405548095703125,1.1125030517578125
1739919884794390500,12.051390625,0.1470947265625,0.7442626953125,1.0924072265625
1739919884804373500,12.06137353515625,0.1501922607421875,0.7496795654296875,1.074249267578125
1739919884814355700,12.071355712890625,0.1418609619140625,0.757293701171875,1.05828857421875
1739919884824337400,12.08133740234375,0.1297454833984375,0.766937255859375,1.0378265380859375
1739919884834320600,12.091320556640625,0.119232177734375,0.7784576416015625,1.016143798828125
1739919884844302600,12.101302490234374,0.1085968017578125,0.790740966796875,0.9963836669921875
1739919884854285600,12.11128564453125,0.0937042236328125,0.805267333984375,0.9852142333984375
1739919884864267500,12.121267578125,0.077789306640625,0.8193511962890625,0.9853363037109375
1739919884874250800,12.131250732421876,0.0615692138671875,0.8291778564453125,0.982452392578125
1739919884884232400,12.141232421875,0.0549774169921875,0.830352783203125,0.9661102294921875
1739919884894214700,12.151214599609375,0.0626220703125,0.838958740234375,0.963134765625
1739919884904197400,12.161197265625,0.08258056640625,0.846466064453125,0.957489013671875
1739919884914179600,12.1711796875,0.0998382568359375,0.8452301025390625,0.9429473876953125
1739919884924161500,12.18116162109375,0.109527587890625,0.8374481201171875,0.9199371337890625
1739919884934143500,12.1911435546875,0.127105712890625,0.83514404296875,0.891693115234375
1739919884944126700,12.201126708984376,0.14056396484375,0.8367919921875,0.85772705078125
1739919884954108400,12.2111083984375,0.1440582275390625,0.8280029296875,0.8035888671875
1739919884964091600,12.221091552734375,0.109130859375,0.7977142333984375,0.75006103515625
1739919884974073600,12.231073486328125,0.06201171875,0.7741851806640625,0.73553466796875
1739919884984056600,12.241056640625,0.0453643798828125,0.783660888671875,0.7577972412109375
1739919884994038500,12.25103857421875,0.0512847900390625,0.8022613525390625,0.76226806640625
1739919885004020500,12.2610205078125,0.0668182373046875,0.798583984375,0.724517822265625
1739919885014003500,12.27100341796875,0.07464599609375,0.7688140869140625,0.66650390625
1739919885023985700,12.280985595703125,0.0612945556640625,0.7381134033203125,0.58209228515625
1739919885033968400,12.290968505859375,0.046600341796875,0.7095794677734375,0.4849090576171875
1739919885043950600,12.30095068359375,0.0343170166015625,0.6783599853515625,0.4152069091796875
1739919885053933600,12.31093359375,0.017791748046875,0.652374267578125,0.365570068359375
1739919885063915500,12.32091552734375,0.0172271728515625,0.6251983642578125,0.3320465087890625
1739919885073897700,12.330897705078126,0.0361175537109375,0.5957183837890625,0.3443145751953125
1739919885083880400,12.34088037109375,0.0611724853515625,0.575836181640625,0.4218292236328125
1739919885093862700,12.350862548828125,0.0843353271484375,0.5752105712890625,0.5213623046875
1739919885103845600,12.360845703125,0.110809326171875,0.588623046875,0.6316070556640625
1739919885113827600,12.37082763671875,0.1442718505859375,0.614044189453125,0.738494873046875
1739919885123809500,12.3808095703125,0.184051513671875,0.6588287353515625,0.83551025390625
1739919885133792500,12.39079248046875,0.208740234375,0.7060089111328125,0.9194488525390625
1739919885143774500,12.4007744140625,0.2108612060546875,0.7482757568359375,0.990509033203125
1739919885153757700,12.4107578125,0.1961517333984375,0.7843475341796875,1.0547332763671875
1739919885163739400,12.420739501953125,0.1808013916015625,0.81072998046875,1.107940673828125
1739919885173722600,12.43072265625,0.1668853759765625,0.8188934326171875,1.15069580078125
1739919885183704600,12.44070458984375,0.16143798828125,0.8148193359375,1.187164306640625
1739919885193686500,12.4506865234375,0.1605377197265625,0.7942047119140625,1.2103729248046875
1739919885203669500,12.46066943359375,0.159912109375,0.75799560546875,1.2186737060546875
1739919885213651700,12.470651611328124,0.16119384765625,0.717926025390625,1.2202301025390625
1739919885223634400,12.480634521484374,0.168121337890625,0.6761322021484375,1.2339324951171875
1739919885233616600,12.49061669921875,0.189117431640625,0.6305999755859375,1.25
1739919885243598300,12.500598388671875,0.2041473388671875,0.59100341796875,1.2454376220703125
1739919885253581600,12.51058154296875,0.2085723876953125,0.561920166015625,1.237701416015625
1739919885263563500,12.5205634765625,0.2046661376953125,0.552398681640625,1.2365570068359375
1739919885273546500,12.53054638671875,0.1868743896484375,0.558502197265625,1.222625732421875
1739919885283528400,12.540528564453124,0.18267822265625,0.5560302734375,1.2159576416015625
1739919885293511700,12.55051171875,0.189666748046875,0.5420684814453125,1.22021484375
1739919885303493400,12.560493408203126,0.2037811279296875,0.5220489501953125,1.2151031494140625
1739919885313475600,12.5704755859375,0.220062255859375,0.501068115234375,1.2081756591796875
1739919885323458600,12.58045849609375,0.2249603271484375,0.4875030517578125,1.204345703125
1739919885333440500,12.5904404296875,0.217529296875,0.4750518798828125,1.1972198486328125
1739919885343423500,12.600423583984375,0.19781494140625,0.4631805419921875,1.2012176513671875
1739919885353405400,12.610405517578124,0.1753692626953125,0.452911376953125,1.2274627685546875
1739919885363387600,12.6203876953125,0.158203125,0.4521331787109375,1.2631988525390625
1739919885373370600,12.63037060546875,0.1460723876953125,0.454620361328125,1.3094635009765625
1739919885383352600,12.6403525390625,0.156280517578125,0.46142578125,1.3653411865234375
1739919885393335600,12.65033544921875,0.169891357421875,0.4636383056640625,1.3960723876953125
1739919885403317500,12.6603173828125,0.1838226318359375,0.459869384765625,1.405242919921875
1739919885413300500,12.670300537109375,0.19622802734375,0.4674072265625,1.4118499755859375
1739919885423282700,12.68028271484375,0.194183349609375,0.470550537109375,1.417755126953125
1739919885433264400,12.690264404296874,0.1875762939453125,0.46014404296875,1.4225921630859375
1739919885443247600,12.70024755859375,0.2006378173828125,0.464569091796875,1.448760986328125
1739919885453229300,12.710229248046875,0.2079620361328125,0.479339599609375,1.48382568359375
1739919885463212500,12.720212646484375,0.20574951171875,0.479400634765625,1.5128631591796875
1739919885473194500,12.730194580078125,0.2059478759765625,0.45831298828125,1.5284881591796875
1739919885483176400,12.740176513671875,0.216094970703125,0.43341064453125,1.54962158203125
1739919885493159400,12.750159423828125,0.236297607421875,0.425140380859375,1.58551025390625
1739919885503141600,12.7601416015625,0.25616455078125,0.4166107177734375,1.6365509033203125
1739919885513124400,12.770124267578124,0.2752227783203125,0.4259185791015625,1.703582763671875
1739919885523106600,12.7801064453125,0.295196533203125,0.450347900390625,1.7598419189453125
1739919885533089500,12.790089599609376,0.2905731201171875,0.4357452392578125,1.7647857666015625
1739919885543071500,12.800071533203125,0.2669525146484375,0.3734283447265625,1.713958740234375
1739919885553053700,12.8100537109375,0.254791259765625,0.30377197265625,1.6538848876953125
1739919885563036400,12.820036376953125,0.2420654296875,0.236968994140625,1.601348876953125
1739919885573018600,12.8300185546875,0.2247467041015625,0.1702423095703125,1.5447540283203125
1739919885583001600,12.840001708984374,0.2150726318359375,0.1097259521484375,1.4675750732421875
1739919885592983600,12.849983642578126,0.260162353515625,0.0912017822265625,1.3597869873046875
1739919885602966500,12.859966552734376,0.308380126953125,0.107757568359375,1.2972564697265625
1739919885612948700,12.86994873046875,0.31378173828125,0.1629791259765625,1.2730255126953125
1739919885622930400,12.879930419921875,0.3106231689453125,0.2200927734375,1.290069580078125
1739919885632913700,12.88991357421875,0.301544189453125,0.280487060546875,1.3462677001953125
1739919885642895400,12.899895263671874,0.2877197265625,0.3655548095703125,1.408905029296875
1739919885652878600,12.909878662109374,0.253570556640625,0.4561614990234375,1.434783935546875
1739919885662860500,12.919860595703126,0.21630859375,0.5396270751953125,1.4310302734375
1739919885672842500,12.929842529296875,0.1960906982421875,0.6182403564453125,1.4164886474609375
1739919885682825500,12.939825439453125,0.1862030029296875,0.7019195556640625,1.399871826171875
1739919885692807400,12.949807373046875,0.159515380859375,0.774688720703125,1.385589599609375
1739919885702790400,12.959790283203125,0.129669189453125,0.82489013671875,1.3589324951171875
1739919885712772600,12.969772705078125,0.113372802734375,0.8682861328125,1.343780517578125
1739919885722755300,12.97975537109375,0.0895843505859375,0.90032958984375,1.341400146484375
1739919885732737500,12.989737548828124,0.0564422607421875,0.910491943359375,1.351287841796875
1739919885742719700,12.9997197265625,0.0279693603515625,0.912322998046875,1.35894775390625
1739919885752702500,13.009702392578125,0.0019989013671875,0.900665283203125,1.3558197021484375
1739919885762684700,13.0196845703125,-0.0095977783203125,0.8733978271484375,1.337432861328125
1739919885772667600,13.029667724609375,-0.010040283203125,0.8537139892578125,1.326629638671875
1739919885782649600,13.039649658203125,0.0012664794921875,0.8401641845703125,1.316650390625
1739919885792631600,13.049631591796874,0.021697998046875,0.8231658935546875,1.3011932373046875
1739919885802614500,13.059614501953124,0.0293121337890625,0.8233489990234375,1.303863525390625
