time,seconds_elapsed,z,y,x
1739919872809287400,0.066287353515625,-0.011120027862489223,-0.009402014315128326,-0.03051430732011795
1739919872819269600,0.07626953125,-0.004645723383873701,-0.0009466782212257385,-0.022639093920588493
1739919872829252600,0.086252685546875,0.010022168979048729,0.006854786071926355,-0.006255061365664005
1739919872839234600,0.096234619140625,0.014197795651853085,0.013382960110902786,0.0033143237233161926
1739919872849216800,0.106216796875,0.011012389324605465,0.014814142137765884,-0.013744288124144077
1739919872859199500,0.116199462890625,0.013360617682337761,0.01322311069816351,-0.03232712298631668
1739919872869181700,0.126181640625,0.015005651861429214,0.00900998990982771,-0.04960597679018974
1739919872879163400,0.136163330078125,0.010490856133401394,0.00632177060469985,-0.05667554959654808
1739919872889146600,0.146146728515625,0.0025035040453076363,0.0041227987967431545,-0.0505252443253994
1739919872899128600,0.156128662109375,-0.0025181807577610016,0.012061033397912979,-0.029187656939029694
1739919872909110500,0.166110595703125,-0.006502802483737469,0.015264816582202911,-0.0002356331970077008
1739919872919093500,0.176093505859375,-0.006592822261154652,0.022107001394033432,0.010472197085618973
1739919872929075500,0.186075439453125,-0.00920325331389904,0.01915142685174942,0.012308180332183838
1739919872939058400,0.196058349609375,-0.0074151791632175446,0.008204353041946888,-0.0005155488615855575
1739919872949040600,0.20604052734375,-0.009996048174798489,-0.0021817092783749104,-0.018944889307022095
1739919872959022600,0.216022705078125,-0.006836173124611378,-0.0024734684266149998,-0.029802465811371803
1739919872969005600,0.226005615234375,0.0004196090158075094,0.009914224967360497,-0.03168238699436188
1739919872978987800,0.23598779296875,0.004480158910155296,0.027777761220932007,-0.03369208797812462
1739919872988969500,0.245969482421875,0.010121266357600689,0.033843643963336945,-0.03928126394748688
1739919872998952700,0.25595263671875,0.010153371840715408,0.0219164676964283,-0.04623947665095329
1739919873008934400,0.265934326171875,0.015136945992708206,0.00047162966802716255,-0.06269568204879761
1739919873018916600,0.27591650390625,0.016616003587841988,-0.02572665736079216,-0.08088326454162598
1739919873028899600,0.285899658203125,0.00955143477767706,-0.042138922959566116,-0.08775555342435837
1739919873038881500,0.295881591796875,0.0030520246364176273,-0.03753472492098808,-0.08678203076124191
1739919873048863700,0.30586376953125,-0.00011260947212576866,-0.0199541337788105,-0.0737176313996315
1739919873058846500,0.315846435546875,-0.004360856022685766,0.006062403321266174,-0.050456058233976364
1739919873068828700,0.32582861328125,-0.01498580351471901,0.03191637247800827,-0.031743355095386505
1739919873078810600,0.335810546875,-0.012661991640925407,0.04107660427689552,-0.024363262578845024
1739919873088793600,0.345793701171875,-0.015070022083818913,0.03955540806055069,-0.012503406964242458
1739919873098775600,0.355775634765625,-0.010146992281079292,0.03141110762953758,-0.014533515088260174
1739919873108758800,0.3657587890625,-0.008519801311194897,0.023738540709018707,-0.018195893615484238
1739919873118740500,0.375740478515625,-0.011828064918518066,0.020453445613384247,-0.0183557216078043
1739919873128722700,0.38572265625,-0.01094309613108635,0.01679692417383194,-0.01723027043044567
1739919873138705400,0.395705322265625,-0.008066980168223381,0.017704704776406288,-0.02202148735523224
1739919873148687600,0.4056875,-0.0007680541602894664,0.021040312945842743,-0.025501972064375877
1739919873158669600,0.415669677734375,0.0038452898152172565,0.024981560185551643,-0.02545127645134926
1739919873168652500,0.425652587890625,0.010069630108773708,0.035035260021686554,-0.028399130329489708
1739919873178634800,0.435634765625,0.010108953341841698,0.03769193962216377,-0.02686007134616375
1739919873188616400,0.445616455078125,0.0033655636943876743,0.04123767092823982,-0.02504858933389187
1739919873198599700,0.455599609375,0.004164953716099262,0.046260301023721695,-0.02861321158707142
1739919873208581600,0.46558154296875,0.016076739877462387,0.051916588097810745,-0.03781496360898018
1739919873218563600,0.4755634765625,0.014993581920862198,0.04097529873251915,-0.04991840571165085
1739919873228546600,0.485546630859375,0.011948256753385067,0.029621709138154984,-0.060244545340538025
1739919873238528500,0.495528564453125,0.008058235049247742,0.004862799309194088,-0.0638415589928627
1739919873248511500,0.505511474609375,0.005374301224946976,-0.006697716191411018,-0.05740656703710556
1739919873258493700,0.51549365234375,0.0014857510104775429,-0.007936861366033554,-0.03202158212661743
1739919873268475600,0.5254755859375,-0.005225947592407465,0.005553913302719593,-0.005870138294994831
1739919873278458600,0.535458740234375,-0.006503142882138491,0.027492206543684006,0.015110093168914318
1739919873288440600,0.545440673828125,-0.0023267739452421665,0.0317937433719635,0.025762470439076424
1739919873298422500,0.555422607421875,-0.0031326119787991047,0.030747240409255028,0.02859141305088997
1739919873308405800,0.56540576171875,-0.0024132919497787952,0.032347798347473145,0.023032598197460175
1739919873318387500,0.575387451171875,-0.002005352173000574,0.03797402232885361,0.013105283491313457
1739919873328369700,0.58536962890625,0.00001785124186426401,0.04341113194823265,-0.0017215992556884885
1739919873338352600,0.5953525390625,-0.0023423959501087666,0.04360175505280495,-0.01477725151926279
1739919873348334600,0.60533447265625,-0.005066809710115194,0.03772229328751564,-0.016830282285809517
1739919873358316500,0.615316650390625,-0.015574362128973007,0.042961034923791885,-0.016695698723196983
1739919873368299500,0.625299560546875,-0.015002049505710602,0.05478440225124359,-0.007813257165253162
1739919873378281500,0.635281494140625,-0.008251824416220188,0.061689890921115875,0.0022210204042494297
1739919873388263700,0.645263671875,0.007374805398285389,0.05574624985456467,0.01201692596077919
1739919873398246400,0.655246337890625,0.018374662846326828,0.041415270417928696,0.018585823476314545
1739919873408227800,0.665227783203125,0.016795674338936806,0.03506895899772644,0.01358973141759634
1739919873418211000,0.675211181640625,0.010286019183695316,0.03272289037704468,0.008561969734728336
1739919873428192800,0.68519287109375,0.0012901278678327799,0.030046943575143814,0.012991871684789658
1739919873438175000,0.695175048828125,-0.00048730080015957355,0.021704478189349174,0.024238798767328262
1739919873448158000,0.705157958984375,0.0014389634598046541,0.01794302836060524,0.03108764998614788
1739919873458140000,0.715139892578125,-0.00046978762838989496,0.01777687855064869,0.02174336090683937
1739919873468122000,0.7251220703125,0.003437602426856756,0.025029465556144714,0.007515954785048962
1739919873478104800,0.735104736328125,0.009760220535099506,0.031888432800769806,-0.012223717756569386
1739919873488087000,0.745087158203125,0.01104333158582449,0.025332264602184296,-0.023153597488999367
1739919873498068700,0.75506884765625,0.007467035669833422,0.02311914600431919,-0.03061731532216072
1739919873508052000,0.765052001953125,0.007312572095543146,0.01849297061562538,-0.027375448495149612
1739919873518034000,0.775033935546875,0.009993785992264748,0.011654004454612732,-0.02469189651310444
1739919873528017000,0.785016845703125,0.009755698963999748,-0.0006170440465211868,-0.022722754627466202
1739919873537998800,0.794998779296875,0.013712624087929726,-0.014466546475887299,-0.02993166632950306
1739919873547981000,0.80498095703125,0.013944053091108799,-0.023727955296635628,-0.03516184911131859
1739919873557963800,0.8149638671875,0.015610120259225368,-0.027728823944926262,-0.04459869861602783
1739919873567946000,0.824946044921875,0.016327043995261192,-0.022640587761998177,-0.05492271110415459
1739919873577928000,0.834927978515625,0.019711289554834366,-0.020435839891433716,-0.05306268483400345
1739919873587911000,0.844910888671875,0.021325964480638504,-0.0003127278760075569,-0.05272366479039192
1739919873597893000,0.85489306640625,0.015471572056412697,0.01785813458263874,-0.04513911157846451
1739919873607874800,0.864874755859375,-0.0015385699225589633,0.03108552098274231,-0.031595874577760696
1739919873617858000,0.874858154296875,-0.010185103863477707,0.03995520621538162,-0.025926975533366203
1739919873627839700,0.88483984375,-0.010256210342049599,0.04538166522979736,-0.015944382175803185
1739919873637822000,0.894822021484375,-0.0037509354297071695,0.04578981176018715,-0.014660396613180637
1739919873647805000,0.904804931640625,-0.0009841772262006998,0.04090823605656624,-0.0179509986191988
1739919873657787000,0.914786865234375,-0.0012398188700899482,0.029796581715345383,-0.02402648702263832
1739919873667768800,0.924768798828125,-0.005721652414649725,0.021930402144789696,-0.021625913679599762
1739919873677752000,0.934751953125,-0.003763780929148197,0.018620535731315613,-0.01476245280355215
1739919873687734000,0.944734130859375,-0.0004111275775358081,0.017061254009604454,-0.009093381464481354
1739919873697717000,0.954717041015625,0.006216912996023893,0.012992093339562416,-0.008476992137730122
1739919873707699000,0.964698974609375,0.00721852807328105,0.006313683930784464,-0.02124711684882641
1739919873717681000,0.974680908203125,0.008039376698434353,-0.002253469079732895,-0.042574718594551086
1739919873727663900,0.984663818359375,0.007537104655057192,-0.011860024183988571,-0.058682315051555634
1739919873737645800,0.994645751953125,0.009917514398694038,-0.012730514630675316,-0.05215481296181679
1739919873747628000,1.0046279296875,0.009229087270796299,-0.011699073016643524,-0.03081943280994892
1739919873757611000,1.014611083984375,0.002460762392729521,0.011418845504522324,-0.004054470919072628
1739919873767593000,1.024593017578125,-0.006812098436057568,0.03375930339097977,0.022780338302254677
1739919873777575000,1.034574951171875,-0.002818562788888812,0.05253693088889122,0.04071071743965149
1739919873787558000,1.044557861328125,0.004015108570456505,0.06013333052396774,0.03728003427386284
1739919873797539800,1.054539794921875,0.002533438615500927,0.05410786718130112,0.020954018458724022
1739919873807521800,1.064521728515625,-0.006135683506727219,0.04264881834387779,-0.004789960570633411
1739919873817504800,1.0745048828125,-0.01204405352473259,0.018154334276914597,-0.0177918728441
1739919873827487000,1.084487060546875,-0.021152330562472343,-0.007688714656978846,-0.013726292178034782
1739919873837469700,1.0944697265625,-0.023911450058221817,-0.012849475257098675,-0.005953628569841385
1739919873847452000,1.104451904296875,-0.02464914508163929,0.006637673359364271,-0.0015026874607428908
1739919873857434000,1.11443408203125,-0.016535775735974312,0.041272588074207306,0.0007113695610314608
1739919873867416800,1.124416748046875,-0.008306342177093029,0.07476476579904556,0.0035665445029735565
1739919873877399000,1.13439892578125,0.005006778985261917,0.09219875931739807,-0.0059768739156425
1739919873887380700,1.144380615234375,0.0032000907231122255,0.09569895267486572,-0.018184805288910866
1739919873897364000,1.154364013671875,-0.0024818971287459135,0.0861787497997284,-0.029636455699801445
1739919873907346000,1.164345947265625,-0.003681384725496173,0.06962107867002487,-0.028898227959871292
1739919873917328000,1.174327880859375,-0.0035681091248989105,0.05852404236793518,-0.035579316318035126
1739919873927310800,1.184310791015625,-0.009725337848067284,0.0588713213801384,-0.036171335726976395
1739919873937292800,1.194292724609375,-0.003911712672561407,0.06905314326286316,-0.04357343912124634
1739919873947275000,1.20427490234375,-0.0006450793007388711,0.07713530212640762,-0.046144723892211914
1739919873957258000,1.214258056640625,-0.0029052412137389183,0.08956744521856308,-0.05548596754670143
1739919873967240000,1.224239990234375,-0.011364505626261234,0.10734723508358002,-0.05744978412985802
1739919873977223000,1.234222900390625,-0.0196615569293499,0.12037979811429977,-0.0492505207657814
1739919873987205000,1.244205078125,-0.017689751461148262,0.12813705205917358,-0.04365122318267822
1739919873997186800,1.254186767578125,-0.023366307839751244,0.14383947849273682,-0.0427190400660038
1739919874007170000,1.264170166015625,-0.02960476279258728,0.15052372217178345,-0.030080744996666908
1739919874017151700,1.27415185546875,-0.02841636911034584,0.14956189692020416,-0.017238734290003777
1739919874027134000,1.284134033203125,-0.038014136254787445,0.1527893841266632,0.011840054765343666
1739919874037117000,1.294116943359375,-0.03372003138065338,0.1546584963798523,0.040492188185453415
1739919874047099000,1.304098876953125,-0.038692690432071686,0.17037194967269897,0.06968308985233307
1739919874057081000,1.3140810546875,-0.04133839160203934,0.16935522854328156,0.06719925254583359
1739919874067063800,1.324063720703125,-0.04326119273900986,0.16677196323871613,0.05759909749031067
1739919874077046000,1.3340458984375,-0.0360325463116169,0.14230695366859436,0.030227314680814743
1739919874087028000,1.344028076171875,0.01745065115392208,0.07759186625480652,0.013580694794654846
1739919874097011000,1.354010986328125,0.01449622306972742,0.06523675471544266,-0.018588390201330185
1739919874106993000,1.363992919921875,-0.0007290684152394533,0.06663039326667786,-0.04561041668057442
1739919874116976000,1.37397607421875,-0.00010517286136746407,0.09414447098970413,-0.03999757766723633
1739919874126957800,1.383957763671875,0.007008662912994623,0.11529742926359177,-0.000898112659342587
1739919874136940000,1.39393994140625,0.02365674264729023,0.16199135780334473,0.037692807614803314
1739919874146922800,1.4039228515625,0.04431115463376045,0.19867587089538574,0.07622501254081726
1739919874156905000,1.413905029296875,0.05909278988838196,0.2502345144748688,0.08113926649093628
1739919874166887000,1.423886962890625,0.06706149876117706,0.2908051311969757,0.07904229313135147
1739919874176870000,1.433869873046875,0.07729948312044144,0.28198951482772827,0.05983110889792442
1739919874186852000,1.44385205078125,0.07475616782903671,0.28280311822891235,0.026381805539131165
1739919874196833800,1.453833740234375,0.07227526605129242,0.2704719603061676,-0.00247202068567276
1739919874206817000,1.463817138671875,0.07062224298715591,0.24457672238349915,-0.02299993298947811
1739919874216799000,1.473799072265625,0.08508434891700745,0.20878954231739044,-0.051550790667533875
1739919874226781000,1.483781005859375,0.09679053723812103,0.17203977704048157,-0.08562274277210236
1739919874236764000,1.493763916015625,0.09359771013259888,0.15054097771644592,-0.11874940246343613
1739919874246745900,1.503745849609375,0.10086201131343842,0.13997384905815125,-0.1414342075586319
1739919874256728800,1.513728759765625,0.09772542119026184,0.14206185936927795,-0.14615915715694427
1739919874266711000,1.5237109375,0.0995001569390297,0.15244951844215393,-0.12703180313110352
1739919874276693000,1.53369287109375,0.09184115380048752,0.17048723995685577,-0.09009352326393127
1739919874286676000,1.543676025390625,0.07177503407001495,0.20108456909656525,-0.04384080320596695
1739919874296658000,1.553657958984375,0.055657047778367996,0.23020514845848083,0.006359838880598545
1739919874306640000,1.563639892578125,0.0683203786611557,0.2345634251832962,0.06356000900268555
1739919874316622800,1.573622802734375,0.09142216295003891,0.23166914284229279,0.12253517657518387
1739919874326604800,1.583604736328125,0.10989464819431305,0.23508810997009277,0.17252564430236816
1739919874336587000,1.5935869140625,0.13325922191143036,0.2508390247821808,0.20343361794948578
1739919874346570000,1.603570068359375,0.15361694991588593,0.27097785472869873,0.24798883497714996
1739919874356552000,1.613552001953125,0.15773071348667145,0.3109334111213684,0.29517853260040283
1739919874366534000,1.623533935546875,0.15674640238285065,0.37972313165664673,0.34902364015579224
1739919874376516900,1.633516845703125,0.15588566660881042,0.462076336145401,0.4165217876434326
1739919874386498800,1.643498779296875,0.1533423513174057,0.5288593769073486,0.4721885025501251
1739919874396482000,1.65348193359375,0.14295019209384918,0.5574442744255066,0.45239734649658203
1739919874406464800,1.66346484375,0.12989725172519684,0.5363816022872925,0.33181339502334595
1739919874416446700,1.67344677734375,0.1211160272359848,0.47619664669036865,0.12595045566558838
1739919874426429700,1.6834296875,0.10718556493520737,0.39789649844169617,-0.09000767767429352
1739919874436411600,1.69341162109375,0.10010220110416412,0.3329493999481201,-0.282866895198822
1739919874446393900,1.703393798828125,0.11472508311271667,0.28666314482688904,-0.42422109842300415
1739919874456376800,1.713376953125,0.1238313615322113,0.27816545963287354,-0.5062617659568787
1739919874466358800,1.72335888671875,0.11189880222082138,0.31815576553344727,-0.5310630202293396
1739919874476340700,1.7333408203125,0.06564134359359741,0.3975920081138611,-0.5012104511260986
1739919874486323700,1.74332373046875,0.007931172847747803,0.5011447668075562,-0.46116286516189575
1739919874496305700,1.7533056640625,-0.03883187845349312,0.603032648563385,-0.4422183036804199
1739919874506287900,1.763287841796875,-0.06526347994804382,0.6250079870223999,-0.49113816022872925
1739919874516270600,1.7732705078125,-0.07853948324918747,0.6281083822250366,-0.6790733337402344
1739919874526252800,1.783252685546875,-0.08362505584955215,0.8078858852386475,-0.7674481868743896
1739919874536235800,1.79323583984375,-0.09648190438747406,0.9949034452438354,-0.7553139925003052
1739919874546217700,1.8032177734375,-0.12429489195346832,1.1860052347183228,-0.7317428588867188
1739919874556199700,1.81319970703125,-0.14565786719322205,1.4420660734176636,-0.6729403138160706
1739919874566182700,1.8231826171875,-0.16778820753097534,1.7643862962722778,-0.5496810078620911
1739919874576164600,1.83316455078125,-0.17465996742248535,2.0759434700012207,-0.46179288625717163
1739919874586146600,1.843146484375,-0.19601505994796753,2.2832717895507812,-0.4754040539264679
1739919874596129500,1.853129638671875,-0.22702135145664215,2.35603666305542,-0.5743522644042969
1739919874606111700,1.86311181640625,-0.26524436473846436,2.3406829833984375,-0.6952064633369446
1739919874616093700,1.87309375,-0.31100285053253174,2.3224077224731445,-0.766494631767273
1739919874626076700,1.88307666015625,-0.37333494424819946,2.36399507522583,-0.7595275044441223
1739919874636059000,1.893058837890625,-0.46151426434516907,2.475399971008301,-0.6705636978149414
1739919874646040600,1.90304052734375,-0.5734778046607971,2.652271032333374,-0.5233468413352966
1739919874656023800,1.91302392578125,-0.6833471655845642,2.8700592517852783,-0.34310996532440186
1739919874666005500,1.923005615234375,-0.7816726565361023,3.059912919998169,-0.21220441162586212
1739919874675988700,1.93298876953125,-0.8669778108596802,3.207387924194336,-0.16201473772525787
1739919874685970700,1.942970703125,-0.9622724056243896,3.331610918045044,-0.19168315827846527
1739919874695952600,1.95295263671875,-1.0662015676498413,3.3950462341308594,-0.27944713830947876
1739919874705935600,1.962935546875,-1.1997559070587158,3.4254798889160156,-0.4012795686721802
1739919874715917800,1.972917724609375,-1.382437825202942,3.460228443145752,-0.5173586010932922
1739919874725899800,1.982899658203125,-1.5973118543624878,3.5278220176696777,-0.5511072278022766
1739919874735882800,1.9928828125,-1.8042526245117188,3.7220075130462646,-0.47000083327293396
1739919874745864700,2.00286474609375,-1.9655715227127075,4.004223823547363,-0.2694738805294037
1739919874755846700,2.0128466796875,-2.070535898208618,4.2999043464660645,-0.027562232688069344
1739919874765830000,2.022829833984375,-2.137204170227051,4.447773456573486,0.16116879880428314
1739919874775811600,2.0328115234375,-2.144660472869873,4.422162055969238,0.23404236137866974
1739919874785793800,2.042793701171875,-2.0019354820251465,4.264028549194336,0.24350616335868835
1739919874795776500,2.052776611328125,-2.0104165077209473,4.126476287841797,0.13325126469135284
1739919874805758700,2.0627587890625,-2.135251045227051,3.862865686416626,0.004944425076246262
1739919874815741700,2.07274169921875,-2.331099271774292,3.532970666885376,-0.12216860055923462
1739919874825723600,2.0827236328125,-2.5657269954681396,3.226148843765259,-0.2490280121564865
1739919874835705900,2.092705810546875,-2.7850680351257324,3.0624852180480957,-0.32920122146606445
1739919874845688800,2.102688720703125,-2.9282469749450684,2.961641788482666,-0.33133548498153687
1739919874855670800,2.1126708984375,-3.0175647735595703,2.8534040451049805,-0.29241955280303955
1739919874865652700,2.12265283203125,-3.07893443107605,2.7496769428253174,-0.2869962751865387
1739919874875635700,2.1326357421875,-3.1259114742279053,2.6275665760040283,-0.367277055978775
1739919874885617700,2.14261767578125,-3.2010250091552734,2.5826377868652344,-0.5553026795387268
1739919874895599600,2.152599609375,-3.3070030212402344,2.61209774017334,-0.7919471859931946
1739919874905582600,2.16258251953125,-3.421677827835083,2.689162492752075,-1.0296682119369507
1739919874915564800,2.172564697265625,-3.5364274978637695,2.7245538234710693,-1.2087817192077637
1739919874925547500,2.182547607421875,-3.6920242309570312,2.693115711212158,-1.3032703399658203
1739919874935529700,2.19252978515625,-3.9163126945495605,2.5466766357421875,-1.3285428285598755
1739919874945512000,2.202511962890625,-4.152191638946533,2.18731427192688,-1.2856853008270264
1739919874955494700,2.21249462890625,-4.343947887420654,1.7228834629058838,-1.201397180557251
1739919874965476900,2.222476806640625,-4.442028999328613,1.2535569667816162,-1.0796151161193848
1739919874975458600,2.23245849609375,-4.431888580322266,0.8135879039764404,-0.9300071001052856
1739919874985441800,2.24244189453125,-4.334163188934326,0.4216720759868622,-0.7300798892974854
1739919874995423700,2.252423828125,-4.162904262542725,0.1097012311220169,-0.51915442943573
1739919875005405700,2.26240576171875,-3.953747510910034,-0.1281571239233017,-0.32721638679504395
1739919875015388700,2.272388671875,-3.73061466217041,-0.25735270977020264,-0.17869172990322113
1739919875025370600,2.28237060546875,-3.462451219558716,-0.2893063724040985,-0.07841573655605316
1739919875035353600,2.292353515625,-3.2077932357788086,-0.25962385535240173,-0.00645285751670599
1739919875045335800,2.302335693359375,-2.9782183170318604,-0.18044325709342957,0.045422591269016266
1739919875055317800,2.31231787109375,-2.762967824935913,-0.06421532481908798,0.09390860795974731
1739919875065300700,2.32230078125,-2.515305757522583,0.07118004560470581,0.11687783896923065
1739919875075282700,2.33228271484375,-2.216151475906372,0.18290746212005615,0.11656004935503006
1739919875085264600,2.3422646484375,-1.8612788915634155,0.20556801557540894,0.085788294672966
1739919875095248000,2.352247802734375,-1.4842724800109863,0.10972650349140167,0.010634951293468475
1739919875105229600,2.3622294921875,-1.150832176208496,-0.034624289721250534,-0.12291938066482544
1739919875115211800,2.372211669921875,-0.8934544920921326,-0.18561199307441711,-0.3257068395614624
1739919875125194800,2.38219482421875,-0.759598433971405,-0.3071642518043518,-0.6022822260856628
1739919875135176700,2.3921767578125,-0.7760541439056396,-0.3297480642795563,-0.9277641773223877
1739919875145158700,2.40215869140625,-0.8804146647453308,-0.2940260171890259,-1.2688103914260864
1739919875155141600,2.4121416015625,-1.0205601453781128,-0.24190165102481842,-1.5579638481140137
1739919875165123600,2.42212353515625,-1.1376588344573975,-0.181524857878685,-1.7271299362182617
1739919875175106800,2.43210693359375,-1.1462494134902954,-0.105128213763237,-1.7673970460891724
1739919875185088500,2.442088623046875,-1.0497814416885376,-0.007211505435407162,-1.7007426023483276
1739919875195070700,2.45207080078125,-0.8501039147377014,0.06931118667125702,-1.5395281314849854
1739919875205053700,2.4620537109375,-0.56014084815979,0.1108919233083725,-1.2896716594696045
1739919875215035600,2.47203564453125,-0.2097998410463333,0.1466139554977417,-0.9581302404403687
1739919875225017900,2.482017822265625,0.12600132822990417,0.22153161466121674,-0.5746289491653442
1739919875235000600,2.49200048828125,0.4247310757637024,0.3761860132217407,-0.18503066897392273
1739919875244982800,2.501982666015625,0.6951596140861511,0.6294366717338562,0.18456175923347473
1739919875254964700,2.51196484375,0.9494709968566895,0.9531737565994263,0.4938219487667084
1739919875264947700,2.52194775390625,1.1875029802322388,1.3180235624313354,0.7192206978797913
1739919875274929700,2.5319296875,1.4201571941375732,1.6717617511749268,0.8637061715126038
1739919875284913000,2.541912841796875,1.6825031042099,1.9544339179992676,0.9522097110748291
1739919875294894600,2.55189453125,1.9602612257003784,2.1044814586639404,0.9964305758476257
1739919875304876800,2.561876708984375,2.247448205947876,2.1093616485595703,1.0130889415740967
1739919875314859500,2.571859619140625,2.5469491481781006,1.9562466144561768,1.0218939781188965
1739919875324841700,2.581841796875,2.830371379852295,1.700671672821045,1.025057077407837
1739919875334823700,2.59182373046875,3.0808050632476807,1.3989936113357544,1.015735149383545
1739919875344806700,2.601806640625,3.272282600402832,1.0997523069381714,0.9782604575157166
1739919875354788900,2.611788818359375,3.416128635406494,0.8306676149368286,0.9233565330505371
1739919875364770600,2.6217705078125,3.5175423622131348,0.612013041973114,0.8486478924751282
1739919875374753800,2.63175390625,3.5722315311431885,0.4378829896450043,0.7827059030532837
1739919875384735700,2.64173583984375,3.5916433334350586,0.3111026883125305,0.747505784034729
1739919875394718700,2.65171875,3.595576524734497,0.22663263976573944,0.7284020185470581
1739919875404700000,2.661699951171875,3.591942071914673,0.14346078038215637,0.7071588039398193
1739919875414681900,2.671681884765625,3.5968658924102783,0.05899226292967796,0.6540946960449219
1739919875424665000,2.6816650390625,3.614780902862549,0.0005241581238806248,0.5680524706840515
1739919875434646800,2.691646728515625,3.63938045501709,-0.03369426727294922,0.4540172219276428
1739919875444629000,2.70162890625,3.645156145095825,-0.05119309946894646,0.31721675395965576
1739919875454612000,2.711612060546875,3.6016173362731934,-0.041936688125133514,0.15107369422912598
1739919875464594000,2.721593994140625,3.4951460361480713,-0.001482740044593811,-0.04838775098323822
1739919875474576000,2.731575927734375,3.3496363162994385,0.020442135632038116,-0.2723758816719055
1739919875484558800,2.741558837890625,3.223676919937134,0.0022258483804762363,-0.4881398379802704
1739919875494541000,2.751541015625,3.11624813079834,-0.05732937157154083,-0.659078061580658
1739919875504524000,2.76152392578125,3.012815475463867,-0.16380149126052856,-0.7557902336120605
1739919875514506000,2.771506103515625,2.9246973991394043,-0.2810496687889099,-0.7739468216896057
1739919875524488000,2.781488037109375,2.876190423965454,-0.37627527117729187,-0.7312169075012207
1739919875534471000,2.791470947265625,2.8554515838623047,-0.43863365054130554,-0.6579540371894836
1739919875544452900,2.801452880859375,2.8449509143829346,-0.45761266350746155,-0.5634568333625793
1739919875554435000,2.81143505859375,2.8145999908447266,-0.4332779347896576,-0.4902152419090271
1739919875564417800,2.821417724609375,2.7715697288513184,-0.3852955102920532,-0.450918972492218
1739919875574400000,2.83139990234375,2.6956326961517334,-0.314527690410614,-0.4600052833557129
1739919875584381700,2.841381591796875,2.582951784133911,-0.23515374958515167,-0.5375581383705139
1739919875594365000,2.851364990234375,2.4416401386260986,-0.1459455043077469,-0.665659487247467
1739919875604347000,2.861346923828125,2.280956506729126,-0.0322522334754467,-0.8309222459793091
1739919875614329900,2.871329833984375,2.130549669265747,0.08573709428310394,-1.0077255964279175
1739919875624311800,2.881311767578125,2.012092351913452,0.18524610996246338,-1.1672236919403076
1739919875634294000,2.8912939453125,1.9433430433273315,0.21157148480415344,-1.2723164558410645
1739919875644276700,2.90127685546875,1.9275153875350952,0.12174466252326965,-1.3292484283447266
1739919875654259000,2.911259033203125,1.9390093088150024,-0.10467560589313507,-1.3692418336868286
1739919875664241000,2.921240966796875,1.900602102279663,-0.35879868268966675,-1.4182095527648926
1739919875674223900,2.931223876953125,1.7813670635223389,-0.5620566606521606,-1.4999219179153442
1739919875684206000,2.9412060546875,1.5965874195098877,-0.6856803297996521,-1.5949701070785522
1739919875694188800,2.951188720703125,1.3785799741744995,-0.7441184520721436,-1.6897491216659546
1739919875704171000,2.9611708984375,1.146385908126831,-0.772840678691864,-1.7553025484085083
1739919875714152700,2.971152587890625,0.9221522808074951,-0.7723443508148193,-1.750937581062317
1739919875724136000,2.981135986328125,0.7029517292976379,-0.7432634234428406,-1.657767415046692
1739919875734118000,2.991117919921875,0.508860170841217,-0.6708203554153442,-1.4853781461715698
1739919875744099800,3.001099853515625,0.3637906014919281,-0.5640057325363159,-1.2502928972244263
1739919875754082800,3.011082763671875,0.2557428777217865,-0.43247339129447937,-0.9808756113052368
1739919875764065000,3.02106494140625,0.1760389804840088,-0.27672532200813293,-0.6921833753585815
1739919875774047000,3.031046875,0.12850837409496307,-0.08455729484558105,-0.40886983275413513
1739919875784030000,3.041030029296875,0.1071181371808052,0.14893881976604462,-0.15911433100700378
1739919875794012000,3.051011962890625,0.11434487253427505,0.4132169485092163,0.0506218783557415
1739919875803995000,3.060994873046875,0.12204806506633759,0.6868340969085693,0.23974493145942688
1739919875813977000,3.07097705078125,0.12477733194828033,0.9071539044380188,0.40709513425827026
1739919875823958800,3.080958740234375,0.10856613516807556,1.0535649061203003,0.5499484539031982
1739919875833942000,3.09094189453125,0.06292470544576645,1.136570692062378,0.6827070116996765
1739919875843923700,3.100923828125,-0.014445451088249683,1.1431827545166016,0.8010342121124268
1739919875853906000,3.110906005859375,-0.12818923592567444,1.0614707469940186,0.9075372815132141
1739919875863889000,3.120888916015625,-0.2755912244319916,0.8990412950515747,0.9883682131767273
1739919875873870800,3.130870849609375,-0.44662562012672424,0.6841414570808411,1.031070590019226
1739919875883853000,3.14085302734375,-0.6312870979309082,0.46825096011161804,1.0396595001220703
1739919875893836000,3.1508359375,-0.8157010078430176,0.2890622019767761,1.017725944519043
1739919875903818000,3.16081787109375,-1.0036064386367798,0.162794291973114,0.9732663035392761
1739919875913801000,3.170801025390625,-1.1748327016830444,0.0908857211470604,0.9174582362174988
1739919875923783000,3.180782958984375,-1.320942997932434,0.044262561947107315,0.8792080283164978
1739919875933764900,3.190764892578125,-1.4256025552749634,-0.027838084846735,0.8618588447570801
1739919875943748000,3.200748046875,-1.4899537563323975,-0.18741416931152344,0.8457384705543518
1739919875953729800,3.210729736328125,-1.5227861404418945,-0.4704693555831909,0.810170590877533
1739919875963712000,3.2207119140625,-1.5304608345031738,-0.8356984257698059,0.7225704789161682
1739919875973694700,3.23069482421875,-1.5694502592086792,-1.203075885772705,0.5814964771270752
1739919875983677000,3.240677001953125,-1.7215346097946167,-1.4255517721176147,0.40107372403144836
1739919875993659100,3.2506591796875,-2.044372797012329,-1.4407813549041748,0.19673797488212585
1739919876003641900,3.260641845703125,-2.503535509109497,-1.255475640296936,-0.028310583904385567
1739919876013624000,3.2706240234375,-3.029743194580078,-0.9179644584655762,-0.2572968304157257
1739919876023607000,3.28060693359375,-3.549729824066162,-0.4774704873561859,-0.4587937295436859
1739919876033589000,3.290589111328125,-3.9803755283355713,-0.009858489036560059,-0.5980227589607239
1739919876043571000,3.300571044921875,-4.2815327644348145,0.43237194418907166,-0.6623780727386475
1739919876053554000,3.310553955078125,-4.473277568817139,0.8103757500648499,-0.6626905798912048
1739919876063535900,3.320535888671875,-4.569259166717529,1.106319546699524,-0.6177622675895691
1739919876073517800,3.330517822265625,-4.581087112426758,1.298266887664795,-0.5272746682167053
1739919876083500800,3.340500732421875,-4.545518398284912,1.404449224472046,-0.4097307026386261
1739919876093483000,3.35048291015625,-4.4864420890808105,1.4231085777282715,-0.27490803599357605
1739919876103466000,3.360466064453125,-4.450021266937256,1.36276376247406,-0.143127903342247
1739919876113448000,3.370447998046875,-4.439008712768555,1.2074021100997925,-0.04141950234770775
1739919876123430000,3.380429931640625,-4.477563381195068,0.9963193535804749,0.035200174897909164
1739919876133412900,3.390412841796875,-4.570426940917969,0.7209899425506592,0.07938359677791595
1739919876143395000,3.40039501953125,-4.680785179138184,0.42976072430610657,0.11637969315052032
1739919876153376800,3.410376708984375,-4.76976203918457,0.18760856986045837,0.15010052919387817
1739919876163360000,3.420360107421875,-4.8017964363098145,0.005786578170955181,0.1997770071029663
1739919876173342000,3.430342041015625,-4.785884857177734,-0.10460488498210907,0.268907755613327
1739919876183324000,3.440323974609375,-4.7090582847595215,-0.1878393292427063,0.3872421085834503
1739919876193307000,3.450306884765625,-4.567448139190674,-0.21112477779388428,0.5590302348136902
1739919876203289000,3.4602890625,-4.327998161315918,-0.14893010258674622,0.76995849609375
1739919876213271800,3.470271728515625,-3.985652208328247,-0.03761020675301552,1.0132607221603394
1739919876223254000,3.48025390625,-3.5723798274993896,0.04079751670360565,1.2734758853912354
1739919876233235700,3.490235595703125,-3.1190171241760254,0.0740949735045433,1.5209063291549683
1739919876243219000,3.500218994140625,-2.6545722484588623,0.04015698656439781,1.7277806997299194
1739919876253201000,3.510200927734375,-2.2043328285217285,-0.026157567277550697,1.8724085092544556
1739919876263182800,3.520182861328125,-1.7712628841400146,-0.07197245955467224,1.9437700510025024
1739919876273165800,3.530165771484375,-1.3226861953735352,-0.005652192514389753,1.9507089853286743
1739919876283147800,3.540147705078125,-0.8739667534828186,0.2155049592256546,1.913586974143982
1739919876293130800,3.550130859375,-0.4594564139842987,0.5203195810317993,1.8264516592025757
1739919876303113000,3.560113037109375,-0.10101434588432312,0.900658905506134,1.7066956758499146
1739919876313095000,3.570094970703125,0.20146924257278442,1.2922919988632202,1.5896484851837158
1739919876323078000,3.580077880859375,0.44828805327415466,1.63726007938385,1.4887615442276
1739919876333060000,3.59006005859375,0.6541720628738403,1.8815395832061768,1.3986270427703857
1739919876343041800,3.600041748046875,0.8354132175445557,1.9871524572372437,1.2851707935333252
1739919876353025000,3.61002490234375,0.9607741832733154,2.043198347091675,1.1615501642227173
1739919876363006700,3.6200068359375,1.056453824043274,2.0769317150115967,1.011087417602539
1739919876372989000,3.629989013671875,1.1133774518966675,2.0863699913024902,0.8304182887077332
1739919876382972000,3.639971923828125,1.1312295198440552,2.0260493755340576,0.6253234148025513
1739919876392953900,3.649953857421875,1.146003007888794,1.90830397605896,0.40683966875076294
1739919876402937000,3.65993701171875,1.2011737823486328,1.7565118074417114,0.19950830936431885
1739919876412919300,3.669919189453125,1.293013095855713,1.5737425088882446,0.0042244745418429375
1739919876422901200,3.6799013671875,1.4293317794799805,1.341254711151123,-0.16692861914634705
1739919876432884200,3.68988427734375,1.6142470836639404,1.0905836820602417,-0.2971576750278473
1739919876442866200,3.6998662109375,1.8392269611358643,0.8545243740081787,-0.38919597864151
1739919876452848000,3.70984814453125,2.0938475131988525,0.6495729088783264,-0.4378361999988556
1739919876462831400,3.719831298828125,2.355816125869751,0.46728062629699707,-0.4586072564125061
1739919876472813000,3.72981298828125,2.6032040119171143,0.3053078353404999,-0.4608982801437378
1739919876482796300,3.73979638671875,2.8101298809051514,0.1636204719543457,-0.45293888449668884
1739919876492778000,3.749778076171875,2.974956750869751,0.04479869082570076,-0.45861804485321045
1739919876502760200,3.75976025390625,3.129678249359131,-0.029645182192325592,-0.4973079264163971
1739919876512743200,3.7697431640625,3.2710013389587402,-0.017983222380280495,-0.5650923252105713
1739919876522725000,3.77972509765625,3.4031951427459717,0.0591357983648777,-0.6608383059501648
1739919876532707300,3.789707275390625,3.4889838695526123,0.133778378367424,-0.7707363367080688
1739919876542690300,3.799690185546875,3.510601282119751,0.1687142550945282,-0.8773602843284607
1739919876552672300,3.80967236328125,3.4917030334472656,0.12608933448791504,-0.9859759211540222
1739919876562655200,3.8196552734375,3.468463897705078,0.02834068238735199,-1.1114579439163208
1739919876572637200,3.82963720703125,3.4661405086517334,-0.07328912615776062,-1.261489987373352
1739919876582619100,3.839619140625,3.4691336154937744,-0.13779328763484955,-1.425343632698059
1739919876592602400,3.849602294921875,3.4753105640411377,-0.16361859440803528,-1.5804872512817383
1739919876602584000,3.859583984375,3.4861810207366943,-0.1849643588066101,-1.700494408607483
1739919876612566300,3.869566162109375,3.4916515350341797,-0.2328042834997177,-1.7553856372833252
1739919876622549000,3.879549072265625,3.4926419258117676,-0.30474504828453064,-1.7487215995788574
1739919876632531200,3.88953125,3.478767156600952,-0.39318445324897766,-1.7128902673721313
1739919876642513200,3.89951318359375,3.4525773525238037,-0.4726547598838806,-1.6877018213272095
1739919876652496100,3.90949609375,3.403151750564575,-0.5024194717407227,-1.7143172025680542
1739919876662478300,3.919478271484375,3.3274965286254883,-0.45456671714782715,-1.7750502824783325
1739919876672461300,3.92946142578125,3.2281715869903564,-0.36006397008895874,-1.8381471633911133
1739919876682443300,3.939443359375,3.111788272857666,-0.28480517864227295,-1.85866117477417
1739919876692425200,3.94942529296875,2.9851720333099365,-0.23640470206737518,-1.8098695278167725
1739919876702408200,3.959408203125,2.8680715560913086,-0.19791723787784576,-1.7136188745498657
1739919876712390100,3.96939013671875,2.770683765411377,-0.18885791301727295,-1.594855785369873
1739919876722372000,3.9793720703125,2.685574531555176,-0.22770226001739502,-1.4794678688049316
1739919876732355000,3.98935498046875,2.560482978820801,-0.28782880306243896,-1.3818893432617188
1739919876742337300,3.999337158203125,2.3468823432922363,-0.3206956684589386,-1.313547134399414
1739919876752320000,4.009320068359375,2.0531983375549316,-0.3118530511856079,-1.2640407085418701
1739919876762302200,4.01930224609375,1.7166978120803833,-0.2633257210254669,-1.2419843673706055
1739919876772284200,4.0292841796875,1.3234913349151611,-0.1678694635629654,-1.219990849494934
1739919876782267100,4.03926708984375,0.889742910861969,-0.024056371301412582,-1.1742284297943115
1739919876792249000,4.0492490234375,0.45064252614974976,0.15865585207939148,-1.1071112155914307
1739919876802231000,4.05923095703125,0.02047199010848999,0.3422967791557312,-0.9895808696746826
1739919876812214000,4.069214111328125,-0.36342641711235046,0.5167354345321655,-0.7911508679389954
1739919876822196200,4.0791962890625,-0.6320368647575378,0.6319658756256104,-0.5114963054656982
1739919876832179000,4.089178955078125,-0.779417097568512,0.6554368138313293,-0.18709620833396912
1739919876842161200,4.0991611328125,-0.8322225213050842,0.6066340804100037,0.1538400799036026
1739919876852143000,4.10914306640625,-0.8423528075218201,0.5290206074714661,0.4679699242115021
1739919876862126000,4.1191259765625,-0.8131651282310486,0.4765092134475708,0.7047041654586792
1739919876872108300,4.1291083984375,-0.7479130625724792,0.47245559096336365,0.8574243187904358
1739919876882090000,4.139090087890625,-0.6283395290374756,0.4902164936065674,0.9349875450134277
1739919876892073200,4.1490732421875,-0.5142415761947632,0.5084978342056274,0.948205828666687
1739919876902055200,4.15905517578125,-0.46037065982818604,0.4783191382884979,0.914426326751709
1739919876912038100,4.1690380859375,-0.5029345154762268,0.3719739019870758,0.8443695306777954
1739919876922019300,4.179019287109375,-0.635466456413269,0.18982942402362823,0.7549186944961548
1739919876932002000,4.189001953125,-0.8138588666915894,-0.06301633268594742,0.6391890645027161
1739919876941984300,4.198984375,-1.0040583610534668,-0.35112693905830383,0.5066720247268677
1739919876951967200,4.20896728515625,-1.2236000299453735,-0.6213350296020508,0.3487508296966553
1739919876961949200,4.21894921875,-1.5091561079025269,-0.8071629405021667,0.1705094426870346
1739919876971931100,4.22893115234375,-1.8744043111801147,-0.8678015470504761,-0.0019067497923970222
1739919876981914400,4.238914306640625,-2.3144006729125977,-0.8005359768867493,-0.10604966431856155
1739919876991896000,4.24889599609375,-2.7675931453704834,-0.6659212112426758,-0.09792067110538483
1739919877001879300,4.25887939453125,-3.182638168334961,-0.5195160508155823,0.002880774438381195
1739919877011861000,4.268861083984375,-3.502356767654419,-0.43901166319847107,0.1730155497789383
1739919877021843200,4.27884326171875,-3.7158665657043457,-0.40051859617233276,0.3330318331718445
1739919877031826200,4.288826171875,-3.827298879623413,-0.33495932817459106,0.4551468789577484
1739919877041808100,4.29880810546875,-3.8422703742980957,-0.19176438450813293,0.5286642909049988
1739919877051790300,4.308790283203125,-3.7835114002227783,0.027813810855150223,0.55962073802948
1739919877061773000,4.31877294921875,-3.68381929397583,0.2992306649684906,0.5644364953041077
1739919877071755300,4.32875537109375,-3.580263137817383,0.5661780834197998,0.553573489189148
1739919877081738200,4.33873828125,-3.501192569732666,0.758934497833252,0.5370581746101379
1739919877091720200,4.34872021484375,-3.458139419555664,0.8570823669433594,0.48603442311286926
1739919877101702100,4.3587021484375,-3.4279353618621826,0.888185441493988,0.40438804030418396
1739919877111685400,4.368685302734375,-3.4033920764923096,0.8739226460456848,0.2930687963962555
1739919877121667000,4.3786669921875,-3.3905651569366455,0.8036364912986755,0.1575956642627716
1739919877131649300,4.388649169921875,-3.416917085647583,0.677547037601471,0.01632571965456009
1739919877141632000,4.398632080078125,-3.4706079959869385,0.4869946539402008,-0.12659814953804016
1739919877151614200,4.4086142578125,-3.533775806427002,0.31198400259017944,-0.26414766907691956
1739919877161597200,4.41859716796875,-3.5668063163757324,0.21000997722148895,-0.43570423126220703
1739919877171579100,4.4285791015625,-3.590688705444336,0.17158687114715576,-0.6334919333457947
1739919877181561300,4.438561279296875,-3.6073856353759766,0.18534795939922333,-0.8177238702774048
1739919877191544000,4.4485439453125,-3.618558645248413,0.2415451556444168,-0.9369553923606873
1739919877201526300,4.4585263671875,-3.5937695503234863,0.2544005215167999,-0.9956605434417725
1739919877211508200,4.46850830078125,-3.5344717502593994,0.20031648874282837,-1.014629602432251
1739919877221491200,4.4784912109375,-3.4283506870269775,0.08455739915370941,-1.013559341430664
1739919877231473200,4.48847314453125,-3.299771308898926,-0.052199821919202805,-1.0130410194396973
1739919877241456400,4.498456298828125,-3.1604020595550537,-0.11396065354347229,-1.007830023765564
1739919877251438000,4.50843798828125,-2.9836409091949463,-0.10864521563053131,-0.9803098440170288
1739919877261420300,4.518420166015625,-2.770387887954712,-0.11069425195455551,-0.9009305834770203
1739919877271403000,4.528403076171875,-2.5305540561676025,-0.1759764701128006,-0.7530190348625183
1739919877281385200,4.53838525390625,-2.2587592601776123,-0.31841298937797546,-0.5489497780799866
1739919877291367200,4.5483671875,-1.9526015520095825,-0.5170479416847229,-0.310463011264801
1739919877301350100,4.55835009765625,-1.6236028671264648,-0.726018488407135,-0.040579598397016525
1739919877311332400,4.568332275390625,-1.2646450996398926,-0.882345974445343,0.2711286246776581
1739919877321315000,4.578315185546875,-0.841623067855835,-0.9440306425094604,0.6006211042404175
1739919877331297300,4.58829736328125,-0.30411985516548157,-0.9210404753684998,0.9396588206291199
1739919877341279200,4.598279296875,0.3443223237991333,-0.7781754732131958,1.2623802423477173
1739919877351262200,4.60826220703125,1.0564181804656982,-0.5142115354537964,1.5427485704421997
1739919877361244200,4.618244140625,1.7696516513824463,-0.15008527040481567,1.7699618339538574
1739919877371226000,4.62822607421875,2.4132096767425537,0.29439109563827515,1.9191195964813232
1739919877381209000,4.638208984375,2.953066349029541,0.7805508971214294,1.9941413402557373
1739919877391191300,4.64819140625,3.379110813140869,1.2372511625289917,1.9911589622497559
1739919877401174000,4.658174072265625,3.677706241607666,1.6363098621368408,1.9131791591644287
1739919877411156200,4.66815625,3.8516955375671387,1.9366432428359985,1.7587342262268066
1739919877421138200,4.67813818359375,3.92153263092041,2.1229140758514404,1.5394316911697388
1739919877431121200,4.68812109375,3.899277687072754,2.167351007461548,1.250977635383606
1739919877441103000,4.69810302734375,3.8057541847229004,2.0458083152770996,0.9232553839683533
1739919877451085000,4.7080849609375,3.7046737670898438,1.775823712348938,0.566279411315918
1739919877461068000,4.718068115234375,3.6240899562835693,1.4239284992218018,0.2219579666852951
1739919877471050000,4.728050048828125,3.60145902633667,1.0035086870193481,-0.09014631807804108
1739919877481033000,4.738032958984375,3.6344988346099854,0.5744149088859558,-0.3617304265499115
1739919877491015200,4.74801513671875,3.701714515686035,0.19506551325321198,-0.5749843120574951
1739919877500997000,4.7579970703125,3.7890427112579346,-0.09809420257806778,-0.7407346963882446
1739919877510980000,4.76797998046875,3.9015746116638184,-0.33225274085998535,-0.8473788499832153
1739919877520962000,4.777962158203125,4.018252849578857,-0.5335477590560913,-0.8937098383903503
1739919877530944000,4.787944091796875,4.122445106506348,-0.6937227845191956,-0.8856980204582214
1739919877540927200,4.79792724609375,4.230128765106201,-0.8064983487129211,-0.8359975814819336
1739919877550909000,4.807908935546875,4.341877460479736,-0.8604130744934082,-0.7683587670326233
1739919877560892200,4.81789208984375,4.45028829574585,-0.8609265089035034,-0.7130268216133118
1739919877570873900,4.827873779296875,4.5409255027771,-0.8392484188079834,-0.6911988854408264
1739919877580856000,4.83785595703125,4.609226226806641,-0.7704254388809204,-0.6840752363204956
1739919877590839000,4.847839111328125,4.637145519256592,-0.6552273631095886,-0.6968240141868591
1739919877600821000,4.857821044921875,4.625176906585693,-0.5083947777748108,-0.7409094572067261
1739919877610803200,4.86780322265625,4.583075523376465,-0.3956149220466614,-0.8127950429916382
1739919877620786200,4.8777861328125,4.526190280914307,-0.34365665912628174,-0.9090379476547241
1739919877630768000,4.88776806640625,4.46701192855835,-0.41490060091018677,-1.0238726139068604
1739919877640751000,4.897751220703125,4.406601905822754,-0.6141596436500549,-1.169903039932251
1739919877650733000,4.907733154296875,4.356043815612793,-0.9474977254867554,-1.3496907949447632
1739919877660715000,4.917715087890625,4.315632343292236,-1.377074122428894,-1.580146074295044
1739919877670698200,4.9276982421875,4.298043251037598,-1.8195639848709106,-1.8540558815002441
1739919877680680000,4.937679931640625,4.3067097663879395,-2.2015624046325684,-2.136688470840454
1739919877690663200,4.9476630859375,4.289210796356201,-2.4987075328826904,-2.3486905097961426
1739919877700644900,4.957644775390625,4.202863693237305,-2.6975276470184326,-2.4514245986938477
1739919877710627000,4.967626953125,4.054111957550049,-2.8330447673797607,-2.435018301010132
1739919877720610000,4.977610107421875,3.859933614730835,-2.90385103225708,-2.300590991973877
1739919877730592000,4.987592041015625,3.620103120803833,-2.9233462810516357,-2.0777599811553955
1739919877740574200,4.99757421875,3.3503360748291016,-2.879256248474121,-1.82527494430542
1739919877750557200,5.00755712890625,3.0218505859375,-2.7420759201049805,-1.5409674644470215
1739919877760539100,5.0175390625,2.652245283126831,-2.5523030757904053,-1.2400484085083008
1739919877770522000,5.027522216796875,2.2464005947113037,-2.310692310333252,-0.9645019769668579
1739919877780504000,5.037504150390625,1.7980667352676392,-2.0530543327331543,-0.7367334961891174
1739919877790486000,5.047486083984375,1.2998108863830566,-1.767622947692871,-0.5926903486251831
1739919877800469200,5.05746923828125,0.7555228471755981,-1.3838776350021362,-0.519325852394104
1739919877810451000,5.067450927734375,0.17525357007980347,-0.9153711795806885,-0.5123007893562317
1739919877820433200,5.07743310546875,-0.40078309178352356,-0.3610781133174896,-0.549410879611969
1739919877830416100,5.087416015625,-0.965988039970398,0.2840476930141449,-0.6291742920875549
1739919877840398000,5.097398193359375,-1.4926356077194214,0.9753382205963135,-0.7432116270065308
1739919877850381000,5.107381103515625,-1.9184690713882446,1.6830973625183105,-0.8607493042945862
1739919877860363000,5.117363037109375,-2.2149970531463623,2.346871852874756,-0.9194914102554321
1739919877870345200,5.12734521484375,-2.404742479324341,2.9109444618225098,-0.9176267385482788
1739919877880328200,5.137328125,-2.5343799591064453,3.3216094970703125,-0.8340386748313904
1739919877890310100,5.14731005859375,-2.6429290771484375,3.6169488430023193,-0.6837716698646545
1739919877900293000,5.157293212890625,-2.7700603008270264,3.8020761013031006,-0.47657114267349243
1739919877910275000,5.167275146484375,-2.9270262718200684,3.8509562015533447,-0.2359955757856369
1739919877920257000,5.177257080078125,-3.1130030155181885,3.793290138244629,0.016918711364269257
1739919877930240300,5.187240234375,-3.321800708770752,3.642605781555176,0.2640821933746338
1739919877940222000,5.197221923828125,-3.567046642303467,3.4278759956359863,0.48786255717277527
1739919877950204200,5.2072041015625,-3.8362789154052734,3.182532548904419,0.6975057125091553
1739919877960187100,5.217187255859375,-4.109325885772705,2.9338409900665283,0.9034823179244995
1739919877970169000,5.227169189453125,-4.335573196411133,2.7044260501861572,1.1125602722167969
1739919877980152000,5.237152099609375,-4.508087635040283,2.4638326168060303,1.3064464330673218
1739919877990134000,5.247134033203125,-4.623409748077393,2.207188129425049,1.4331791400909424
1739919878000116200,5.2571162109375,-4.686969757080078,1.9396719932556152,1.4885436296463013
1739919878010099200,5.26709912109375,-4.693203449249268,1.68087899684906,1.462288498878479
1739919878020081200,5.2770810546875,-4.660299301147461,1.4632974863052368,1.4024784564971924
1739919878030063000,5.28706298828125,-4.5818610191345215,1.304720163345337,1.3268219232559204
1739919878040046000,5.297046142578125,-4.479611873626709,1.1888561248779297,1.266998529434204
1739919878050028000,5.307028076171875,-4.342202663421631,1.0715664625167847,1.2420740127563477
1739919878060011300,5.31701123046875,-4.199065208435059,0.9404525756835938,1.223768711090088
1739919878069993000,5.326992919921875,-4.095024108886719,0.813555896282196,1.2036561965942383
1739919878079975200,5.33697509765625,-4.033539772033691,0.6560587286949158,1.1607997417449951
1739919878089958100,5.346958251953125,-4.0039896965026855,0.4790436923503876,1.0557607412338257
1739919878099940000,5.356940185546875,-4.006363391876221,0.28786733746528625,0.8897892832756042
1739919878109923000,5.366923095703125,-4.0416083335876465,0.10035452991724014,0.6371272206306458
1739919878119905000,5.376905029296875,-4.113234043121338,-0.06934129446744919,0.28432974219322205
1739919878129887200,5.38688720703125,-4.211848258972168,-0.24478144943714142,-0.176903635263443
1739919878139870200,5.3968701171875,-4.330926418304443,-0.4690779149532318,-0.7413800358772278
1739919878149852200,5.40685205078125,-4.453586101531982,-0.7636983394622803,-1.3543400764465332
1739919878159834000,5.416834228515625,-4.557451248168945,-1.1174750328063965,-2.00203537940979
1739919878169817000,5.426817138671875,-4.622103691101074,-1.4448050260543823,-2.6284351348876953
1739919878179799000,5.436799072265625,-4.630003452301025,-1.717551827430725,-3.2068047523498535
1739919878189782000,5.446781982421875,-4.539687633514404,-1.9080458879470825,-3.72663950920105
1739919878199764000,5.456763916015625,-4.367238998413086,-1.9964271783828735,-4.149682521820068
1739919878209746200,5.46674609375,-4.125955104827881,-2.0249595642089844,-4.421281814575195
1739919878219729200,5.476729248046875,-3.8493881225585938,-2.052192449569702,-4.5082268714904785
1739919878229711000,5.486711181640625,-3.5888829231262207,-2.0709753036499023,-4.422704696655273
1739919878239694000,5.496694091796875,-3.3674192428588867,-2.0974607467651367,-4.226256370544434
1739919878249676000,5.506676025390625,-3.216850996017456,-2.0966994762420654,-3.9713730812072754
1739919878259658000,5.516657958984375,-3.1091275215148926,-2.0067787170410156,-3.693023681640625
1739919878269641200,5.52664111328125,-2.993978261947632,-1.7700964212417603,-3.406768798828125
1739919878279623000,5.536622802734375,-2.845085620880127,-1.4048470258712769,-3.098853588104248
1739919878289605000,5.546605224609375,-2.682192087173462,-0.9848007559776306,-2.7128677368164062
1739919878299588000,5.556588134765625,-2.5132033824920654,-0.5873615741729736,-2.2269184589385986
1739919878309570000,5.566570068359375,-2.3262059688568115,-0.2536223530769348,-1.6270447969436646
1739919878319553000,5.576552978515625,-2.109515428543091,-0.023603536188602448,-0.9362719655036926
1739919878329535000,5.586534912109375,-1.8383687734603882,0.11584743112325668,-0.1861008256673813
1739919878339517200,5.59651708984375,-1.4850560426712036,0.17821919918060303,0.570377767086029
1739919878349500200,5.606500244140625,-1.026307463645935,0.20865106582641602,1.2713662385940552
1739919878359482000,5.616482177734375,-0.420204758644104,0.18283064663410187,1.8358802795410156
1739919878369465000,5.626465087890625,0.33693256974220276,0.13247886300086975,2.241971492767334
1739919878379447000,5.636447021484375,1.1920675039291382,0.09803301095962524,2.510629415512085
1739919878389429000,5.646428955078125,2.053602933883667,0.14977942407131195,2.7034120559692383
1739919878399412200,5.656412109375,2.8218889236450195,0.3075821101665497,2.8668336868286133
1739919878409394400,5.66639453125,3.4896814823150635,0.5363045930862427,3.0230605602264404
1739919878419376400,5.67637646484375,4.0824761390686035,0.8289873003959656,3.159269332885742
1739919878429359400,5.686359375,4.593820095062256,1.1556453704833984,3.242724895477295
1739919878439341600,5.696341552734375,4.9884467124938965,1.4837180376052856,3.271789312362671
1739919878449324300,5.70632421875,5.230444431304932,1.7511039972305298,3.252265214920044
1739919878459306500,5.716306396484375,5.330937385559082,1.9300763607025146,3.1869561672210693
1739919878469288400,5.726288330078125,5.33254337310791,2.0389645099639893,3.080471992492676
1739919878479271400,5.736271484375,5.2536749839782715,2.1249616146087646,2.95184326171875
1739919878489253600,5.746253662109375,5.134712219238281,2.15521502494812,2.8278236389160156
1739919878499236400,5.756236328125,5.006270408630371,2.100923538208008,2.7072737216949463
1739919878509218600,5.766218505859375,4.895443439483643,1.9494378566741943,2.5860519409179688
1739919878519200500,5.776200439453125,4.829429626464844,1.7240926027297974,2.459958076477051
1739919878529183500,5.78618359375,4.8249430656433105,1.5085971355438232,2.312687635421753
1739919878539165400,5.79616552734375,4.869870662689209,1.360574722290039,2.146071195602417
1739919878549148700,5.806148681640625,4.944188117980957,1.2813305854797363,1.9752774238586426
1739919878559130400,5.81613037109375,5.027881622314453,1.20654296875,1.8287543058395386
1739919878569112600,5.826112548828125,5.097808837890625,1.11506986618042,1.688040018081665
1739919878579095300,5.83609521484375,5.140629291534424,1.014325737953186,1.5284128189086914
1739919878589077500,5.846077392578125,5.151610851287842,0.9029282331466675,1.327567458152771
1739919878599059500,5.8560595703125,5.141739845275879,0.804563045501709,1.0639768838882446
1739919878609042400,5.86604248046875,5.121583938598633,0.7554703950881958,0.7399535179138184
1739919878619024600,5.876024658203125,5.095244884490967,0.791549026966095,0.3743467926979065
1739919878629007600,5.886007568359375,5.06169319152832,0.8910778164863586,0.010675488039851189
1739919878638989600,5.895989501953125,5.006893634796143,1.0124540328979492,-0.30703189969062805
1739919878648971500,5.905971435546875,4.923096179962158,1.0947725772857666,-0.5337135791778564
1739919878658954500,5.91595458984375,4.787592887878418,1.1109838485717773,-0.6741729378700256
1739919878668936400,5.9259365234375,4.592883110046387,1.064115285873413,-0.7853075265884399
1739919878678919700,5.935919677734375,4.365781307220459,0.9554631114006042,-0.9194307327270508
1739919878688901400,5.9459013671875,4.144919395446777,0.7827202677726746,-1.0967488288879395
1739919878698883600,5.955883544921875,3.9637022018432617,0.5979759693145752,-1.2800928354263306
1739919878708866300,5.9658662109375,3.8484551906585693,0.3879392445087433,-1.457135796546936
1739919878718848500,5.9758486328125,3.801380157470703,0.14057016372680664,-1.6130740642547607
1739919878728830500,5.98583056640625,3.7937443256378174,-0.10866706818342209,-1.7589114904403687
1739919878738813400,5.9958134765625,3.7787842750549316,-0.3774540424346924,-1.9213876724243164
1739919878748795400,6.00579541015625,3.689189910888672,-0.5932238698005676,-2.0898289680480957
1739919878758778600,6.015778564453125,3.5398497581481934,-0.7056742906570435,-2.254356622695923
1739919878768760300,6.02576025390625,3.373324394226074,-0.7529010772705078,-2.392606496810913
1739919878778742500,6.035742431640625,3.2233083248138428,-0.7455757856369019,-2.493621349334717
1739919878788725500,6.0457255859375,3.0571908950805664,-0.7116761803627014,-2.5356926918029785
1739919878798707500,6.05570751953125,2.827873706817627,-0.6727189421653748,-2.5075199604034424
1739919878808690400,6.0656904296875,2.479813575744629,-0.6348967552185059,-2.4123334884643555
1739919878818672400,6.07567236328125,1.9966447353363037,-0.6281456351280212,-2.247285842895508
1739919878828654600,6.085654541015625,1.3934249877929688,-0.6267696619033813,-2.0153696537017822
1739919878838637300,6.09563720703125,0.6878756284713745,-0.6112639307975769,-1.7513971328735352
1739919878848619500,6.10561962890625,-0.09637996554374695,-0.5544183254241943,-1.4787547588348389
1739919878858602500,6.1156025390625,-0.9343017935752869,-0.43609434366226196,-1.2191303968429565
1739919878868584400,6.12558447265625,-1.7860841751098633,-0.25541093945503235,-0.9764661192893982
1739919878878566400,6.13556640625,-2.5769100189208984,-0.0014636274427175522,-0.7525190114974976
1739919878888549600,6.145549560546875,-3.2475435733795166,0.34344950318336487,-0.49675261974334717
1739919878898531300,6.15553125,-3.782633066177368,0.6653968691825867,-0.1675451546907425
1739919878908513500,6.165513427734375,-4.19905424118042,0.8699310421943665,0.25432127714157104
1739919878918496300,6.175496337890625,-4.512612342834473,0.9744289517402649,0.7530540823936462
1739919878928478500,6.185478515625,-4.694893836975098,0.8985825181007385,1.292481780052185
1739919878938461400,6.19546142578125,-4.742028713226318,0.7669158577919006,1.7907605171203613
1739919878948443400,6.205443359375,-4.706236839294434,0.6380842924118042,2.1675398349761963
1739919878958425600,6.215425537109375,-4.633332252502441,0.5758405923843384,2.3999671936035156
1739919878968408300,6.225408203125,-4.567413806915283,0.6077264547348022,2.490476608276367
1739919878978390500,6.235390625,-4.559359073638916,0.7479288578033447,2.4623587131500244
1739919878988373500,6.24537353515625,-4.602180480957031,0.9015584588050842,2.329106092453003
1739919878998355500,6.25535546875,-4.696649074554443,1.0168583393096924,2.105782985687256
1739919879008337400,6.26533740234375,-4.833521842956543,1.0788735151290894,1.7912322282791138
1739919879018320600,6.275320556640625,-4.987842082977295,1.0899410247802734,1.4062563180923462
1739919879028302300,6.28530224609375,-5.0999369621276855,0.9577628374099731,1.0814908742904663
1739919879038285600,6.29528564453125,-5.203248977661133,0.6068234443664551,0.9306920170783997
1739919879048267300,6.305267333984375,-5.2863006591796875,0.09080950170755386,0.9435779452323914
1739919879058249500,6.31524951171875,-5.357290744781494,-0.46644842624664307,1.0565807819366455
1739919879068232400,6.325232421875,-5.386748790740967,-0.9542322158813477,1.2244691848754883
1739919879078214400,6.33521435546875,-5.344189167022705,-1.3036338090896606,1.391247034072876
1739919879088197400,6.345197265625,-5.236832141876221,-1.45730459690094,1.5319173336029053
1739919879098179600,6.3551796875,-5.060480117797852,-1.4528254270553589,1.626665711402893
1739919879108161500,6.36516162109375,-4.853567123413086,-1.331497073173523,1.6690726280212402
1739919879118144500,6.37514453125,-4.65466833114624,-1.1485134363174438,1.6616452932357788
1739919879128126500,6.38512646484375,-4.473634243011475,-0.9316468238830566,1.5958199501037598
1739919879138108400,6.3951083984375,-4.308781623840332,-0.709644079208374,1.4958046674728394
1739919879148091600,6.405091552734375,-4.164437294006348,-0.469575434923172,1.3690011501312256
1739919879158073300,6.4150732421875,-4.036625862121582,-0.23072318732738495,1.2097492218017578
1739919879168056600,6.425056640625,-3.9000730514526367,-0.016078215092420578,1.025924563407898
1739919879178038300,6.435038330078125,-3.7585809230804443,0.1533297300338745,0.8191606998443604
1739919879188020500,6.4450205078125,-3.6285078525543213,0.2422473281621933,0.6083518266677856
1739919879198003500,6.45500341796875,-3.5118515491485596,0.24747882783412933,0.40729379653930664
1739919879207985400,6.4649853515625,-3.431165933609009,0.17818249762058258,0.1951286494731903
1739919879217968400,6.474968505859375,-3.36360764503479,0.04063769057393074,-0.05126780644059181
1739919879227950600,6.48495068359375,-3.2829840183258057,-0.14078910648822784,-0.32913047075271606
1739919879237932500,6.4949326171875,-3.195679187774658,-0.32513657212257385,-0.6428356766700745
1739919879247915500,6.50491552734375,-3.1136066913604736,-0.5135235786437988,-0.95421302318573
1739919879257897500,6.5148974609375,-3.029449701309204,-0.7673957943916321,-1.2187482118606567
1739919879267880400,6.52488037109375,-2.935743570327759,-1.1047389507293701,-1.391400933265686
1739919879277862700,6.534862548828125,-2.834648847579956,-1.5290687084197998,-1.4828987121582031
1739919879287844400,6.54484423828125,-2.719393253326416,-1.94759202003479,-1.4840843677520752
1739919879297827600,6.55482763671875,-2.5545315742492676,-2.2010228633880615,-1.388159155845642
1739919879307809300,6.564809326171875,-2.3081166744232178,-2.2416369915008545,-1.2162280082702637
1739919879317792500,6.57479248046875,-2.0131664276123047,-2.075765371322632,-0.9417651891708374
1739919879327774500,6.5847744140625,-1.668031930923462,-1.7854893207550049,-0.5663160085678101
1739919879337756400,6.59475634765625,-1.2630330324172974,-1.4435913562774658,-0.08965308964252472
1739919879347739400,6.604739501953125,-0.7997024655342102,-1.127022385597229,0.44966915249824524
1739919879357721600,6.6147216796875,-0.2897913157939911,-0.8939917683601379,1.0032562017440796
1739919879367704300,6.624704345703125,0.25488102436065674,-0.7526236176490784,1.4874162673950195
1739919879377686500,6.6346865234375,0.8310902714729309,-0.6190522313117981,1.8340522050857544
1739919879387668500,6.64466845703125,1.4108034372329712,-0.3810840845108032,2.0004260540008545
1739919879397651500,6.6546513671875,1.9657098054885864,-0.08333628624677658,1.986314296722412
1739919879407633200,6.664633056640625,2.478019952774048,0.28126850724220276,1.8298693895339966
1739919879417615000,6.674614990234375,2.914889335632324,0.6906041502952576,1.5646380186080933
1739919879427598000,6.68459814453125,3.256742477416992,1.0936657190322876,1.2545433044433594
1739919879437580000,6.694580078125,3.5063655376434326,1.4702529907226562,0.9312885999679565
1739919879447563300,6.704563232421875,3.6669070720672607,1.7951596975326538,0.6310253143310547
1739919879457545000,6.714544921875,3.7164247035980225,2.0622994899749756,0.36193206906318665
1739919879467527200,6.724527099609375,3.605785846710205,2.3145956993103027,0.12698900699615479
1739919879477510000,6.734510009765625,3.4127163887023926,2.4884397983551025,-0.07474491745233536
1739919879487492000,6.7444921875,3.1764321327209473,2.5972564220428467,-0.24237050116062164
1739919879497475000,6.75447509765625,2.9748103618621826,2.6238720417022705,-0.36795079708099365
1739919879507457000,6.76445703125,2.839092969894409,2.5847949981689453,-0.4304863512516022
1739919879517439200,6.774439208984375,2.7907614707946777,2.4952704906463623,-0.46626245975494385
1739919879527422200,6.784422119140625,2.833179473876953,2.3624579906463623,-0.495733380317688
1739919879537404200,6.794404052734375,2.9228739738464355,2.1810390949249268,-0.535039484500885
1739919879547387100,6.80438720703125,3.02982234954834,1.9571729898452759,-0.5872891545295715
1739919879557369000,6.814369140625,3.137531280517578,1.6987372636795044,-0.6493061780929565
1739919879567351000,6.82435107421875,3.2648491859436035,1.436170220375061,-0.7057332396507263
1739919879577334300,6.834334228515625,3.40523624420166,1.2231777906417847,-0.7531636357307434
1739919879587316000,6.84431591796875,3.5674655437469482,1.0565494298934937,-0.808580756187439
1739919879597299200,6.85429931640625,3.756086587905884,0.9221447110176086,-0.8870487213134766
1739919879607281000,6.864281005859375,3.958245277404785,0.8119164705276489,-0.9712474346160889
1739919879617263000,6.87426318359375,4.168410778045654,0.7454972267150879,-1.038088321685791
1739919879627246000,6.88424609375,4.358304977416992,0.740826427936554,-1.1051521301269531
1739919879637228000,6.89422802734375,4.535428047180176,0.7730589509010315,-1.2024863958358765
1739919879647211000,6.9042109375,4.684901237487793,0.8295310139656067,-1.323762059211731
1739919879657193200,6.914193115234375,4.799333572387695,0.876503586769104,-1.427680253982544
1739919879667175200,6.924175048828125,4.885493755340576,0.89252108335495,-1.4932082891464233
1739919879677158100,6.934158203125,4.930644512176514,0.8738434910774231,-1.5132049322128296
1739919879687140000,6.94414013671875,4.928730487823486,0.7977862358093262,-1.5036475658416748
1739919879697123000,6.954123046875,4.904901027679443,0.7040823698043823,-1.4834504127502441
1739919879707105300,6.964105224609375,4.870075702667236,0.6329914331436157,-1.4717861413955688
1739919879717087000,6.9740869140625,4.813892841339111,0.5897518396377563,-1.4686869382858276
1739919879727070200,6.9840703125,4.719354152679443,0.5479846596717834,-1.4572042226791382
1739919879737052200,6.99405224609375,4.588953971862793,0.48045113682746887,-1.4361364841461182
1739919879747034000,7.0040341796875,4.440546989440918,0.35953488945961,-1.4007781744003296
1739919879757017000,7.01401708984375,4.2807087898254395,0.20777598023414612,-1.3599086999893188
1739919879766999000,7.0239990234375,4.118236541748047,0.03767165169119835,-1.320752501487732
1739919879776982000,7.03398193359375,3.951241970062256,-0.121510811150074,-1.3055013418197632
1739919879786964200,7.043964111328125,3.7688241004943848,-0.26180389523506165,-1.300720453262329
1739919879796946200,7.0539462890625,3.5677762031555176,-0.35810938477516174,-1.2994897365570068
1739919879806929200,7.06392919921875,3.3582379817962646,-0.42728808522224426,-1.2636306285858154
1739919879816911000,7.0739111328125,3.135554552078247,-0.49151021242141724,-1.1692860126495361
1739919879826894000,7.08389404296875,2.8684189319610596,-0.5905431509017944,-1.0111775398254395
1739919879836876000,7.0938759765625,2.5487077236175537,-0.7418311834335327,-0.7993659377098083
1739919879846858000,7.10385791015625,2.1541998386383057,-0.9150548577308655,-0.5743982195854187
1739919879856841000,7.113841064453125,1.6770129203796387,-1.062854528427124,-0.36470040678977966
1739919879866823200,7.1238232421875,1.1342443227767944,-1.1775822639465332,-0.21146748960018158
1739919879876806100,7.13380615234375,0.5377092957496643,-1.2423585653305054,-0.13232287764549255
1739919879886788000,7.1437880859375,-0.10625854134559631,-1.2154735326766968,-0.13308146595954895
1739919879896770000,7.15377001953125,-0.7948552966117859,-1.119226336479187,-0.21263621747493744
1739919879906753000,7.1637529296875,-1.4852920770645142,-0.9677488803863525,-0.34930095076560974
1739919879916735200,7.1737353515625,-2.11299467086792,-0.8098689317703247,-0.5086807608604431
1739919879926718000,7.183718017578125,-2.629094123840332,-0.6510593891143799,-0.6548655033111572
1739919879936700200,7.1937001953125,-3.023787021636963,-0.5337191820144653,-0.7636609673500061
1739919879946681900,7.203681884765625,-3.2969863414764404,-0.4472953975200653,-0.8406941294670105
1739919879956665000,7.2136650390625,-3.4708926677703857,-0.35513830184936523,-0.9058688282966614
1739919879966647000,7.22364697265625,-3.5595879554748535,-0.24143379926681519,-0.9684656262397766
1739919879976630000,7.233630126953125,-3.5837271213531494,-0.08426070213317871,-1.0346723794937134
1739919879986612000,7.243612060546875,-3.5737862586975098,0.10248704999685287,-1.1105908155441284
1739919879996594200,7.25359423828125,-3.5550448894500732,0.3023322522640228,-1.1794849634170532
1739919880006577000,7.263576904296875,-3.574082136154175,0.4748443365097046,-1.231117606163025
1739919880016559000,7.27355908203125,-3.661653757095337,0.5813910365104675,-1.231577754020691
1739919880026542000,7.2835419921875,-3.829897880554199,0.5755879878997803,-1.1673407554626465
1739919880036524000,7.29352392578125,-4.079435348510742,0.45837610960006714,-1.0384917259216309
1739919880046506200,7.30350634765625,-4.3778533935546875,0.2760624885559082,-0.8670339584350586
1739919880056489000,7.313489013671875,-4.697846412658691,0.067599818110466,-0.6669618487358093
1739919880066471200,7.32347119140625,-4.999809741973877,-0.11898928880691528,-0.46254023909568787
1739919880076454100,7.3334541015625,-5.259609222412109,-0.22567366063594818,-0.2633664309978485
1739919880086436000,7.34343603515625,-5.4554619789123535,-0.22673355042934418,-0.0758310928940773
1739919880096418000,7.35341796875,-5.579594135284424,-0.1385863870382309,0.11089538037776947
1739919880106401000,7.363401123046875,-5.639375686645508,0.021769024431705475,0.3064082860946655
1739919880116383000,7.373383056640625,-5.643261432647705,0.21678031980991364,0.533510148525238
1739919880126366200,7.3833662109375,-5.590446949005127,0.40112000703811646,0.8200272917747498
1739919880136348000,7.393347900390625,-5.521805286407471,0.5331664681434631,1.175124168395996
1739919880146330000,7.403330078125,-5.464736461639404,0.567491888999939,1.574471116065979
1739919880156313000,7.41331298828125,-5.427477836608887,0.47780168056488037,1.9677232503890991
1739919880166295000,7.423294921875,-5.3966851234436035,0.2800946831703186,2.267711877822876
1739919880176278000,7.433278076171875,-5.3478312492370605,0.05433373898267746,2.403027296066284
1739919880186260000,7.443260009765625,-5.271061897277832,-0.09565193206071854,2.3596274852752686
1739919880196242200,7.4532421875,-5.189711093902588,-0.05887021869421005,2.1823983192443848
1739919880206225200,7.46322509765625,-5.098410606384277,0.12741456925868988,1.894350528717041
1739919880216207000,7.47320703125,-4.96793794631958,0.39545106887817383,1.5299389362335205
1739919880226189000,7.48318896484375,-4.792072772979736,0.6597585678100586,1.1395703554153442
1739919880236172300,7.49317236328125,-4.568644046783447,0.8572929501533508,0.779747724533081
1739919880246154000,7.503154052734375,-4.322058200836182,0.9419233202934265,0.4897737503051758
1739919880256137200,7.51313720703125,-4.051382064819336,0.8577969670295715,0.3178531229496002
1739919880266119000,7.523118896484375,-3.758517265319824,0.6144614219665527,0.27092209458351135
1739919880276102100,7.53310205078125,-3.4484081268310547,0.2781470715999603,0.31564056873321533
1739919880286084000,7.543083984375,-3.0960564613342285,-0.10569645464420319,0.390656054019928
1739919880296066000,7.553066162109375,-2.687185764312744,-0.5033330321311951,0.42587316036224365
1739919880306049000,7.563049072265625,-2.2241647243499756,-0.8417882919311523,0.3932025134563446
1739919880316031000,7.573031005859375,-1.7212910652160645,-1.09064519405365,0.2923685610294342
1739919880326013200,7.58301318359375,-1.2110404968261719,-1.2254780530929565,0.14381885528564453
1739919880335996200,7.59299609375,-0.7402327656745911,-1.2736469507217407,-0.055430591106414795
1739919880345978000,7.60297802734375,-0.32634180784225464,-1.2932811975479126,-0.28522390127182007
1739919880355961000,7.612961181640625,0.007650019600987434,-1.32784104347229,-0.5002030730247498
1739919880365943300,7.622943359375,0.23517613112926483,-1.3822356462478638,-0.6506253480911255
1739919880375925000,7.632925048828125,0.34932082891464233,-1.4529415369033813,-0.7049266695976257
1739919880385908200,7.642908203125,0.3655005693435669,-1.5357730388641357,-0.6537928581237793
1739919880395890000,7.652889892578125,0.3404729962348938,-1.6042543649673462,-0.5156821608543396
1739919880405873400,7.662873291015625,0.3294375538825989,-1.6327893733978271,-0.3097090721130371
1739919880415855400,7.67285546875,0.377846896648407,-1.5749931335449219,-0.05644163489341736
1739919880425837300,7.68283740234375,0.5193523168563843,-1.4589804410934448,0.21935395896434784
1739919880435820300,7.6928203125,0.7652485966682434,-1.2687923908233643,0.48357975482940674
1739919880445802200,7.70280224609375,1.0886801481246948,-0.9995816349983215,0.726243257522583
1739919880455785200,7.71278515625,1.461923599243164,-0.6577063202857971,0.9278594851493835
1739919880465767400,7.722767333984375,1.836691975593567,-0.19640447199344635,1.0835438966751099
1739919880475749400,7.732749267578125,2.1922497749328613,0.36597657203674316,1.1862388849258423
1739919880485732400,7.742732421875,2.502361297607422,1.0051456689834595,1.2208884954452515
1739919880495714300,7.75271435546875,2.735625743865967,1.6657211780548096,1.1941330432891846
1739919880505697300,7.762697265625,2.8835058212280273,2.276693820953369,1.094393014907837
1739919880515679200,7.77267919921875,2.9325313568115234,2.8385424613952637,0.9499551653862
1739919880525661200,7.7826611328125,2.9199349880218506,3.3656065464019775,0.7854669094085693
1739919880535644400,7.79264453125,2.897104501724243,3.8388712406158447,0.6379608511924744
1739919880545626400,7.80262646484375,2.925124406814575,4.18876838684082,0.5273259282112122
1739919880555609300,7.812609375,3.050809860229492,4.357638359069824,0.44380253553390503
1739919880565591300,7.82259130859375,3.258281946182251,4.235838413238525,0.3633340001106262
1739919880575574300,7.83257421875,3.5042648315429688,3.8677709102630615,0.2670165002346039
1739919880585556200,7.84255615234375,3.744952917098999,3.3589794635772705,0.1388300061225891
1739919880595539500,7.85253955078125,3.955928325653076,2.80446457862854,-0.03615511581301689
1739919880605521200,7.862521240234375,4.123909950256348,2.2799901962280273,-0.2690526247024536
1739919880615503400,7.87250341796875,4.275020599365234,1.8430737257003784,-0.5734966993331909
1739919880625486300,7.882486328125,4.430109977722168,1.4943774938583374,-0.9450194239616394
1739919880635468300,7.89246826171875,4.596065521240234,1.1700454950332642,-1.3186254501342773
1739919880645451300,7.902451171875,4.7122602462768555,0.8650066256523132,-1.640136957168579
1739919880655433200,7.91243310546875,4.7535271644592285,0.5376503467559814,-1.8794422149658203
1739919880665415200,7.922415283203125,4.74069356918335,0.20446571707725525,-2.054391860961914
1739919880675398400,7.9323984375,4.704828262329102,-0.08658129721879959,-2.1857149600982666
1739919880685380000,7.942380126953125,4.662865161895752,-0.2716432213783264,-2.292644739151001
1739919880695363300,7.95236328125,4.6346869468688965,-0.33240005373954773,-2.3734629154205322
1739919880705345300,7.96234521484375,4.600462436676025,-0.3036508560180664,-2.4191322326660156
1739919880715327200,7.9723271484375,4.547483444213867,-0.22555258870124817,-2.4189486503601074
1739919880725310200,7.982310302734375,4.484350204467773,-0.12726853787899017,-2.382545232772827
1739919880735292200,7.992292236328125,4.416133403778076,-0.025168810039758682,-2.3105084896087646
1739919880745275100,8.002275146484376,4.34100341796875,0.07131832093000412,-2.204497814178467
1739919880755257300,8.01225732421875,4.255781650543213,0.17646445333957672,-2.084993600845337
1739919880765239300,8.0222392578125,4.150496006011963,0.28652456402778625,-1.956303596496582
1739919880775222300,8.03222216796875,4.029707431793213,0.3761705756187439,-1.8279496431350708
1739919880785204500,8.04220458984375,3.873579263687134,0.4256439208984375,-1.7078908681869507
1739919880795187200,8.052187255859375,3.693044424057007,0.4222758114337921,-1.575219988822937
1739919880805169400,8.06216943359375,3.498467445373535,0.35524091124534607,-1.4287800788879395
1739919880815151000,8.072151123046876,3.2724573612213135,0.22487199306488037,-1.277065396308899
1739919880825134300,8.08213427734375,2.993635416030884,0.041284117847681046,-1.1241272687911987
1739919880835116300,8.0921162109375,2.6885929107666016,-0.17045928537845612,-0.9736960530281067
1739919880845099300,8.102099365234375,2.3890881538391113,-0.36478716135025024,-0.8245009183883667
1739919880855081200,8.112081298828125,2.0983526706695557,-0.5015860199928284,-0.6782974004745483
1739919880865063200,8.122063232421874,1.786483883857727,-0.6011092066764832,-0.539333701133728
1739919880875046100,8.132046142578124,1.4206068515777588,-0.7064840793609619,-0.4087813198566437
1739919880885028400,8.1420283203125,0.9982507228851318,-0.819649338722229,-0.29505616426467896
1739919880895011000,8.152010986328126,0.5240685343742371,-0.89571613073349,-0.21407955884933472
1739919880904993300,8.1619931640625,0.02769235335290432,-0.9209759831428528,-0.16473586857318878
1739919880914976300,8.171976318359375,-0.47013795375823975,-0.8903677463531494,-0.14495231211185455
1739919880924957200,8.181957275390625,-0.9267371296882629,-0.7887091040611267,-0.15008686482906342
1739919880934940400,8.1919404296875,-1.3161731958389282,-0.6463605165481567,-0.1443629413843155
1739919880944922000,8.201922119140624,-1.6265413761138916,-0.4762178659439087,-0.08435966074466705
1739919880954905300,8.2119052734375,-1.845072627067566,-0.34300148487091064,0.03592760115861893
1739919880964887300,8.22188720703125,-1.9717373847961426,-0.2524837553501129,0.20437486469745636
1739919880974869200,8.231869140625,-2.0191118717193604,-0.21843817830085754,0.38382744789123535
1739919880984852200,8.241852294921875,-2.027313232421875,-0.21312926709651947,0.5325362086296082
1739919880994834200,8.251834228515625,-2.0422449111938477,-0.17727646231651306,0.6068376302719116
1739919881004817200,8.261817138671875,-2.095416784286499,-0.06821294873952866,0.5877578258514404
1739919881014799400,8.27179931640625,-2.196969509124756,0.13813357055187225,0.495476633310318
1739919881024781300,8.28178125,-2.3510994911193848,0.40125054121017456,0.3567182421684265
1739919881034764300,8.291764404296876,-2.550990104675293,0.6711848378181458,0.19890864193439484
1739919881044746500,8.30174658203125,-2.791116952896118,0.8906715512275696,0.07560596615076065
1739919881054729200,8.311729248046875,-3.0793933868408203,1.022009015083313,0.02196696773171425
1739919881064711400,8.32171142578125,-3.3935129642486572,0.9917041659355164,0.05961226671934128
1739919881074693000,8.331693115234375,-3.7239229679107666,0.798348605632782,0.16009119153022766
1739919881084676400,8.34167626953125,-4.044888973236084,0.48540329933166504,0.2819744646549225
1739919881094658300,8.351658203125,-4.318607807159424,0.10016001015901566,0.3965332806110382
1739919881104641300,8.361641357421876,-4.53681755065918,-0.2852061688899994,0.4889476001262665
1739919881114623200,8.371623291015625,-4.696455955505371,-0.6165263056755066,0.5467134118080139
1739919881124605200,8.381605224609375,-4.7918620109558105,-0.8466521501541138,0.5827627182006836
1739919881134588200,8.391588134765625,-4.8510870933532715,-0.9892833232879639,0.6228179931640625
1739919881144570400,8.4015703125,-4.8938703536987305,-1.0702028274536133,0.6911299228668213
1739919881154553000,8.411552978515624,-4.94381856918335,-1.1013718843460083,0.8067790269851685
1739919881164535300,8.421535400390624,-5.032210826873779,-1.1519334316253662,0.9967268109321594
1739919881174517500,8.431517578125,-5.124999046325684,-1.2055020332336426,1.2499052286148071
1739919881184500200,8.441500244140625,-5.166135311126709,-1.2298810482025146,1.5688190460205078
1739919881194482400,8.451482421875,-5.164951324462891,-1.2444405555725098,1.9704111814498901
1739919881204465400,8.46146533203125,-5.151813507080078,-1.2230712175369263,2.462763786315918
1739919881214447400,8.471447265625,-5.138550758361816,-1.1639093160629272,3.0157275199890137
1739919881224429300,8.48142919921875,-5.122297286987305,-1.0161195993423462,3.568204641342163
1739919881234412300,8.491412353515624,-5.033779144287109,-0.8231877684593201,4.064542293548584
1739919881244394200,8.501394287109376,-4.846517562866211,-0.5694730281829834,4.434084415435791
1739919881254377500,8.51137744140625,-4.60311222076416,-0.25937992334365845,4.631829261779785
1739919881264359200,8.521359130859375,-4.368932723999023,0.07266449183225632,4.651885509490967
1739919881274341400,8.53134130859375,-4.161202907562256,0.38300982117652893,4.524759292602539
1739919881284324400,8.541324462890625,-3.987344980239868,0.5947597026824951,4.276310920715332
1739919881294306300,8.551306396484375,-3.840625524520874,0.6475741863250732,3.9440596103668213
1739919881304289300,8.561289306640624,-3.683990955352783,0.5842588543891907,3.5214972496032715
1739919881314271200,8.571271240234376,-3.4765591621398926,0.475887656211853,3.0351736545562744
1739919881324254200,8.581254150390626,-3.2135939598083496,0.3740031123161316,2.483262062072754
1739919881334236400,8.591236328125,-2.8915767669677734,0.2845800220966339,1.8963433504104614
1739919881344218400,8.60121826171875,-2.542520761489868,0.18296346068382263,1.3204041719436646
1739919881354201300,8.611201416015625,-2.187333822250366,0.049964386969804764,0.7913047671318054
1739919881364183300,8.621183349609375,-1.843257188796997,-0.14444994926452637,0.3092607259750366
1739919881374166300,8.631166259765624,-1.5250576734542847,-0.353394091129303,-0.1290433555841446
1739919881384148500,8.6411484375,-1.2103557586669922,-0.5550071597099304,-0.535493791103363
1739919881394130200,8.651130126953126,-0.8681190609931946,-0.7376353144645691,-0.9018675684928894
1739919881404115000,8.661114990234376,-0.4987228810787201,-0.9229126572608948,-1.1870335340499878
1739919881414097000,8.671096923828125,-0.15118944644927979,-1.1137663125991821,-1.3657923936843872
1739919881424080000,8.681079833984375,0.16571755707263947,-1.2861683368682861,-1.430025339126587
1739919881434062000,8.69106201171875,0.44469913840293884,-1.471625566482544,-1.4015178680419922
1739919881444043800,8.701043701171875,0.6864705085754395,-1.634198546409607,-1.3050259351730347
1739919881454027000,8.711027099609375,0.8884419798851013,-1.698206901550293,-1.1516246795654297
1739919881464008700,8.7210087890625,1.0836411714553833,-1.6174904108047485,-0.9573143124580383
1739919881473992000,8.730991943359374,1.2983250617980957,-1.3769099712371826,-0.7306654453277588
1739919881483974000,8.740973876953126,1.5469388961791992,-0.9644606709480286,-0.49005910754203796
1739919881493955800,8.750955810546875,1.8276832103729248,-0.41841810941696167,-0.2573113441467285
1739919881503938800,8.760938720703125,2.10722279548645,0.23640194535255432,-0.055699098855257034
1739919881513921000,8.770921142578125,2.3470637798309326,0.9915716052055359,0.07043913006782532
1739919881523903700,8.78090380859375,2.5310397148132324,1.7940891981124878,0.11385760456323624
1739919881533886000,8.790885986328124,2.6558711528778076,2.5690674781799316,0.05566886439919472
1739919881543868000,8.800867919921876,2.7325949668884277,3.31079363822937,-0.07853590697050095
1739919881553851000,8.810850830078126,2.785818099975586,3.9788687229156494,-0.26543816924095154
1739919881563833000,8.8208330078125,2.802401542663574,4.487927436828613,-0.445022851228714
1739919881573815800,8.83081591796875,2.794842481613159,4.749292850494385,-0.6222034692764282
1739919881583798000,8.840798095703125,2.787970781326294,4.7837815284729,-0.7835875749588013
1739919881593779700,8.85077978515625,2.8181281089782715,4.648231029510498,-0.9535254836082458
1739919881603763000,8.860762939453124,2.91414737701416,4.387897491455078,-1.1410447359085083
1739919881613745000,8.870744873046876,3.08010196685791,4.045940399169922,-1.3456757068634033
1739919881623728000,8.88072802734375,3.310532569885254,3.6635429859161377,-1.5669329166412354
1739919881633709800,8.890709716796875,3.576657295227051,3.294942855834961,-1.782317876815796
1739919881643692000,8.900692138671875,3.8592212200164795,2.98075270652771,-1.9935882091522217
1739919881653674800,8.9106748046875,4.139261245727539,2.6563141345977783,-2.1825509071350098
1739919881663657000,8.920656982421875,4.395857810974121,2.263335704803467,-2.350159168243408
1739919881673640000,8.930639892578125,4.584253787994385,1.818283200263977,-2.4858148097991943
1739919881683622000,8.940621826171874,4.674700736999512,1.4177789688110352,-2.588864803314209
1739919881693604900,8.95060498046875,4.6739583015441895,1.084620475769043,-2.646104335784912
1739919881703586800,8.9605869140625,4.636307239532471,0.7960882782936096,-2.675640106201172
1739919881713569000,8.970569091796875,4.603046894073486,0.563022255897522,-2.692394733428955
1739919881723552000,8.980552001953125,4.555509090423584,0.3974463641643524,-2.6978485584259033
1739919881733534000,8.990533935546875,4.49414587020874,0.2987290918827057,-2.691281795501709
1739919881743517000,9.000516845703125,4.4156084060668945,0.26768559217453003,-2.6791579723358154
1739919881753499100,9.0104990234375,4.330986499786377,0.2837734818458557,-2.652444362640381
1739919881763480800,9.020480712890626,4.241511344909668,0.35760390758514404,-2.61330509185791
1739919881773464000,9.030464111328126,4.15049934387207,0.47222957015037537,-2.5570430755615234
1739919881783445800,9.04044580078125,4.073726654052734,0.5909982323646545,-2.490736722946167
1739919881793429000,9.050428955078125,4.00532341003418,0.6978591680526733,-2.4318621158599854
1739919881803411000,9.060410888671875,3.9262006282806396,0.7793236970901489,-2.374113082885742
1739919881813393000,9.070392822265624,3.8104183673858643,0.8277852535247803,-2.3235034942626953
1739919881823376000,9.0803759765625,3.677053451538086,0.8442137837409973,-2.271364688873291
1739919881833357800,9.09035791015625,3.519474744796753,0.8368397355079651,-2.2184250354766846
1739919881843340800,9.1003408203125,3.3453757762908936,0.799601674079895,-2.1691102981567383
1739919881853323000,9.110322998046875,3.136960983276367,0.7384296655654907,-2.105020761489868
1739919881863305000,9.120304931640625,2.8828327655792236,0.6635074615478516,-2.025725841522217
1739919881873288000,9.130287841796875,2.5945115089416504,0.5754516124725342,-1.9198981523513794
1739919881883270100,9.140270263671875,2.2670295238494873,0.4435660243034363,-1.7827045917510986
1739919881893252900,9.1502529296875,1.8972840309143066,0.24856910109519958,-1.619349479675293
1739919881903235000,9.160235107421874,1.4563583135604858,0.022042902186512947,-1.4360967874526978
1739919881913218000,9.170218017578126,0.9095205068588257,-0.196539506316185,-1.2272075414657593
1739919881923200000,9.180199951171875,0.292692095041275,-0.3764932155609131,-0.9900988936424255
1739919881933182000,9.190181884765625,-0.33855509757995605,-0.5005848407745361,-0.7545497417449951
1739919881943165000,9.2001650390625,-0.9471462368965149,-0.5788680911064148,-0.5302314162254333
1739919881953147000,9.21014697265625,-1.5610698461532593,-0.6099644899368286,-0.3220691680908203
1739919881963130000,9.220130126953125,-2.1751492023468018,-0.5866308212280273,-0.1295114904642105
1739919881973111800,9.23011181640625,-2.7535758018493652,-0.5294489860534668,0.07663076370954514
1739919881983094000,9.240093994140626,-3.244096040725708,-0.5006542205810547,0.2968639135360718
1739919881993076700,9.25007666015625,-3.623126983642578,-0.5146563053131104,0.5354639887809753
1739919882003059000,9.260058837890625,-3.8832767009735107,-0.5656179189682007,0.7973045706748962
1739919882013042000,9.2700419921875,-4.0606369972229,-0.6610898375511169,1.0577415227890015
1739919882023023900,9.28002392578125,-4.191604137420654,-0.7487304210662842,1.3060106039047241
1739919882033006000,9.290006103515625,-4.296849727630615,-0.7850849628448486,1.5094808340072632
1739919882042989000,9.299989013671874,-4.381388187408447,-0.7738712430000305,1.648149847984314
1739919882052971000,9.309970947265626,-4.43865966796875,-0.7004995346069336,1.7166862487792969
1739919882062954000,9.3199541015625,-4.470894813537598,-0.5849280953407288,1.7369155883789062
1739919882072936000,9.32993603515625,-4.448782920837402,-0.4560697078704834,1.6985673904418945
1739919882082918000,9.33991796875,-4.38812255859375,-0.2955358624458313,1.6064895391464233
1739919882092900900,9.34990087890625,-4.326940536499023,-0.13691399991512299,1.4767094850540161
1739919882102882800,9.3598828125,-4.269004821777344,-0.028292370960116386,1.3182833194732666
1739919882112866000,9.369865966796874,-4.223221778869629,-0.004728455096483231,1.157388687133789
1739919882122848000,9.379847900390626,-4.206779479980469,-0.07359854131937027,1.0314443111419678
1739919882132831000,9.3898310546875,-4.2086992263793945,-0.25882458686828613,0.942461371421814
1739919882142813000,9.39981298828125,-4.229890823364258,-0.5550698041915894,0.8971601724624634
1739919882152795000,9.409794921875,-4.253163814544678,-0.9240129590034485,0.8835447430610657
1739919882162777900,9.41977783203125,-4.277503967285156,-1.280252456665039,0.9072938561439514
1739919882172760000,9.429760009765625,-4.329585075378418,-1.5873607397079468,0.9528136849403381
1739919882182742800,9.43974267578125,-4.407306671142578,-1.8360090255737305,0.995265007019043
1739919882192725000,9.44972509765625,-4.506391525268555,-1.9935463666915894,1.0183026790618896
1739919882202706700,9.459706787109376,-4.5744242668151855,-2.0322065353393555,0.9849368929862976
1739919882212690000,9.46968994140625,-4.55352783203125,-1.9524587392807007,0.9301508665084839
1739919882222672000,9.479671875,-4.485610485076904,-1.7818520069122314,0.8637269139289856
1739919882232654800,9.48965478515625,-4.386544227600098,-1.5950461626052856,0.8045315146446228
1739919882242636800,9.49963671875,-4.246494770050049,-1.4273977279663086,0.746076762676239
1739919882252619000,9.509618896484374,-4.06947660446167,-1.2965707778930664,0.6542496085166931
1739919882262601700,9.519601806640624,-3.8428244590759277,-1.1565712690353394,0.526387631893158
1739919882272584000,9.529583984375,-3.641749143600464,-1.0120025873184204,0.3927558660507202
1739919882282567000,9.53956689453125,-3.4554383754730225,-0.8497970700263977,0.26811349391937256
1739919882292548900,9.549548828125,-3.297095537185669,-0.655511736869812,0.16745160520076752
1739919882302531800,9.55953173828125,-3.1547157764434814,-0.46468794345855713,0.1001279428601265
1739919882312513800,9.569513671875,-2.9961893558502197,-0.32985371351242065,0.07448356598615646
1739919882322496000,9.57949609375,-2.808967351913452,-0.2618144452571869,0.09029517322778702
1739919882332479000,9.58947900390625,-2.6037609577178955,-0.23517778515815735,0.135639488697052
1739919882342461000,9.5994609375,-2.39239239692688,-0.21190907061100006,0.17035648226737976
1739919882352444000,9.60944384765625,-2.161431312561035,-0.2191440761089325,0.16564881801605225
1739919882362425900,9.61942578125,-1.891542673110962,-0.23261380195617676,0.12702690064907074
1739919882372407800,9.62940771484375,-1.6030653715133667,-0.23970022797584534,0.05727019160985947
1739919882382391000,9.63939111328125,-1.3235557079315186,-0.23200081288814545,-0.01840757392346859
1739919882392372700,9.649372802734375,-1.061359167098999,-0.2271653115749359,-0.06382166594266891
1739919882402356000,9.65935595703125,-0.7929121851921082,-0.2517101466655731,-0.07411085814237595
1739919882412336000,9.669336181640626,-0.5147080421447754,-0.3108368515968323,-0.06003152206540108
1739919882422318300,9.679318359375,-0.21149297058582306,-0.36775460839271545,-0.05671703442931175
1739919882432301300,9.68930126953125,0.10630018264055252,-0.41202086210250854,-0.07771871984004974
1739919882442283300,9.699283203125,0.38945233821868896,-0.46860599517822266,-0.10272391140460968
1739919882452266200,9.709266357421875,0.6186860799789429,-0.5479657649993896,-0.09918643534183502
1739919882462248200,9.719248291015624,0.8220345377922058,-0.6160573959350586,-0.05636938288807869
1739919882472230100,9.729230224609376,1.0264835357666016,-0.6705136895179749,0.01661214977502823
1739919882482213400,9.73921337890625,1.2418193817138672,-0.7134532928466797,0.1093999594449997
1739919882492195000,9.749195068359375,1.4806630611419678,-0.7118527293205261,0.20908766984939575
1739919882502178300,9.75917822265625,1.760063886642456,-0.6349637508392334,0.30048447847366333
1739919882512160000,9.769159912109375,2.0916316509246826,-0.4337392747402191,0.3762953579425812
1739919882522143200,9.779143310546875,2.4587502479553223,-0.07878883928060532,0.41155382990837097
1739919882532125200,9.789125244140624,2.8481760025024414,0.4083624482154846,0.4141418933868408
1739919882542107100,9.799107177734374,3.1885507106781006,0.9480987191200256,0.3878561854362488
1739919882552090000,9.809090087890626,3.4653067588806152,1.4601020812988281,0.33191728591918945
1739919882562072300,9.819072265625,3.6391055583953857,1.9027045965194702,0.24563710391521454
1739919882572055000,9.829054931640625,3.68888258934021,2.30385422706604,0.1526443213224411
1739919882582037200,9.839037353515625,3.648693084716797,2.711195945739746,0.05027663707733154
1739919882592019200,9.849019287109375,3.5725319385528564,3.0616304874420166,-0.045502617955207825
1739919882602002200,9.859002197265625,3.476515769958496,3.357731580734253,-0.1263553351163864
1739919882611984100,9.868984130859374,3.3606696128845215,3.572171926498413,-0.1756965070962906
1739919882621967000,9.878967041015626,3.288647413253784,3.66892147064209,-0.18788838386535645
1739919882631949300,9.88894921875,3.3135924339294434,3.6269357204437256,-0.15081878006458282
1739919882641931000,9.898930908203125,3.402953624725342,3.402231454849243,-0.0988018736243248
1739919882651914200,9.908914306640625,3.501401662826538,3.0007541179656982,-0.06253174692392349
1739919882661896200,9.918896240234375,3.5654778480529785,2.482412576675415,-0.08175598084926605
1739919882671879200,9.928879150390625,3.602900505065918,1.91529381275177,-0.1792449951171875
1739919882681861000,9.938861083984374,3.6310641765594482,1.3752597570419312,-0.3400523364543915
1739919882691844400,9.94884423828125,3.6334893703460693,0.9361210465431213,-0.5512681603431702
1739919882701826000,9.958825927734376,3.593567132949829,0.6217126250267029,-0.7833277583122253
1739919882711808300,9.968808349609375,3.5399129390716553,0.39520010352134705,-1.0009324550628662
1739919882721791200,9.978791259765625,3.5081441402435303,0.2331484854221344,-1.171170949935913
1739919882731773200,9.988773193359375,3.5269386768341064,0.15058569610118866,-1.2792279720306396
1739919882741756200,9.998756103515625,3.600532293319702,0.11755996942520142,-1.319138765335083
1739919882751738000,10.008738037109374,3.707052707672119,0.143331378698349,-1.3083263635635376
1739919882761720000,10.018719970703126,3.8293325901031494,0.24500881135463715,-1.2563481330871582
1739919882771703300,10.028703369140626,3.9499597549438477,0.4115455746650696,-1.1989778280258179
1739919882781685000,10.03868505859375,4.0608811378479,0.6117737293243408,-1.1491066217422485
1739919882791668200,10.048668212890625,4.140806674957275,0.8210896849632263,-1.1270439624786377
1739919882801650200,10.058650146484375,4.181190490722656,1.0166875123977661,-1.143161654472351
1739919882811632000,10.068632080078125,4.181863784790039,1.162239670753479,-1.1970081329345703
1739919882821615000,10.078614990234374,4.141694068908691,1.2593104839324951,-1.2534937858581543
1739919882831597000,10.08859716796875,4.059782981872559,1.3038512468338013,-1.3090249300003052
1739919882841580000,10.098580078125,3.9470860958099365,1.3018466234207153,-1.3535727262496948
1739919882851562200,10.108562255859376,3.7987818717956543,1.268749713897705,-1.3773163557052612
1739919882861545000,10.118544921875,3.6214346885681152,1.2383261919021606,-1.3702579736709595
1739919882871527200,10.128527099609375,3.414706230163574,1.1977657079696655,-1.3082786798477173
1739919882881509000,10.138509033203125,3.1964540481567383,1.0460845232009888,-1.197421669960022
1739919882891492000,10.1484921875,2.9710419178009033,0.852163553237915,-1.0187983512878418
1739919882901474300,10.158474365234374,2.7212696075439453,0.7030389308929443,-0.7924934029579163
1739919882911457000,10.16845703125,2.4577436447143555,0.5810315608978271,-0.5377247929573059
1739919882921439200,10.178439208984376,2.2070088386535645,0.47102227807044983,-0.27620506286621094
1739919882931421200,10.188421142578125,1.9560174942016602,0.3801634907722473,-0.02996785193681717
1739919882941404200,10.198404052734375,1.6403329372406006,0.32154107093811035,0.19792036712169647
1739919882951386000,10.20838623046875,1.17683744430542,0.240950345993042,0.4143644869327545
1739919882961369300,10.218369384765625,0.5474063158035278,0.017040949314832687,0.623240053653717
1739919882971351000,10.22835107421875,-0.20210546255111694,-0.35631266236305237,0.8137272000312805
1739919882981333200,10.238333251953126,-0.9551244974136353,-0.756247878074646,0.9511479139328003
1739919882991316000,10.24831591796875,-1.6439145803451538,-1.1207839250564575,0.9978469610214233
1739919883001298200,10.258298095703125,-2.2099621295928955,-1.4012929201126099,0.9238128066062927
1739919883011281200,10.26828125,-2.626816511154175,-1.6117732524871826,0.7684394717216492
1739919883021263000,10.27826318359375,-2.9364352226257324,-1.782790184020996,0.6024048328399658
1739919883031246000,10.28824609375,-3.2105019092559814,-1.9299342632293701,0.47542959451675415
1739919883041228000,10.29822802734375,-3.4729466438293457,-2.033050775527954,0.38333219289779663
1739919883051210200,10.308210205078124,-3.726942539215088,-2.04105544090271,0.3004511594772339
1739919883061193200,10.318193115234376,-3.980623960494995,-1.9530988931655884,0.21433772146701813
1739919883071175200,10.328175048828125,-4.265622615814209,-1.7985436916351318,0.1159384548664093
1739919883081158100,10.338158203125,-4.586719036102295,-1.6217342615127563,0.01898292824625969
1739919883091140400,10.348140380859375,-4.883735656738281,-1.4457403421401978,-0.09618893265724182
1739919883101122000,10.3581220703125,-5.112027645111084,-1.2805242538452148,-0.23182302713394165
1739919883111105300,10.368105224609375,-5.254449367523193,-1.114929437637329,-0.3909982740879059
1739919883121087000,10.3780869140625,-5.329872131347656,-0.9666677117347717,-0.5714030265808105
1739919883131070200,10.3880703125,-5.3743414878845215,-0.8454070687294006,-0.7659946084022522
1739919883141052200,10.39805224609375,-5.420874118804932,-0.7486074566841125,-0.948513925075531
1739919883151035100,10.40803515625,-5.487513542175293,-0.6863139867782593,-1.0704731941223145
1739919883161017000,10.41801708984375,-5.575443267822266,-0.6670028567314148,-1.117928385734558
1739919883170999000,10.4279990234375,-5.645894527435303,-0.6886447668075562,-1.0731372833251953
1739919883180982000,10.43798193359375,-5.672185897827148,-0.7359349131584167,-0.9374356865882874
1739919883190964200,10.447964111328124,-5.6507697105407715,-0.8137444853782654,-0.7078450918197632
1739919883200947200,10.457947265625,-5.599036693572998,-0.9055272340774536,-0.39310330152511597
1739919883210929200,10.46792919921875,-5.525841236114502,-0.9895856380462646,-0.0012979827588424087
1739919883220911400,10.477911376953125,-5.38056755065918,-1.0559078454971313,0.46536538004875183
1739919883230894000,10.48789404296875,-5.140543460845947,-1.0898929834365845,0.9558325409889221
1739919883240876300,10.497876220703125,-4.802469730377197,-1.1021414995193481,1.3931161165237427
1739919883250859300,10.507859375,-4.408511161804199,-1.0744800567626953,1.7143641710281372
1739919883260841200,10.51784130859375,-3.986131191253662,-1.0043792724609375,1.9039286375045776
1739919883270823200,10.5278232421875,-3.5720996856689453,-0.844374418258667,1.9667636156082153
1739919883280806100,10.53780615234375,-3.1940536499023438,-0.6135518550872803,1.9268943071365356
1739919883290788000,10.5477880859375,-2.8781614303588867,-0.35783272981643677,1.830164909362793
1739919883300771300,10.557771240234375,-2.6271913051605225,-0.14064601063728333,1.7230478525161743
1739919883310753000,10.5677529296875,-2.445240020751953,-0.0007802597247064114,1.5949000120162964
1739919883320736300,10.577736328125,-2.328711748123169,0.01041247509419918,1.4444458484649658
1739919883330718200,10.58771826171875,-2.2489824295043945,-0.11658275127410889,1.2688630819320679
1739919883340700200,10.5977001953125,-2.1836674213409424,-0.30751821398735046,1.0568307638168335
1739919883350683100,10.60768310546875,-2.0979127883911133,-0.4635930359363556,0.798949122428894
1739919883360665000,10.6176650390625,-1.9661898612976074,-0.5536658763885498,0.5213790535926819
1739919883370648000,10.62764794921875,-1.7808524370193481,-0.5706352591514587,0.25474339723587036
1739919883380630300,10.63763037109375,-1.5663776397705078,-0.5581015348434448,0.06723444163799286
1739919883390612200,10.6476123046875,-1.3598617315292358,-0.5067232847213745,-0.01929911971092224
1739919883400595200,10.65759521484375,-1.1750556230545044,-0.44873639941215515,-0.012919673696160316
1739919883410577700,10.66757763671875,-0.9899488687515259,-0.33529427647590637,0.08863890916109085
1739919883420560600,10.677560546875,-0.786980926990509,-0.14709685742855072,0.2666625380516052
1739919883430542600,10.68754248046875,-0.5423083305358887,0.09225580841302872,0.49138936400413513
1739919883440524500,10.697524658203125,-0.2890910506248474,0.3103685677051544,0.7262614965438843
1739919883450507500,10.707507568359375,0.004799967631697655,0.4830239713191986,0.9172016382217407
1739919883460489700,10.71748974609375,0.3289327621459961,0.6149362325668335,1.0027055740356445
1739919883470472400,10.727472412109375,0.6449005603790283,0.686491847038269,0.9624895453453064
1739919883480454700,10.73745458984375,0.8969475030899048,0.6375715732574463,0.815064549446106
1739919883490437600,10.747437744140624,1.0708982944488525,0.47004997730255127,0.5928933024406433
1739919883500419600,10.757419677734376,1.1936169862747192,0.2454008311033249,0.3401172459125519
1739919883510401800,10.76740185546875,1.3204854726791382,0.0466240793466568,0.09311945736408234
1739919883520384500,10.777384521484375,1.4788286685943604,-0.04529080167412758,-0.11096413433551788
1739919883530366700,10.78736669921875,1.6958321332931519,-0.02418338507413864,-0.26865866780281067
1739919883540349700,10.797349609375,1.964914321899414,0.09294124692678452,-0.3674757182598114
1739919883550331600,10.80733154296875,2.2796576023101807,0.2833612561225891,-0.39476510882377625
1739919883560313600,10.817313720703124,2.615374803543091,0.548835277557373,-0.3754856288433075
1739919883570296800,10.827296875,2.9370505809783936,0.881480872631073,-0.34643054008483887
1739919883580278500,10.837278564453126,3.2086691856384277,1.2731754779815674,-0.32408156991004944
1739919883590261800,10.84726171875,3.3807435035705566,1.655072808265686,-0.29267624020576477
1739919883600243500,10.857243408203125,3.443366527557373,1.9478135108947754,-0.24778933823108673
1739919883610226700,10.867226806640625,3.431274175643921,2.168851375579834,-0.22895759344100952
1739919883620208600,10.877208740234375,3.387653112411499,2.350391149520874,-0.27013200521469116
1739919883630190600,10.887190673828124,3.3249435424804688,2.4602675437927246,-0.3509586751461029
1739919883640173600,10.897173583984374,3.2474567890167236,2.4862446784973145,-0.45935767889022827
1739919883650155800,10.90715576171875,3.1882121562957764,2.4138994216918945,-0.5797344446182251
1739919883660138500,10.917138427734375,3.1574559211730957,2.286566734313965,-0.7043907642364502
1739919883670120700,10.92712060546875,3.169759750366211,2.102879285812378,-0.816552460193634
1739919883680102700,10.9371025390625,3.2236523628234863,1.882986307144165,-0.9040176868438721
1739919883690085600,10.947085693359375,3.3336057662963867,1.6770334243774414,-0.9636751413345337
1739919883700067800,10.95706787109375,3.46834659576416,1.4972484111785889,-0.9808943867683411
1739919883710050600,10.967050537109374,3.6058061122894287,1.2888925075531006,-0.9558920860290527
1739919883720032800,10.97703271484375,3.738654136657715,1.0594193935394287,-0.8999704122543335
1739919883730015700,10.987015625,3.8621256351470947,0.8356067538261414,-0.8382865190505981
1739919883739997700,10.996997802734375,3.974421977996826,0.6165534257888794,-0.7925518155097961
1739919883749979600,11.006979736328125,4.065130233764648,0.4139383137226105,-0.7873464226722717
1739919883759962600,11.016962646484375,4.159179210662842,0.2619454860687256,-0.8286898732185364
1739919883769944600,11.026944580078125,4.268808841705322,0.2080947905778885,-0.8913130760192871
1739919883779927800,11.036927734375,4.384973049163818,0.24058449268341064,-0.9401353597640991
1739919883789909500,11.046909423828126,4.520354270935059,0.3483450412750244,-0.9308204054832458
1739919883799891700,11.0568916015625,4.670943260192871,0.48072579503059387,-0.8758946657180786
1739919883809874700,11.066874755859375,4.83211088180542,0.5962992310523987,-0.7875871658325195
1739919883819856600,11.076856689453125,4.984222888946533,0.6944249868392944,-0.7124834060668945
1739919883829839600,11.086839599609375,5.106237888336182,0.7630019187927246,-0.6714627742767334
1739919883839821600,11.096821533203125,5.172913551330566,0.7756016850471497,-0.6581801176071167
1739919883849804500,11.106804443359374,5.179902076721191,0.6940551400184631,-0.6533520817756653
1739919883859786800,11.116786865234374,5.1277995109558105,0.5368279218673706,-0.6618950366973877
1739919883869768700,11.126768798828126,5.003715991973877,0.34640657901763916,-0.6836836934089661
1739919883879751700,11.136751708984375,4.802266597747803,0.14623741805553436,-0.7369616627693176
1739919883889733600,11.146733642578125,4.530346393585205,-0.055933792144060135,-0.8113093972206116
1739919883899716600,11.156716552734375,4.174874782562256,-0.24915391206741333,-0.9184253811836243
1739919883909698800,11.16669873046875,3.76296329498291,-0.4301031827926636,-1.057519793510437
1739919883919680500,11.176680419921874,3.3285024166107178,-0.6218564510345459,-1.2172826528549194
1739919883929663700,11.186663818359374,2.8862078189849854,-0.818274199962616,-1.3930799961090088
1739919883939645700,11.196645751953126,2.4445152282714844,-0.9920000433921814,-1.5610748529434204
1739919883949628700,11.206628662109376,2.0198042392730713,-1.1029815673828125,-1.7024625539779663
1739919883959610600,11.216610595703125,1.6221623420715332,-1.1476690769195557,-1.7881426811218262
1739919883969593900,11.22659375,1.2151408195495605,-1.154882788658142,-1.800479531288147
1739919883979575600,11.236575439453125,0.7676082849502563,-1.189616084098816,-1.7468271255493164
1739919883989557800,11.246557861328125,0.250247985124588,-1.2645595073699951,-1.6421326398849487
1739919883999540500,11.25654052734375,-0.32687216997146606,-1.322485327720642,-1.5092133283615112
1739919884009522700,11.266522705078126,-0.9445942044258118,-1.3188132047653198,-1.3607912063598633
1739919884019505700,11.276505615234376,-1.573431372642517,-1.2322396039962769,-1.1949374675750732
1739919884029487600,11.286487548828125,-2.174525260925293,-0.9995430111885071,-1.0280845165252686
1739919884039469800,11.2964697265625,-2.7461204528808594,-0.6688647866249084,-0.8877211809158325
1739919884049452800,11.306452880859375,-3.2837111949920654,-0.37587469816207886,-0.8016246557235718
1739919884059434800,11.316434814453125,-3.7547595500946045,-0.1976744830608368,-0.7562524676322937
1739919884069417700,11.326417724609374,-4.127933025360107,-0.09424608945846558,-0.7076745629310608
1739919884079399700,11.336399658203124,-4.3775506019592285,-0.04237103462219238,-0.6494975090026855
1739919884089381600,11.346381591796876,-4.520485877990723,-0.03080785647034645,-0.581321120262146
1739919884099364900,11.35636474609375,-4.572608947753906,-0.0027375477366149426,-0.5086034536361694
1739919884109346600,11.3663466796875,-4.580206394195557,0.040134552866220474,-0.4283373951911926
1739919884119329800,11.376329833984375,-4.615360260009766,0.12860603630542755,-0.3232545256614685
1739919884129311500,11.3863115234375,-4.7132954597473145,0.23624487221240997,-0.221883162856102
1739919884139294700,11.396294677734375,-4.847339630126953,0.35595110058784485,-0.16783852875232697
1739919884149276700,11.406276611328124,-4.960815906524658,0.5164960026741028,-0.19471381604671478
1739919884159258600,11.416258544921876,-5.021363735198975,0.7061926126480103,-0.30994313955307007
1739919884169241600,11.42624169921875,-5.036234378814697,0.8722028732299805,-0.47805625200271606
1739919884179223800,11.436223876953125,-5.042660713195801,0.9795678853988647,-0.6993489861488342
1739919884189206500,11.44620654296875,-5.049098968505859,1.0100120306015015,-0.9653577208518982
1739919884199188700,11.456188720703125,-5.06342077255249,0.987080991268158,-1.2467386722564697
1739919884209170700,11.466170654296874,-5.086141586303711,0.909818172454834,-1.4879460334777832
1739919884219153700,11.476153564453124,-5.109827041625977,0.7433571219444275,-1.613675832748413
1739919884229136000,11.486135986328126,-5.131014347076416,0.5264876484870911,-1.6166192293167114
1739919884239118600,11.49611865234375,-5.118612766265869,0.23940251767635345,-1.5276955366134644
1739919884249100800,11.506100830078125,-5.044538497924805,-0.09377890825271606,-1.372020959854126
1739919884259083800,11.516083740234375,-4.946589469909668,-0.38551589846611023,-1.1966345310211182
1739919884269065700,11.526065673828125,-4.822793960571289,-0.584549605846405,-1.0002751350402832
1739919884279047700,11.536047607421875,-4.708178520202637,-0.6966440677642822,-0.8316149115562439
1739919884289030700,11.54603076171875,-4.582578659057617,-0.6902639269828796,-0.7141673564910889
1739919884299012600,11.5560126953125,-4.4098687171936035,-0.507829487323761,-0.6121774911880493
1739919884308995800,11.565995849609376,-4.146989345550537,-0.18445754051208496,-0.4987505078315735
1739919884318977500,11.5759775390625,-3.8193888664245605,0.20330363512039185,-0.3697657585144043
1739919884328959700,11.585959716796875,-3.4928646087646484,0.6013623476028442,-0.23599359393119812
1739919884338942700,11.595942626953125,-3.2064735889434814,0.9381195902824402,-0.08216888457536697
1739919884348924700,11.605924560546875,-2.9753060340881348,1.194645643234253,0.05572853609919548
1739919884358907600,11.61590771484375,-2.8130340576171875,1.3561444282531738,0.13588561117649078
1739919884368889600,11.6258896484375,-2.700655937194824,1.4270188808441162,0.16077978909015656
1739919884378872600,11.63587255859375,-2.6095523834228516,1.4256467819213867,0.14370714128017426
1739919884388854800,11.645854736328126,-2.5398812294006348,1.341049313545227,0.08049807697534561
1739919884398836700,11.655836669921875,-2.47605037689209,1.183835744857788,-0.021629024296998978
1739919884408819500,11.6658193359375,-2.3988540172576904,0.9782905578613281,-0.13731646537780762
1739919884418801700,11.6758017578125,-2.286926031112671,0.7368016839027405,-0.25257545709609985
1739919884428784600,11.68578466796875,-2.1443839073181152,0.4954095184803009,-0.3514738082885742
1739919884438766600,11.6957666015625,-1.9737391471862793,0.25920337438583374,-0.43756794929504395
1739919884448748500,11.70574853515625,-1.7811819314956665,0.03822466731071472,-0.4937654435634613
1739919884458731800,11.715731689453126,-1.5678284168243408,-0.18084169924259186,-0.5161336064338684
1739919884468713500,11.72571337890625,-1.3360189199447632,-0.3697333335876465,-0.5129138231277466
1739919884478696700,11.73569677734375,-1.0717543363571167,-0.4911312758922577,-0.4802134037017822
1739919884488678400,11.745678466796875,-0.798332929611206,-0.5536547899246216,-0.3896515369415283
1739919884498661600,11.75566162109375,-0.5255513787269592,-0.5655263066291809,-0.24085374176502228
1739919884508643600,11.7656435546875,-0.27565279603004456,-0.5555533170700073,-0.030164409428834915
1739919884518625500,11.77562548828125,-0.04033084586262703,-0.548846960067749,0.2259126603603363
1739919884528608500,11.7856083984375,0.20012490451335907,-0.5421735644340515,0.49665093421936035
1739919884538590500,11.795590576171875,0.4787016808986664,-0.5037460327148438,0.7640003561973572
1739919884548573400,11.805573486328125,0.8146072030067444,-0.44268643856048584,1.0125247240066528
1739919884558556700,11.815556640625,1.222852110862732,-0.35335707664489746,1.2402149438858032
1739919884568538400,11.825538330078125,1.6959973573684692,-0.20741187036037445,1.3980967998504639
1739919884578520600,11.8355205078125,2.2285611629486084,0.023862313479185104,1.4830853939056396
1739919884588503600,11.845503662109374,2.788300037384033,0.32989469170570374,1.5433769226074219
1739919884598485500,11.855485595703126,3.3115456104278564,0.7080243825912476,1.5803331136703491
1739919884608468500,11.865468505859376,3.7791366577148438,1.0961189270019531,1.610084056854248
1739919884618450700,11.87545068359375,4.147251129150391,1.412585735321045,1.6218684911727905
1739919884628433400,11.885433349609375,4.415075302124023,1.648167371749878,1.6220059394836426
1739919884638415600,11.89541552734375,4.555280685424805,1.7999130487442017,1.6104201078414917
1739919884648397600,11.9053974609375,4.569629192352295,1.897186040878296,1.547634243965149
1739919884658380500,11.915380615234374,4.496208190917969,1.9325131177902222,1.4440721273422241
1739919884668362500,11.925362548828126,4.383670806884766,1.8590881824493408,1.3269792795181274
1739919884678345500,11.935345458984376,4.254474639892578,1.6701922416687012,1.207801342010498
1739919884688327400,11.945327392578125,4.168798446655273,1.4010816812515259,1.0665810108184814
1739919884698309600,11.9553095703125,4.1522979736328125,1.132237195968628,0.8770245313644409
1739919884708292600,11.965292724609375,4.1839399337768555,0.9174249768257141,0.6439291834831238
1739919884718274600,11.975274658203125,4.248342037200928,0.7462995052337646,0.4025207459926605
1739919884728257500,11.985257568359375,4.314404010772705,0.5915161371231079,0.19713138043880463
1739919884738239500,11.995239501953124,4.333258628845215,0.38009071350097656,0.08086887001991272
1739919884748222500,12.005222412109376,4.341682434082031,0.13078662753105164,0.03437726944684982
1739919884758204400,12.015204345703125,4.344841480255127,-0.10366962105035782,0.02294182777404785
1739919884768186600,12.0251865234375,4.3439435958862305,-0.2995573878288269,-0.0005770810530520976
1739919884778169600,12.035169677734375,4.355580806732178,-0.4320099353790283,-0.06334186345338821
1739919884788151600,12.045151611328125,4.383172035217285,-0.46969714760780334,-0.16841928660869598
1739919884798134500,12.055134521484375,4.412881851196289,-0.4236338436603546,-0.28528767824172974
1739919884808116500,12.065116455078124,4.435771942138672,-0.31548792123794556,-0.37628310918807983
1739919884818099500,12.075099365234376,4.442512035369873,-0.17022182047367096,-0.44484367966651917
1739919884828081700,12.08508154296875,4.431595325469971,-0.007031826302409172,-0.5037704110145569
1739919884838063400,12.0950634765625,4.400848388671875,0.1544366180896759,-0.5600967407226562
1739919884848046600,12.105046630859375,4.337780952453613,0.31852784752845764,-0.6196516752243042
1739919884858028500,12.115028564453125,4.248195171356201,0.4641828238964081,-0.6596986651420593
1739919884868011500,12.125011474609375,4.131906509399414,0.5574331283569336,-0.6736621260643005
1739919884877993500,12.134993408203124,3.9678103923797607,0.589235782623291,-0.6756477952003479
1739919884887975400,12.144975341796876,3.7885422706604004,0.5589148998260498,-0.6584749221801758
1739919884897958400,12.15495849609375,3.5931081771850586,0.4809989631175995,-0.6452262997627258
1739919884907940600,12.164940673828125,3.3963019847869873,0.3885984420776367,-0.643716037273407
1739919884917923300,12.17492333984375,3.197660446166992,0.3114440143108368,-0.6615436673164368
1739919884927905500,12.184905517578125,2.9969875812530518,0.23825395107269287,-0.7016400098800659
1739919884937887500,12.194887451171875,2.7975971698760986,0.16236113011837006,-0.774060070514679
1739919884947870500,12.204870361328124,2.581641435623169,0.08519070595502853,-0.8647436499595642
1739919884957852700,12.214852783203124,2.345712661743164,0.08981921523809433,-0.95450758934021
1739919884967835400,12.22483544921875,2.085660934448242,0.2092907577753067,-1.0038384199142456
1739919884977817600,12.234817626953125,1.8328838348388672,0.3622438311576843,-1.0213723182678223
1739919884987800600,12.244800537109375,1.585202932357788,0.4108579754829407,-1.0012094974517822
1739919884997782500,12.254782470703125,1.2936128377914429,0.3387717008590698,-0.9595847129821777
1739919885007764500,12.264764404296875,0.9130838513374329,0.16375410556793213,-0.8854694962501526
1739919885017747700,12.274747802734375,0.46667689085006714,-0.06375669687986374,-0.7798230051994324
1739919885027729400,12.2847294921875,-0.03710127994418144,-0.2648322582244873,-0.6618162393569946
1739919885037712600,12.294712646484374,-0.5649248957633972,-0.4339510202407837,-0.5413110256195068
1739919885047694300,12.3046943359375,-1.1168609857559204,-0.527855396270752,-0.4142518639564514
1739919885057677600,12.314677490234375,-1.6927164793014526,-0.5489448308944702,-0.27002596855163574
1739919885067659500,12.324659423828125,-2.256049871444702,-0.5200559496879578,-0.11802791804075241
1739919885077641500,12.334641357421875,-2.7452280521392822,-0.4586101472377777,0.03860341012477875
1739919885087624400,12.34462451171875,-3.1364457607269287,-0.36675798892974854,0.19638638198375702
1739919885097606700,12.354606689453124,-3.4144904613494873,-0.2552638649940491,0.3365928530693054
1739919885107589400,12.36458935546875,-3.6046602725982666,-0.12369678914546967,0.4447709918022156
1739919885117571600,12.374571533203126,-3.746208667755127,0.013828042894601822,0.5087729096412659
1739919885127553500,12.384553466796875,-3.869105339050293,0.17732030153274536,0.5369653701782227
1739919885137536500,12.39453662109375,-4.002437114715576,0.38038986921310425,0.5506207346916199
1739919885147518700,12.404518798828125,-4.152591228485107,0.5812899470329285,0.5697089433670044
1739919885157501400,12.41450146484375,-4.312272071838379,0.7566606402397156,0.6049500107765198
1739919885167483600,12.424483642578124,-4.465118408203125,0.8705618977546692,0.658444881439209
1739919885177466600,12.434466552734374,-4.600203990936279,0.8994080424308777,0.7252808213233948
1739919885187448600,12.444448486328126,-4.727594375610352,0.838025689125061,0.7945438027381897
1739919885197430500,12.454430419921875,-4.836669445037842,0.7032430768013,0.8427739143371582
1739919885207413500,12.46441357421875,-4.897978782653809,0.5179693698883057,0.869993269443512
1739919885217395500,12.4743955078125,-4.8967695236206055,0.317439466714859,0.8675369620323181
1739919885227378700,12.484378662109375,-4.821399688720703,0.12096289545297623,0.8167275786399841
1739919885237360400,12.4943603515625,-4.675750732421875,-0.060880813747644424,0.7284486889839172
1739919885247342600,12.504342529296874,-4.494486331939697,-0.19842110574245453,0.6187674403190613
1739919885257325600,12.51432568359375,-4.333304405212402,-0.2818130552768707,0.514422595500946
1739919885267307500,12.5243076171875,-4.244702339172363,-0.35831713676452637,0.4578331410884857
