time,seconds_elapsed,z,y,x
1739919872785578500,0.04257861328125,-0.017401892691850662,0.020866932347416878,0.022006765007972717
1739919872795561500,0.0525615234375,-0.014888934791088104,0.008037153631448746,-0.011462245136499405
1739919872805543700,0.062543701171875,-0.013479589484632015,-0.0029880667570978403,-0.029525134712457657
1739919872815525600,0.072525634765625,-0.01182337012141943,0.0014120079576969147,-0.025770610198378563
1739919872825508600,0.082508544921875,0.00207726564258337,0.010056895203888416,-0.010132795199751854
1739919872835490800,0.09249072265625,0.012803945690393448,0.016584569588303566,0.0028333370573818684
1739919872845472500,0.102472412109375,0.010870224796235561,0.023020897060632706,-0.0033816818613559008
1739919872855455700,0.112455810546875,0.012163988314568996,0.019787553697824478,-0.02424009144306183
1739919872865437400,0.1224375,0.011262774467468262,0.0163028072565794,-0.04198739677667618
1739919872875419600,0.132419677734375,0.01179061271250248,0.01423219870775938,-0.05456604063510895
1739919872885402600,0.142402587890625,0.004453870467841625,0.010248376056551933,-0.05203736945986748
1739919872895384600,0.152384521484375,-0.003999801818281412,0.018372349441051483,-0.03591619059443474
1739919872905366800,0.16236669921875,-0.007000918034464121,0.022237394005060196,-0.009965016506612301
1739919872915349500,0.172349609375,-0.007418768014758825,0.02805027738213539,0.009333580732345581
1739919872925331700,0.182331787109375,-0.011638280004262924,0.030482808127999306,0.012778112664818764
1739919872935314700,0.192314697265625,-0.008932508528232574,0.018269818276166916,0.006332464516162872
1739919872945296600,0.202296630859375,-0.009384979493916035,0.007752728182822466,-0.010397779755294323
1739919872955278600,0.212278564453125,-0.011083543300628662,0.003828826593235135,-0.027461452409625053
1739919872965261800,0.22226171875,-0.002898584585636854,0.01073706615716219,-0.03200453892350197
1739919872975243500,0.232243408203125,0.0012934972764924169,0.029347235336899757,-0.03532177209854126
1739919872985225700,0.242225830078125,0.00657641002908349,0.04055621474981308,-0.035763856023550034
1739919872995208400,0.25220849609375,0.007706122938543558,0.03687252849340439,-0.04280339181423187
1739919873005190700,0.262190673828125,0.010509366169571877,0.019702065736055374,-0.05914401262998581
1739919873015172600,0.272172607421875,0.014856443740427494,-0.008725580759346485,-0.07517384737730026
1739919873025155600,0.282155517578125,0.009923737496137619,-0.02833763137459755,-0.08867740631103516
1739919873035137500,0.292137451171875,0.005393433850258589,-0.03213530033826828,-0.08873732388019562
1739919873045119500,0.302119384765625,0.00038828887045383453,-0.020414726808667183,-0.08056088536977768
1739919873055102500,0.3121025390625,-0.004744687583297491,0.004125502891838551,-0.056778326630592346
1739919873065084700,0.322084716796875,-0.013859356753528118,0.029560554772615433,-0.03563442826271057
1739919873075066600,0.332066650390625,-0.016682839021086693,0.046493999660015106,-0.02483956888318062
1739919873085049600,0.342049560546875,-0.014733672142028809,0.04932946711778641,-0.01344630029052496
1739919873095031600,0.352031494140625,-0.014772288501262665,0.042871832847595215,-0.011376491747796535
1739919873105014500,0.3620146484375,-0.008194014430046082,0.032588038593530655,-0.01961151883006096
1739919873114996700,0.371996826171875,-0.012569054961204529,0.03213689848780632,-0.017792578786611557
1739919873124978400,0.381978515625,-0.010692858137190342,0.02918851189315319,-0.020731909200549126
1739919873134961700,0.391961669921875,-0.012113920412957668,0.023428360000252724,-0.021873872727155685
1739919873144943400,0.401943359375,-0.0018021611031144857,0.026818297803401947,-0.025047296658158302
1739919873154925600,0.411925537109375,0.0001685781026026234,0.02948385663330555,-0.02694852650165558
1739919873164908500,0.421908447265625,0.006132727488875389,0.04078657925128937,-0.026505110785365105
1739919873174890500,0.431890380859375,0.00914449617266655,0.04258980602025986,-0.029038576409220695
1739919873184872700,0.441872802734375,0.003906857222318649,0.04558958858251572,-0.023859260603785515
1739919873194855700,0.451855712890625,0.0006564692012034357,0.050704989582300186,-0.023185746744275093
1739919873204837600,0.461837646484375,0.010775416158139706,0.056163668632507324,-0.035836029797792435
1739919873214819600,0.471819580078125,0.018071943894028664,0.054306115955114365,-0.04573020339012146
1739919873224802600,0.481802490234375,0.013400760479271412,0.04205077886581421,-0.05847715958952904
1739919873234784500,0.491784423828125,0.007740211207419634,0.019121229648590088,-0.06120876222848892
1739919873244767700,0.501767822265625,0.0049249837175011635,0.00444002216681838,-0.06421760469675064
1739919873254749400,0.51174951171875,-0.0005917543894611299,-0.0032581111881881952,-0.04266383871436119
1739919873264731600,0.521731689453125,-0.00908271037042141,0.006930610164999962,-0.017139306291937828
1739919873274714400,0.53171435546875,-0.0070794811472296715,0.027582624927163124,0.009078715927898884
1739919873284696600,0.541696533203125,-0.0037531929556280375,0.03821396455168724,0.025048362091183662
1739919873294678800,0.5516787109375,-0.003233343828469515,0.04035860672593117,0.031746745109558105
1739919873304661500,0.56166162109375,-0.005935919936746359,0.036015525460243225,0.025135446339845657
1739919873314643700,0.571643798828125,-0.0031310785561800003,0.04428490623831749,0.021132182329893112
1739919873324625400,0.58162548828125,-0.0014359764754772186,0.051228832453489304,0.002698048483580351
1739919873334608600,0.591608642578125,-0.0022237394005060196,0.05217718333005905,-0.011871573515236378
1739919873344590600,0.601590576171875,-0.0065164887346327305,0.04716884344816208,-0.017849836498498917
1739919873354572500,0.611572509765625,-0.0140183474868536,0.04404575377702713,-0.012736035510897636
1739919873364555500,0.621555419921875,-0.016169382259249687,0.05980341136455536,-0.008330900222063065
1739919873374537500,0.631537353515625,-0.011330951005220413,0.06846321374177933,-0.001276186783798039
1739919873384519700,0.641519775390625,-0.001939580193720758,0.06658834964036942,0.007394266780465841
1739919873394502700,0.651502685546875,0.014660435728728771,0.05637006461620331,0.01691160537302494
1739919873404484000,0.661484130859375,0.017077520489692688,0.045890793204307556,0.015923572704195976
1739919873414466800,0.671466796875,0.010389789938926697,0.04031546413898468,0.00944889523088932
1739919873424449000,0.681448974609375,0.0020764668006449938,0.03686640411615372,0.00926220789551735
1739919873434430700,0.6914306640625,-0.00032410668791271746,0.03195340558886528,0.02160329557955265
1739919873444414000,0.7014140625,0.0005041363765485585,0.025320537388324738,0.029645510017871857
1739919873454396000,0.71139599609375,-0.0032538501545786858,0.025240108370780945,0.02588406205177307
1739919873464377900,0.7213779296875,-0.0003259709046687931,0.03015390783548355,0.012102202512323856
1739919873474360800,0.73136083984375,0.00839694682508707,0.039500005543231964,-0.004047205671668053
1739919873484342800,0.7413427734375,0.01395895890891552,0.034558508545160294,-0.01936917006969452
1739919873494325000,0.751324951171875,0.0036820864770561457,0.032227709889411926,-0.027719512581825256
1739919873504308000,0.761307861328125,0.004116448108106852,0.027834028005599976,-0.028920065611600876
1739919873514290000,0.7712900390625,0.006842725910246372,0.023359118029475212,-0.02606196142733097
1739919873524273000,0.78127294921875,0.008991098031401634,0.009102950803935528,-0.024774322286248207
1739919873534255000,0.791255126953125,0.01155439019203186,-0.0009768474847078323,-0.02449682168662548
1739919873544236800,0.80123681640625,0.012114453129470348,-0.014577877707779408,-0.033853303641080856
1739919873554220000,0.811219970703125,0.01323937252163887,-0.021200094372034073,-0.042034536600112915
1739919873564201700,0.82120166015625,0.014975487254559994,-0.017678063362836838,-0.05055611953139305
1739919873574184000,0.831183837890625,0.017953965812921524,-0.0161209125071764,-0.05566832050681114
1739919873584167000,0.8411669921875,0.018131332471966743,-0.003093527862802148,-0.05306188762187958
1739919873594148900,0.85114892578125,0.016055399551987648,0.02015134133398533,-0.04857153072953224
1739919873604131000,0.861131103515625,0.0037619813811033964,0.034274615347385406,-0.03590873256325722
1739919873614113800,0.87111376953125,-0.010459830984473228,0.04318422079086304,-0.026851320639252663
1739919873624096000,0.881095947265625,-0.011260909959673882,0.048055410385131836,-0.018607506528496742
1739919873634078000,0.891077880859375,-0.00959883164614439,0.05281953886151314,-0.015049789100885391
1739919873644061000,0.90106103515625,-0.0027427896857261658,0.050880756229162216,-0.017140638083219528
1739919873654043000,0.91104296875,-0.0017861821688711643,0.041061416268348694,-0.021874405443668365
1739919873664024800,0.92102490234375,-0.006088519003242254,0.03322586417198181,-0.02268427424132824
1739919873674007800,0.9310078125,-0.003972104750573635,0.023148994892835617,-0.014808506704866886
1739919873683990000,0.940989990234375,-0.0034964641090482473,0.023935426026582718,-0.009721336886286736
1739919873693972700,0.95097265625,0.001002413802780211,0.020671190693974495,-0.005101018585264683
1739919873703955000,0.960954833984375,0.005890113301575184,0.014095312915742397,-0.013837252743542194
1739919873713937000,0.97093701171875,0.0064954496920108795,0.010209494270384312,-0.03477262705564499
1739919873723920000,0.980919921875,0.0060919807292521,-0.004214984830468893,-0.0520554780960083
1739919873733902000,0.990902099609375,0.0037207023706287146,-0.0011938951211050153,-0.05987798050045967
1739919873743883800,1.0008837890625,0.009318666532635689,-0.0068057081662118435,-0.04092852398753166
1739919873753867000,1.010866943359375,0.004107393324375153,0.00749120581895113,-0.013557620346546173
1739919873763849000,1.020848876953125,-0.0049196574836969376,0.033679667860269547,0.01398479100316763
1739919873773831000,1.030830810546875,-0.006455768831074238,0.053997721523046494,0.03798945993185043
1739919873783814000,1.04081396484375,-0.0018524948973208666,0.06499604135751724,0.03981691971421242
1739919873793795800,1.0507958984375,0.004430434666574001,0.06354914605617523,0.030296387150883675
1739919873803778000,1.060778076171875,-0.00267727579921484,0.05535140633583069,0.007445133291184902
1739919873813761000,1.070760986328125,-0.014119281433522701,0.03536651283502579,-0.012677179649472237
1739919873823743000,1.080742919921875,-0.02263473905622959,0.005051483865827322,-0.01287265494465828
1739919873833726000,1.090725830078125,-0.026800721883773804,-0.009014533832669258,-0.008780175819993019
1739919873843708000,1.1007080078125,-0.02737516537308693,0.004773982334882021,-0.0032493227627128363
1739919873853689900,1.11068994140625,-0.02623080462217331,0.038179609924554825,0.0011028150329366326
1739919873863673000,1.120673095703125,-0.014479606412351131,0.07260096818208694,0.00138031633105129
1739919873873654800,1.13065478515625,-0.000811997801065445,0.09190569072961807,-0.0020690099336206913
1739919873883637000,1.140636962890625,0.0038304245099425316,0.10294209420681,-0.011507252231240273
1739919873893620000,1.150619873046875,-0.00170788518153131,0.0972602367401123,-0.025305090472102165
1739919873903602000,1.160601806640625,-0.00695058424025774,0.08425256609916687,-0.03254382684826851
1739919873913583900,1.170583984375,-0.0028613002505153418,0.06824323534965515,-0.032701753079891205
1739919873923566800,1.18056689453125,-0.008318383246660233,0.06359042972326279,-0.03543415665626526
1739919873933548800,1.190548828125,-0.007463508751243353,0.07199349999427795,-0.03827361762523651
1739919873943531000,1.200531005859375,-0.001148355077020824,0.08055795729160309,-0.046309974044561386
1739919873953514000,1.210513916015625,-0.0037406759802252054,0.09226388484239578,-0.051655471324920654
1739919873963496000,1.220495849609375,-0.007171360310167074,0.10847454518079758,-0.05686274915933609
1739919873973479000,1.23047900390625,-0.018391523510217667,0.12290461361408234,-0.04980723559856415
1739919873983460900,1.2404609375,-0.019813384860754013,0.13214579224586487,-0.04442498832941055
1739919873993443000,1.250443115234375,-0.021494640037417412,0.14390496909618378,-0.04350806400179863
1739919874003425800,1.26042578125,-0.030345655977725983,0.16561506688594818,-0.03236699476838112
1739919874013408000,1.270407958984375,-0.03027188591659069,0.15352670848369598,-0.02461719512939453
1739919874023389700,1.2803896484375,-0.030794130638241768,0.15929964184761047,0.0027515781112015247
1739919874033373000,1.290373046875,-0.041183121502399445,0.15837925672531128,0.029812756925821304
1739919874043355000,1.30035498046875,-0.033485256135463715,0.1800784170627594,0.06477020680904388
1739919874053336800,1.3103369140625,-0.04500262811779976,0.17248308658599854,0.07181959599256516
1739919874063319800,1.32031982421875,-0.04285052791237831,0.176146000623703,0.06320293992757797
1739919874073302000,1.330302001953125,-0.044256675988435745,0.16444939374923706,0.04254027083516121
1739919874083284000,1.340283935546875,0.0003462109307292849,0.09270969778299332,0.025121331214904785
1739919874093267000,1.350266845703125,0.0211231280118227,0.07978138327598572,-0.00977246928960085
1739919874103249000,1.360248779296875,-0.0008612662786617875,0.06938520073890686,-0.03507569432258606
1739919874113232000,1.37023193359375,-0.00021012341312598437,0.09218718111515045,-0.0463898703455925
1739919874123214000,1.380214111328125,0.0017113472567871213,0.11383681744337082,-0.014816762879490852
1739919874133195800,1.39019580078125,0.01540691964328289,0.1462741196155548,0.023727700114250183
1739919874143179000,1.400178955078125,0.033556628972291946,0.19113746285438538,0.06614386290311813
1739919874153160700,1.41016064453125,0.051896221935749054,0.23812335729599,0.0820503979921341
1739919874163143000,1.420142822265625,0.058883823454380035,0.2804356515407562,0.07747987657785416
1739919874173126000,1.4301259765625,0.0718853771686554,0.2925083041191101,0.07128962874412537
1739919874183107800,1.44010791015625,0.07535360753536224,0.289603054523468,0.03705735504627228
1739919874193090000,1.450090087890625,0.07116818428039551,0.2850083112716675,0.007459247950464487
1739919874203073000,1.460072998046875,0.0689721405506134,0.26237037777900696,-0.019275693222880363
1739919874213055000,1.470054931640625,0.07792409509420395,0.23023267090320587,-0.038054175674915314
1739919874223037000,1.480036865234375,0.09317362308502197,0.18911080062389374,-0.0696970522403717
1739919874233020000,1.49002001953125,0.0956421047449112,0.16338200867176056,-0.10606704652309418
1739919874243001900,1.500001953125,0.09383781254291534,0.14912956953048706,-0.1347104161977768
1739919874252985000,1.509985107421875,0.09697262197732925,0.1480184942483902,-0.14917324483394623
1739919874262966800,1.519966796875,0.09870047867298126,0.15413230657577515,-0.13608619570732117
1739919874272949000,1.529948974609375,0.09252354502677917,0.17140796780586243,-0.10393412411212921
1739919874282931700,1.539931640625,0.07632513344287872,0.19754503667354584,-0.0624183714389801
1739919874292914000,1.549913818359375,0.057739727199077606,0.22641636431217194,-0.01082894578576088
1739919874302896000,1.559896240234375,0.05874267593026161,0.24592667818069458,0.04026619717478752
1739919874312878800,1.56987890625,0.07900241017341614,0.24035055935382843,0.10257191210985184
1739919874322861000,1.579861083984375,0.10183288902044296,0.24195484817028046,0.15446467697620392
1739919874332842800,1.5898427734375,0.12603329122066498,0.2526184022426605,0.19263096153736115
1739919874342826000,1.599825927734375,0.14685948193073273,0.2698482573032379,0.23002254962921143
1739919874352808000,1.609807861328125,0.15614032745361328,0.302341490983963,0.27722734212875366
1739919874362790000,1.619789794921875,0.15744395554065704,0.3577938377857208,0.32992276549339294
1739919874372772900,1.62977294921875,0.15370114147663116,0.43808066844940186,0.3888857066631317
1739919874382754800,1.6397548828125,0.15591876208782196,0.51383376121521,0.45724424719810486
1739919874392737800,1.64973779296875,0.14931438863277435,0.5551117062568665,0.46907880902290344
1739919874402720800,1.659720703125,0.13428696990013123,0.5569873452186584,0.39068812131881714
1739919874412702700,1.66970263671875,0.12018392980098724,0.5115812420845032,0.20729991793632507
1739919874422685700,1.679685791015625,0.10920984297990799,0.43419352173805237,-0.010389523580670357
1739919874432667600,1.689667724609375,0.10008957982063293,0.35963141918182373,-0.21279269456863403
1739919874442649600,1.699649658203125,0.10464172065258026,0.3093293607234955,-0.37677711248397827
1739919874452632600,1.709632568359375,0.11973784863948822,0.28327617049217224,-0.483304888010025
1739919874462614800,1.71961474609375,0.11479183286428452,0.30632317066192627,-0.529448926448822
1739919874472596700,1.7295966796875,0.08606164902448654,0.3665657341480255,-0.5175347328186035
1739919874482579700,1.739579833984375,0.02556954137980938,0.4677365720272064,-0.47409141063690186
1739919874492562000,1.74956201171875,-0.0247799139469862,0.5732446312904358,-0.4464408755302429
1739919874502543600,1.759543701171875,-0.05946039780974388,0.6586151719093323,-0.4551861584186554
1739919874512526800,1.76952685546875,-0.07647639513015747,0.6023982167243958,-0.6105672121047974
1739919874522508500,1.779508544921875,-0.08338890224695206,0.739861011505127,-0.746732234954834
1739919874532491800,1.78949169921875,-0.08972322940826416,0.9299806356430054,-0.7637309432029724
1739919874542473700,1.7994736328125,-0.11663500219583511,1.1190578937530518,-0.7431532144546509
1739919874552455700,1.80945556640625,-0.1399027705192566,1.3430994749069214,-0.7024825215339661
1739919874562438700,1.819438720703125,-0.16236041486263275,1.6451600790023804,-0.5978575348854065
1739919874572420600,1.829420654296875,-0.17449936270713806,1.975368618965149,-0.48357999324798584
1739919874582402800,1.83940283203125,-0.18763966858386993,2.2225987911224365,-0.46137934923171997
1739919874592385800,1.8493857421875,-0.21483534574508667,2.3542115688323975,-0.5302407145500183
1739919874602367700,1.85936767578125,-0.25182104110717773,2.3567416667938232,-0.6528164148330688
1739919874612349700,1.869349609375,-0.2916105389595032,2.338752031326294,-0.7494401335716248
1739919874622333000,1.8793330078125,-0.34770071506500244,2.350003719329834,-0.7690261006355286
1739919874632314600,1.889314697265625,-0.42486634850502014,2.4318578243255615,-0.709444522857666
1739919874642296800,1.899296875,-0.5306226015090942,2.5877315998077393,-0.5858842730522156
1739919874652279600,1.909279541015625,-0.6471609473228455,2.7957417964935303,-0.40970948338508606
1739919874662261800,1.91926171875,-0.7500300407409668,3.0022687911987305,-0.25757160782814026
1739919874672244700,1.92924462890625,-0.8377513885498047,3.162952184677124,-0.17011500895023346
1739919874682226700,1.939226806640625,-0.9269081354141235,3.295588493347168,-0.17355448007583618
1739919874692208600,1.949208740234375,-1.0290504693984985,3.388845682144165,-0.23759019374847412
1739919874702191600,1.959191650390625,-1.1474239826202393,3.4216866493225098,-0.3550776541233063
1739919874712173800,1.969173828125,-1.3117157220840454,3.449262857437134,-0.47878894209861755
1739919874722155800,1.97915576171875,-1.5192697048187256,3.497454881668091,-0.5541518926620483
1739919874732138800,1.989138671875,-1.7332794666290283,3.6457016468048096,-0.5168479084968567
1739919874742120700,1.99912060546875,-1.9107781648635864,3.900099277496338,-0.35692670941352844
1739919874752102700,2.0091025390625,-2.0370535850524902,4.2045440673828125,-0.1161084994673729
1739919874762085600,2.019085693359375,-2.121212959289551,4.425323009490967,0.09987866133451462
1739919874772067800,2.02906787109375,-2.1502280235290527,4.456543922424316,0.22168312966823578
1739919874782049500,2.039049560546875,-2.0508928298950195,4.306646823883057,0.2557052671909332
1739919874792032800,2.04903271484375,-1.9891847372055054,4.205556869506836,0.18169362843036652
1739919874802014700,2.0590146484375,-2.0839264392852783,3.979764223098755,0.05205867439508438
1739919874811997700,2.068997802734375,-2.2517497539520264,3.6714656352996826,-0.07313306629657745
1739919874821979600,2.078979736328125,-2.4779374599456787,3.3309876918792725,-0.20568259060382843
1739919874831961600,2.088961669921875,-2.7121741771698,3.1238834857940674,-0.30454710125923157
1739919874841944600,2.098944580078125,-2.884164571762085,2.9985179901123047,-0.33673566579818726
1739919874851926800,2.1089267578125,-2.9906084537506104,2.8992161750793457,-0.30591145157814026
1739919874861908700,2.11890869140625,-3.05828595161438,2.7982866764068604,-0.28595027327537537
1739919874871891700,2.1288916015625,-3.1077799797058105,2.6792142391204834,-0.32316261529922485
1739919874881873700,2.138873779296875,-3.1700541973114014,2.5923285484313965,-0.47299444675445557
1739919874891855600,2.148855712890625,-3.267298460006714,2.5976481437683105,-0.6995847225189209
1739919874901838800,2.1588388671875,-3.3790857791900635,2.6676604747772217,-0.9451476335525513
1739919874911820500,2.168820556640625,-3.4944443702697754,2.7268335819244385,-1.1522307395935059
1739919874921803800,2.1788037109375,-3.623567819595337,2.716735363006592,-1.2788022756576538
1739919874931785700,2.18878564453125,-3.8293914794921875,2.6299972534179688,-1.3279300928115845
1739919874941767700,2.198767578125,-4.067812919616699,2.3498599529266357,-1.3033486604690552
1739919874951750700,2.208750732421875,-4.283608436584473,1.9105736017227173,-1.2365916967391968
1739919874961732600,2.218732666015625,-4.423008441925049,1.43434476852417,-1.129406452178955
1739919874971714800,2.22871484375,-4.446015357971191,0.98118656873703,-0.9930650591850281
1739919874981697800,2.23869775390625,-4.382858753204346,0.565981924533844,-0.8093021512031555
1739919874991679700,2.2486796875,-4.238088130950928,0.22539876401424408,-0.5948066115379333
1739919875001661700,2.25866162109375,-4.037647724151611,-0.043186087161302567,-0.3916018605232239
1739919875011644700,2.268644775390625,-3.8208518028259277,-0.2069624960422516,-0.22269566357135773
1739919875021626600,2.278626708984375,-3.566524028778076,-0.29069602489471436,-0.11382617056369781
1739919875031609900,2.28860986328125,-3.3011252880096436,-0.2634577453136444,-0.027346136048436165
1739919875041591600,2.298591552734375,-3.0616815090179443,-0.2113972008228302,0.024752750992774963
1739919875051573800,2.30857373046875,-2.8475797176361084,-0.09983711689710617,0.07915660738945007
1739919875061556700,2.318556640625,-2.6142818927764893,0.03230813890695572,0.11551354825496674
1739919875071538700,2.32853857421875,-2.336008071899414,0.1550697386264801,0.12049951404333115
1739919875081521000,2.33852099609375,-2.0016729831695557,0.21695494651794434,0.0973539799451828
1739919875091503600,2.348503662109375,-1.6260653734207153,0.165405735373497,0.043834034353494644
1739919875101485800,2.35848583984375,-1.2716314792633057,0.033724673092365265,-0.063491091132164
1739919875111467500,2.368467529296875,-0.9798613786697388,-0.12521198391914368,-0.24175164103507996
1739919875121450800,2.37845068359375,-0.7954843640327454,-0.2662529945373535,-0.49206453561782837
1739919875131432700,2.3884326171875,-0.7594190239906311,-0.3235873878002167,-0.8020229339599609
1739919875141414700,2.39841455078125,-0.838323712348938,-0.30464673042297363,-1.143254280090332
1739919875151397600,2.408397705078125,-0.9694430828094482,-0.25367167592048645,-1.4609235525131226
1739919875161379800,2.4183798828125,-1.0976582765579224,-0.20347322523593903,-1.6827476024627686
1739919875171362600,2.428362548828125,-1.1587685346603394,-0.13292156159877777,-1.7668323516845703
1739919875181344800,2.4383447265625,-1.0960314273834229,-0.03463707119226456,-1.7337775230407715
1739919875191326700,2.44832666015625,-0.935757577419281,0.05345496907830238,-1.607334852218628
1739919875201309700,2.458309814453125,-0.6799708008766174,0.10600312799215317,-1.3930742740631104
1739919875211292000,2.4682919921875,-0.34497204422950745,0.1363794058561325,-1.0895545482635498
1739919875221273600,2.478273681640625,0.0018394453218206763,0.1907806098461151,-0.7242240309715271
1739919875231256800,2.4882568359375,0.31375712156295776,0.31439709663391113,-0.32981064915657043
1739919875241238500,2.498238525390625,0.5952268838882446,0.5290870070457458,0.04935823008418083
1739919875251220700,2.508220703125,0.8546728491783142,0.8328484892845154,0.38730138540267944
1739919875261203700,2.51820361328125,1.0982236862182617,1.184791922569275,0.6464282870292664
1739919875271185700,2.528185546875,1.3289040327072144,1.5521878004074097,0.8190304040908813
1739919875281168600,2.538168701171875,1.5803381204605103,1.8690974712371826,0.9268274307250977
1739919875291150800,2.54815087890625,1.8509957790374756,2.070383071899414,0.9835813045501709
1739919875301132800,2.5581328125,2.137830972671509,2.1288909912109375,1.0111294984817505
1739919875311115800,2.56811572265625,2.434504985809326,2.036620855331421,1.02004075050354
1739919875321097700,2.57809765625,2.723433017730713,1.8116257190704346,1.0231471061706543
1739919875331079700,2.58807958984375,2.990375518798828,1.51923668384552,1.0216889381408691
1739919875341063000,2.59806298828125,3.2077910900115967,1.2178534269332886,0.9971575736999512
1739919875351044600,2.608044677734375,3.3637373447418213,0.930304765701294,0.9468405842781067
1739919875361026800,2.61802685546875,3.4819960594177246,0.695469319820404,0.8750672936439514
1739919875371009800,2.628009765625,3.5570743083953857,0.5040120482444763,0.8075290322303772
1739919875380991700,2.63799169921875,3.583676338195801,0.36184796690940857,0.7590813040733337
1739919875390974700,2.647974609375,3.5913238525390625,0.2605636715888977,0.7356297969818115
1739919875400956000,2.657955810546875,3.5906825065612793,0.18161560595035553,0.7171850204467773
1739919875410938000,2.667938232421875,3.5951480865478516,0.09815187007188797,0.6790056824684143
1739919875420920800,2.6779208984375,3.6076254844665527,0.02437644638121128,0.6050084233283997
1739919875430903000,2.687903076171875,3.629822015762329,-0.016322514042258263,0.5004252791404724
1739919875440884700,2.697884765625,3.64650559425354,-0.0394696444272995,0.3712345361709595
1739919875450868000,2.707867919921875,3.62544584274292,-0.04369501769542694,0.21858826279640198
1739919875460850000,2.717849853515625,3.5370874404907227,-0.009609484113752842,0.03127749636769295
1739919875470831900,2.727831787109375,3.3999598026275635,0.025110678747296333,-0.18513363599777222
1739919875480814800,2.73781494140625,3.2647311687469482,0.022884543985128403,-0.41146957874298096
1739919875490796800,2.747796875,3.1518213748931885,-0.020481307059526443,-0.6020922660827637
1739919875500779800,2.75777978515625,3.0487165451049805,-0.11227833479642868,-0.7305588722229004
1739919875510762000,2.767761962890625,2.955381155014038,-0.23221619427204132,-0.77691251039505
1739919875520744000,2.777743896484375,2.8868603706359863,-0.33785367012023926,-0.7528942823410034
1739919875530727000,2.787726806640625,2.8589231967926025,-0.4145822823047638,-0.6860734224319458
1739919875540709000,2.797709228515625,2.8491623401641846,-0.4512641131877899,-0.5979001522064209
1739919875550690800,2.80769091796875,2.8246965408325195,-0.44021281599998474,-0.5091535449028015
1739919875560674000,2.817674072265625,2.7910964488983154,-0.40352803468704224,-0.4580834209918976
1739919875570655700,2.82765576171875,2.7273335456848145,-0.33328527212142944,-0.4503090977668762
1739919875580638000,2.837637939453125,2.6288578510284424,-0.2605295777320862,-0.5001240968704224
1739919875590621000,2.847620849609375,2.4942407608032227,-0.17658595740795135,-0.6128005385398865
1739919875600603000,2.857602783203125,2.3417422771453857,-0.06953060626983643,-0.7674679160118103
1739919875610585900,2.8675859375,2.1825268268585205,0.04900562763214111,-0.9388535022735596
1739919875620568000,2.877568115234375,2.054509401321411,0.1621159315109253,-1.1074166297912598
1739919875630550000,2.887550048828125,1.959244966506958,0.2205619364976883,-1.238204836845398
1739919875640533000,2.897532958984375,1.9234539270401,0.18285369873046875,-1.3088661432266235
1739919875650515000,2.907514892578125,1.9349726438522339,-0.002621882129460573,-1.352549433708191
1739919875660497000,2.917496826171875,1.91904878616333,-0.2601306438446045,-1.3984003067016602
1739919875670480100,2.927480224609375,1.833918809890747,-0.48951324820518494,-1.4637178182601929
1739919875680461800,2.9374619140625,1.6695750951766968,-0.6410212516784668,-1.5586570501327515
1739919875690445000,2.947445068359375,1.4620014429092407,-0.7225139737129211,-1.6552104949951172
1739919875700426800,2.9574267578125,1.2303473949432373,-0.7549928426742554,-1.737324595451355
1739919875710409000,2.967408935546875,1.0040695667266846,-0.768905758857727,-1.7606778144836426
1739919875720392000,2.977391845703125,0.7811871767044067,-0.7517568469047546,-1.700269341468811
1739919875730374000,2.987373779296875,0.5760819315910339,-0.695018470287323,-1.557560682296753
1739919875740356000,2.997356201171875,0.4114735722541809,-0.6007484197616577,-1.3438092470169067
1739919875750339000,3.007339111328125,0.28921395540237427,-0.4783788323402405,-1.0818599462509155
1739919875760321000,3.017321044921875,0.20209930837154388,-0.3320980370044708,-0.7999254465103149
1739919875770303000,3.027302978515625,0.14348259568214417,-0.15551716089248657,-0.5098403692245483
1739919875780286000,3.037285888671875,0.10785535722970963,0.06508339196443558,-0.24714668095111847
1739919875790268000,3.047267822265625,0.10917948186397552,0.31653904914855957,-0.021326860412955284
1739919875800251000,3.0572509765625,0.12133894115686417,0.5924596190452576,0.1732868254184723
1739919875810232800,3.06723291015625,0.12282365560531616,0.8362714648246765,0.346128910779953
1739919875820215000,3.077215087890625,0.11519849300384521,1.0117769241333008,0.5010266304016113
1739919875830197800,3.08719775390625,0.0839468315243721,1.1219165325164795,0.6348267793655396
1739919875840180000,3.097179931640625,0.01968235895037651,1.1573312282562256,0.7601388692855835
1739919875850162000,3.107161865234375,-0.08135184645652771,1.1062570810317993,0.872627317905426
1739919875860145000,3.117144775390625,-0.21751926839351654,0.9747278690338135,0.9610661268234253
1739919875870126800,3.127126953125,-0.3833708167076111,0.7756078243255615,1.0177738666534424
1739919875880108800,3.13710888671875,-0.5625978112220764,0.5552049279212952,1.040949821472168
1739919875890091800,3.147091796875,-0.7479304075241089,0.35868972539901733,1.0304657220840454
1739919875900074000,3.157073974609375,-0.9355325102806091,0.21173381805419922,0.9932610988616943
1739919875910056700,3.167056640625,-1.1137595176696777,0.11925848573446274,0.9354283809661865
1739919875920039000,3.177038818359375,-1.2716351747512817,0.07011836767196655,0.8875786066055298
1739919875930020900,3.187020751953125,-1.3946393728256226,0.014257765375077724,0.8660248517990112
1739919875940003800,3.19700390625,-1.4728162288665771,-0.11010520160198212,0.8533329963684082
1739919875949986000,3.206986083984375,-1.5184886455535889,-0.34016796946525574,0.8306633830070496
1739919875959967700,3.2169677734375,-1.527307391166687,-0.6848332285881042,0.7624901533126831
1739919875969951000,3.226950927734375,-1.5484592914581299,-1.0661427974700928,0.6402977108955383
1739919875979933000,3.236932861328125,-1.6479544639587402,-1.3611611127853394,0.47115686535835266
1739919875989915000,3.246914794921875,-1.906342625617981,-1.456322193145752,0.2787322998046875
1739919875999897900,3.25689794921875,-2.3203179836273193,-1.3381327390670776,0.0592058002948761
1739919876009879800,3.2668798828125,-2.8293421268463135,-1.0518202781677246,-0.171028733253479
1739919876019862800,3.27686279296875,-3.3599159717559814,-0.6454530358314514,-0.38784918189048767
1739919876029845000,3.286844970703125,-3.8326783180236816,-0.17575877904891968,-0.5549913048744202
1739919876039827000,3.296826904296875,-4.185436248779297,0.27915945649147034,-0.6434045433998108
1739919876049810000,3.306809814453125,-4.414012432098389,0.6842736601829529,-0.6687000393867493
1739919876059792000,3.3167919921875,-4.541562557220459,1.0119434595108032,-0.6409406065940857
1739919876069773800,3.32677392578125,-4.5855255126953125,1.2464089393615723,-0.5681779384613037
1739919876079757000,3.336757080078125,-4.561704158782959,1.3837132453918457,-0.4516598582267761
1739919876089738800,3.34673876953125,-4.509316444396973,1.430904746055603,-0.32816535234451294
1739919876099722000,3.356721923828125,-4.466114521026611,1.4053924083709717,-0.1906900554895401
1739919876109704000,3.366703857421875,-4.438503265380859,1.2814502716064453,-0.0775270164012909
1739919876119686000,3.376685791015625,-4.460140705108643,1.0865881443023682,0.007821437902748585
1739919876129668900,3.3866689453125,-4.533831596374512,0.836317241191864,0.06527434289455414
1739919876139650800,3.39665087890625,-4.640429496765137,0.5402339696884155,0.10510324686765671
1739919876149633000,3.406633056640625,-4.745442867279053,0.27960607409477234,0.13543745875358582
1739919876159616000,3.416615966796875,-4.797148704528809,0.07043395191431046,0.17709621787071228
1739919876169598000,3.426597900390625,-4.799492359161377,-0.06270226091146469,0.24151195585727692
1739919876179580000,3.436579833984375,-4.745042324066162,-0.15461194515228271,0.33441153168678284
1739919876189563100,3.446563232421875,-4.632920265197754,-0.20485568046569824,0.48760294914245605
1739919876199544800,3.456544921875,-4.432249069213867,-0.1701994240283966,0.6889789700508118
1739919876209528000,3.466528076171875,-4.130221366882324,-0.0719871073961258,0.9180430173873901
1739919876219509800,3.476509765625,-3.736679792404175,0.02502492628991604,1.1780873537063599
1739919876229492000,3.486491943359375,-3.2955856323242188,0.07479780912399292,1.428425908088684
1739919876239475000,3.496474853515625,-2.828051805496216,0.06842752546072006,1.6559889316558838
1739919876249457000,3.506456787109375,-2.369108200073242,0.005860818549990654,1.828324794769287
1739919876259439000,3.516439208984375,-1.9360072612762451,-0.05543423071503639,1.9245442152023315
1739919876269421800,3.526421875,-1.496816873550415,-0.04358609393239021,1.9539130926132202
1739919876279404000,3.536404052734375,-1.0450630187988281,0.12506577372550964,1.9320805072784424
1739919876289387000,3.546386962890625,-0.6128966808319092,0.4052809178829193,1.8636993169784546
1739919876299369000,3.556368896484375,-0.22972054779529572,0.7559718489646912,1.752781867980957
1739919876309351000,3.566350830078125,0.09514116495847702,1.1548643112182617,1.6327794790267944
1739919876319334100,3.576334228515625,0.36230015754699707,1.521844744682312,1.5273494720458984
1739919876329315800,3.58631591796875,0.57845538854599,1.815185785293579,1.433970332145691
1739919876339298000,3.596298095703125,0.7717483639717102,1.9634461402893066,1.3284316062927246
1739919876349280800,3.60628076171875,0.9185397028923035,2.0334489345550537,1.2124767303466797
1739919876359263000,3.616262939453125,1.0189416408538818,2.0768275260925293,1.0728557109832764
1739919876369245000,3.626244873046875,1.0929216146469116,2.098202705383301,0.9001010656356812
1739919876379228000,3.636227783203125,1.1279566287994385,2.062547206878662,0.7052692174911499
1739919876389210000,3.646210205078125,1.1343330144882202,1.9673657417297363,0.4873869717121124
1739919876399192800,3.65619287109375,1.175241470336914,1.8241806030273438,0.2759932279586792
1739919876409175000,3.666175048828125,1.2497940063476562,1.6601232290267944,0.0749400183558464
1739919876419157200,3.6761572265625,1.368440866470337,1.4403858184814453,-0.10580366104841232
1739919876429140000,3.686139892578125,1.5365313291549683,1.191375732421875,-0.25069719552993774
1739919876439122200,3.6961220703125,1.7471569776535034,0.9484384655952454,-0.35705241560935974
1739919876449104100,3.706104248046875,1.9930468797683716,0.7277782559394836,-0.4252666234970093
1739919876459087000,3.716087158203125,2.2567386627197266,0.5404016971588135,-0.4548138380050659
1739919876469069300,3.7260693359375,2.513930320739746,0.37194186449050903,-0.4607076942920685
1739919876479052000,3.736052001953125,2.73628830909729,0.2218186855316162,-0.45698779821395874
1739919876489034200,3.7460341796875,2.916090250015259,0.09529030323028564,-0.4551211893558502
1739919876499016200,3.75601611328125,3.07163143157959,-0.0017768610268831253,-0.47525253891944885
1739919876508999200,3.765999267578125,3.218583822250366,-0.022728215903043747,-0.5373324155807495
1739919876518981000,3.775981201171875,3.356323480606079,0.03179255127906799,-0.6211077570915222
1739919876528963000,3.785963134765625,3.4620702266693115,0.11853516846895218,-0.7320776581764221
1739919876538946000,3.795946044921875,3.5088436603546143,0.17283248901367188,-0.8408851027488708
1739919876548929300,3.80592919921875,3.4987425804138184,0.156214639544487,-0.9447763562202454
1739919876558911000,3.815910888671875,3.474397659301758,0.07445506006479263,-1.0607985258102417
1739919876568894200,3.825894287109375,3.466385841369629,-0.03284822776913643,-1.206073522567749
1739919876578876200,3.835876220703125,3.4664549827575684,-0.11182213574647903,-1.3654937744140625
1739919876588858000,3.845858154296875,3.4709246158599854,-0.1481979936361313,-1.525728464126587
1739919876598841000,3.855841064453125,3.4790031909942627,-0.1680593192577362,-1.6594023704528809
1739919876608823000,3.865822998046875,3.487969398498535,-0.2056189328432083,-1.7430285215377808
1739919876618805200,3.87580517578125,3.4941885471343994,-0.2680567502975464,-1.758615255355835
1739919876628788200,3.885788330078125,3.487837553024292,-0.352294385433197,-1.726934552192688
1739919876638770200,3.895770263671875,3.461674928665161,-0.4398181140422821,-1.6922489404678345
1739919876648752000,3.905752197265625,3.4246203899383545,-0.49139663577079773,-1.6964330673217773
1739919876658735400,3.9157353515625,3.3565304279327393,-0.4729744791984558,-1.748547077178955
1739919876668717000,3.925717041015625,3.2668943405151367,-0.3863452970981598,-1.8177051544189453
1739919876678700300,3.9357001953125,3.1563878059387207,-0.303727388381958,-1.8552240133285522
1739919876688682000,3.945681884765625,3.029710054397583,-0.2446182668209076,-1.8312433958053589
1739919876698664200,3.955664306640625,2.9070708751678467,-0.20382502675056458,-1.752932071685791
1739919876708647200,3.965647216796875,2.8051974773406982,-0.18047790229320526,-1.6403703689575195
1739919876718629000,3.975629150390625,2.7190141677856445,-0.20065747201442719,-1.5190364122390747
1739919876728611300,3.985611328125,2.613542079925537,-0.26063212752342224,-1.4160407781600952
1739919876738594000,3.995593994140625,2.4338154792785645,-0.3082539737224579,-1.3339017629623413
1739919876748576300,4.005576171875,2.1708240509033203,-0.31114429235458374,-1.2812303304672241
1739919876758559200,4.015559326171875,1.8480862379074097,-0.2803286015987396,-1.2495708465576172
1739919876768541200,4.025541259765625,1.4756687879562378,-0.2043408900499344,-1.230080246925354
1739919876778523100,4.035523193359375,1.0547127723693848,-0.07558929920196533,-1.1935150623321533
1739919876788506400,4.04550634765625,0.6144219040870667,0.09454621374607086,-1.1349763870239258
1739919876798488000,4.055488037109375,0.17676305770874023,0.2807597517967224,-1.04216730594635
1739919876808470300,4.06547021484375,-0.23045797646045685,0.46478205919265747,-0.8738465309143066
1739919876818453000,4.075452880859375,-0.5487198233604431,0.6044672727584839,-0.625531017780304
1739919876828435200,4.085435302734375,-0.7402802109718323,0.6659883856773376,-0.31526127457618713
1739919876838418200,4.095418212890625,-0.8232192993164062,0.6400476098060608,0.027546405792236328
1739919876848400100,4.105400146484375,-0.8426883220672607,0.5632825493812561,0.3577442765235901
1739919876858382300,4.11538232421875,-0.8274047374725342,0.4941332936286926,0.6289675235748291
1739919876868365000,4.125364990234375,-0.7786222696304321,0.4776768088340759,0.8116323947906494
1739919876878347300,4.13534716796875,-0.676869809627533,0.49027782678604126,0.9142128825187683
1739919876888329200,4.1453291015625,-0.5552565455436707,0.5133312344551086,0.9475529789924622
1739919876898312200,4.155312255859375,-0.4722181260585785,0.5082528591156006,0.9311428666114807
1739919876908294100,4.165294189453125,-0.4749510884284973,0.4229904115200043,0.8732380270957947
1739919876918277400,4.17527734375,-0.5798740386962891,0.27658313512802124,0.7896965146064758
1739919876928259000,4.185259033203125,-0.7458832263946533,0.04482952132821083,0.6857336163520813
1739919876938241300,4.1952412109375,-0.9352315664291382,-0.232240691781044,0.5604276061058044
1739919876948223200,4.20522314453125,-1.1400803327560425,-0.5200163125991821,0.4105910062789917
1739919876958206200,4.215206298828125,-1.395183801651001,-0.7429899573326111,0.23819072544574738
1739919876968188200,4.225188232421875,-1.7291979789733887,-0.8530493974685669,0.06124364957213402
1739919876978171100,4.235171142578125,-2.140671730041504,-0.8340796828269958,-0.08129751682281494
1739919876988153300,4.2451533203125,-2.6007089614868164,-0.7117090225219727,-0.11396518349647522
1739919876998135000,4.255135009765625,-3.037782669067383,-0.560080885887146,-0.04007764533162117
1739919877008118300,4.2651181640625,-3.395542621612549,-0.45207345485687256,0.10832300782203674
1739919877018100200,4.275100341796875,-3.6493639945983887,-0.4080790877342224,0.27458974719047546
1739919877028082200,4.285082275390625,-3.7968215942382812,-0.35886627435684204,0.41395804286003113
1739919877038065200,4.295065185546875,-3.8461966514587402,-0.24870328605175018,0.5057036876678467
1739919877048047000,4.305047119140625,-3.8132169246673584,-0.05730057507753372,0.5542099475860596
1739919877058030000,4.315030029296875,-3.7288036346435547,0.20073789358139038,0.5662344098091125
1739919877068012300,4.32501220703125,-3.616407871246338,0.47780224680900574,0.5589314699172974
1739919877077994000,4.334993896484375,-3.525271415710449,0.7047368884086609,0.5465520024299622
1739919877087977200,4.344977294921875,-3.4707186222076416,0.8338732719421387,0.508537769317627
1739919877097959200,4.354959228515625,-3.440840244293213,0.8875612616539001,0.4406178593635559
1739919877107941000,4.364941162109375,-3.4156062602996826,0.8936042785644531,0.33813464641571045
1739919877117924000,4.374924072265625,-3.393362283706665,0.8447392582893372,0.20862405002117157
1739919877127906000,4.384906005859375,-3.403369426727295,0.7410445213317871,0.06922701001167297
1739919877137889000,4.394888916015625,-3.449835777282715,0.5682498812675476,-0.07114501297473907
1739919877147871200,4.404871337890625,-3.5113158226013184,0.3763211667537689,-0.21033886075019836
1739919877157853200,4.414853271484375,-3.558945894241333,0.24963752925395966,-0.36632633209228516
1739919877167836200,4.424836181640625,-3.583427906036377,0.1861051619052887,-0.55567467212677
1739919877177818000,4.434818115234375,-3.6052803993225098,0.18060386180877686,-0.7528290152549744
1739919877187800000,4.444800048828125,-3.62042498588562,0.2284313142299652,-0.898769199848175
1739919877197783300,4.454783203125,-3.609065532684326,0.2677001655101776,-0.9789828062057495
1739919877207765000,4.464764892578125,-3.5638396739959717,0.2344101071357727,-1.0127851963043213
1739919877217748200,4.474748291015625,-3.472778558731079,0.13982847332954407,-1.0156712532043457
1739919877227730200,4.484730224609375,-3.352532148361206,0.0012476909905672073,-1.0117762088775635
1739919877237712100,4.494712158203125,-3.2169582843780518,-0.09699872136116028,-1.0106089115142822
1739919877247695000,4.504695068359375,-3.0541913509368896,-0.10687717795372009,-0.994867742061615
1739919877257677000,4.514677001953125,-2.8526511192321777,-0.09765812009572983,-0.9364334940910339
1739919877267659300,4.5246591796875,-2.6235992908477783,-0.1335705816745758,-0.8156610131263733
1739919877277642200,4.534642333984375,-2.36726713180542,-0.2500433921813965,-0.6310373544692993
1739919877287624200,4.544624267578125,-2.072484016418457,-0.42874762415885925,-0.4029266834259033
1739919877297607200,4.554607177734375,-1.7514108419418335,-0.6438295841217041,-0.14384585618972778
1739919877307589000,4.564589111328125,-1.4069037437438965,-0.8249152302742004,0.1472504436969757
1739919877317571000,4.574571044921875,-1.0137197971343994,-0.9241083860397339,0.47425997257232666
1739919877327554300,4.58455419921875,-0.5242363214492798,-0.9330179691314697,0.8146761655807495
1739919877337536000,4.594535888671875,0.08904758095741272,-0.8419056534767151,1.142745852470398
1739919877347518200,4.604518310546875,0.7875350713729858,-0.6217727661132812,1.4420082569122314
1739919877357501200,4.614501220703125,1.5050303936004639,-0.2890579104423523,1.6947025060653687
1739919877367483100,4.624483154296875,2.1849396228790283,0.1276133507490158,1.8699313402175903
1739919877377466000,4.634466064453125,2.7634668350219727,0.6065160036087036,1.9742870330810547
1739919877387448000,4.644447998046875,3.2310776710510254,1.0806580781936646,2.005518674850464
1739919877397430300,4.65443017578125,3.5794920921325684,1.5026262998580933,1.952433466911316
1739919877407413000,4.6644130859375,3.8014674186706543,1.8424971103668213,1.823986291885376
1739919877417395200,4.674395263671875,3.9038352966308594,2.0765135288238525,1.63087797164917
1739919877427378200,4.684378173828125,3.9143741130828857,2.1753458976745605,1.3668285608291626
1739919877437360000,4.694360107421875,3.843989849090576,2.118290901184082,1.0519907474517822
1739919877447342000,4.704342041015625,3.738450527191162,1.896626353263855,0.7022124528884888
1739919877457325000,4.714324951171875,3.648465394973755,1.574692726135254,0.3488219082355499
1739919877467307000,4.72430712890625,3.6010091304779053,1.1725515127182007,0.02335379272699356
1739919877477289200,4.734289306640625,3.615083694458008,0.7386519312858582,-0.26513153314590454
1739919877487272000,4.74427197265625,3.670792818069458,0.33854183554649353,-0.5007514953613281
1739919877497254100,4.754254150390625,3.751217842102051,0.011930961161851883,-0.6849865913391113
1739919877507237000,4.764237060546875,3.8576695919036865,-0.24325233697891235,-0.8136069178581238
1739919877517219000,4.774218994140625,3.9737870693206787,-0.4563904404640198,-0.8858355283737183
1739919877527201300,4.784201171875,4.0825419425964355,-0.6317082047462463,-0.8950620889663696
1739919877537184000,4.79418408203125,4.186228275299072,-0.7625375986099243,-0.8572888374328613
1739919877547166200,4.804166259765625,4.294833660125732,-0.8383668065071106,-0.7960550785064697
1739919877557148000,4.81414794921875,4.409136772155762,-0.8583384156227112,-0.7306776642799377
1739919877567131100,4.824131103515625,4.506938934326172,-0.8433141708374023,-0.692484974861145
1739919877577113000,4.834113037109375,4.58245849609375,-0.7933117151260376,-0.6838235855102539
1739919877587096000,4.844095947265625,4.630090713500977,-0.6977564692497253,-0.6916738152503967
1739919877597078000,4.854078125,4.635615348815918,-0.5579338669776917,-0.7187003493309021
1739919877607060200,4.864060302734375,4.5988383293151855,-0.42242980003356934,-0.7822252511978149
1739919877617043000,4.87404296875,4.546380043029785,-0.34655582904815674,-0.8720763325691223
1739919877627025200,4.884025146484375,4.486955642700195,-0.3681729733943939,-0.9797630906105042
1739919877637007000,4.894007080078125,4.424522399902344,-0.5148569345474243,-1.1094141006469727
1739919877646990000,4.903989990234375,4.372882843017578,-0.8019846081733704,-1.2772352695465088
1739919877656972300,4.91397216796875,4.3271636962890625,-1.2049474716186523,-1.4868814945220947
1739919877666955000,4.923955078125,4.298159599304199,-1.6505154371261597,-1.7482627630233765
1739919877676937200,4.933937255859375,4.3033671379089355,-2.060091018676758,-2.034174919128418
1739919877686919000,4.9439189453125,4.303459644317627,-2.3920960426330566,-2.2795960903167725
1739919877696902100,4.953902099609375,4.239299297332764,-2.6205215454101562,-2.4275851249694824
1739919877706884000,4.963884033203125,4.115594863891602,-2.782853841781616,-2.455470085144043
1739919877716866000,4.973865966796875,3.939455986022949,-2.8784902095794678,-2.363272190093994
1739919877726849000,4.98384912109375,3.7095460891723633,-2.912339925765991,-2.1680803298950195
1739919877736831200,4.993831298828125,3.456200361251831,-2.9032652378082275,-1.9200999736785889
1739919877746814000,5.00381396484375,3.1483349800109863,-2.7928340435028076,-1.6515817642211914
1739919877756796200,5.013796142578125,2.7923972606658936,-2.6206870079040527,-1.3513838052749634
1739919877766778000,5.023778076171875,2.4011027812957764,-2.398357629776001,-1.0587124824523926
1739919877776761000,5.033760986328125,1.9694350957870483,-2.147629737854004,-0.8140920996665955
1739919877786743000,5.043742919921875,1.4910775423049927,-1.8770030736923218,-0.6358124017715454
1739919877796726000,5.05372607421875,0.9649980068206787,-1.5360093116760254,-0.5406866669654846
1739919877806708200,5.063708251953125,0.3901272714138031,-1.0904712677001953,-0.5115245580673218
1739919877816690000,5.07368994140625,-0.18552644550800323,-0.5732185244560242,-0.5282401442527771
1739919877826673200,5.083673095703125,-0.7577758431434631,0.03963928669691086,-0.5922281742095947
1739919877836655000,5.093655029296875,-1.3072201013565063,0.7172574400901794,-0.7014337778091431
1739919877846637000,5.103636962890625,-1.7752865552902222,1.4272910356521606,-0.8217875957489014
1739919877856620000,5.1136201171875,-2.1220223903656006,2.11293363571167,-0.9053652882575989
1739919877866602200,5.123602294921875,-2.3444838523864746,2.7250452041625977,-0.9255533814430237
1739919877876585000,5.1335849609375,-2.4922266006469727,3.194079875946045,-0.8695948123931885
1739919877886567200,5.143567138671875,-2.6028192043304443,3.524852991104126,-0.7446169257164001
1739919877896548900,5.153548828125,-2.723365068435669,3.756181240081787,-0.560531735420227
1739919877906532000,5.163531982421875,-2.867581367492676,3.8550140857696533,-0.3286553919315338
1739919877916514000,5.17351416015625,-3.0415666103363037,3.8339309692382812,-0.07631847262382507
1739919877926496000,5.18349609375,-3.242003917694092,3.7173895835876465,0.17299601435661316
1739919877936479000,5.19347900390625,-3.4742348194122314,3.5220606327056885,0.4055325984954834
1739919877946461200,5.203461181640625,-3.7346858978271484,3.28291654586792,0.6189836263656616
1739919877956444000,5.21344384765625,-4.012463569641113,3.0325162410736084,0.825930118560791
1739919877966426000,5.223426025390625,-4.260435581207275,2.793938159942627,1.0353875160217285
1739919877976408000,5.233407958984375,-4.451282501220703,2.5623769760131836,1.2388859987258911
1739919877986391000,5.24339111328125,-4.589308261871338,2.313351631164551,1.396684169769287
1739919877996373200,5.253373291015625,-4.669035911560059,2.047797918319702,1.4770413637161255
1739919878006356000,5.26335595703125,-4.697753429412842,1.7834864854812622,1.481782078742981
1739919878016338200,5.273338134765625,-4.680055618286133,1.5446691513061523,1.43068265914917
1739919878026320000,5.28331982421875,-4.619029998779297,1.3609416484832764,1.3517742156982422
1739919878036303000,5.29330322265625,-4.524838447570801,1.2365533113479614,1.2830997705459595
1739919878046285000,5.30328515625,-4.397301197052002,1.1229780912399292,1.2464584112167358
1739919878056267000,5.31326708984375,-4.249425888061523,0.9985610246658325,1.2304432392120361
1739919878066250000,5.32325,-4.130023956298828,0.8760976791381836,1.214072823524475
1739919878076232200,5.333232177734375,-4.055258274078369,0.7276637554168701,1.180305004119873
1739919878086215000,5.34321484375,-4.010568618774414,0.5555910468101501,1.1031380891799927
1739919878096197000,5.353197021484375,-4.003055572509766,0.3628751337528229,0.9619220495223999
1739919878106179000,5.363178955078125,-4.026155948638916,0.1773952841758728,0.7419923543930054
1739919878116162000,5.373162109375,-4.086472511291504,0.0008170577930286527,0.42903125286102295
1739919878126144300,5.383144287109375,-4.173471450805664,-0.17006200551986694,0.008949552662670612
1739919878136127000,5.393126953125,-4.2858805656433105,-0.37088698148727417,-0.5173653960227966
1739919878146109200,5.403109130859375,-4.405938148498535,-0.6434961557388306,-1.1195018291473389
1739919878156091000,5.4130908203125,-4.528196334838867,-0.9748975038528442,-1.7548907995224
1739919878166074000,5.42307421875,-4.603628635406494,-1.3210978507995605,-2.397028923034668
1739919878176056000,5.43305615234375,-4.641091823577881,-1.6145437955856323,-2.9961695671081543
1739919878186038000,5.4430380859375,-4.587667942047119,-1.8390650749206543,-3.540712833404541
1739919878196021000,5.45302099609375,-4.4430155754089355,-1.965199589729309,-4.003467559814453
1739919878206003200,5.463003173828125,-4.223328113555908,-2.01252818107605,-4.338063716888428
1739919878215986000,5.47298583984375,-3.9553167819976807,-2.0370538234710693,-4.495916366577148
1739919878225968000,5.482968017578125,-3.6829612255096436,-2.0553674697875977,-4.4700093269348145
1739919878235950000,5.4929501953125,-3.448258638381958,-2.080091953277588,-4.310092926025391
1739919878245933000,5.50293310546875,-3.265787124633789,-2.101247549057007,-4.072272300720215
1739919878255915300,5.512915283203125,-3.1481845378875732,-2.0500566959381104,-3.8000621795654297
1739919878265897000,5.52289697265625,-3.0425596237182617,-1.8734790086746216,-3.515683889389038
1739919878275880200,5.532880126953125,-2.906890392303467,-1.5472707748413086,-3.222719669342041
1739919878285862000,5.54286181640625,-2.746541976928711,-1.137789011001587,-2.8690171241760254
1739919878295845000,5.55284521484375,-2.579927444458008,-0.7218615412712097,-2.420614004135132
1739919878305827000,5.5628271484375,-2.4041926860809326,-0.3616064190864563,-1.8603272438049316
1739919878315809000,5.57280908203125,-2.1968026161193848,-0.09540827572345734,-1.2000353336334229
1739919878325792000,5.5827919921875,-1.949379563331604,0.0833076760172844,-0.4706314206123352
1739919878335774200,5.592774169921875,-1.6319355964660645,0.1663367748260498,0.2903841733932495
1739919878345757000,5.6027568359375,-1.2158461809158325,0.20842431485652924,1.0200146436691284
1739919878355739100,5.6127392578125,-0.6678819060325623,0.2022463083267212,1.6398214101791382
1739919878365721000,5.62272119140625,0.03731408342719078,0.15988953411579132,2.110335350036621
1739919878375704000,5.6327041015625,0.8619704246520996,0.11176621168851852,2.4201133251190186
1739919878385686300,5.642686279296875,1.7320581674575806,0.1250532567501068,2.6362833976745605
1739919878395669000,5.6526689453125,2.5441601276397705,0.24493172764778137,2.8064820766448975
1739919878405651500,5.6626513671875,3.2476792335510254,0.44796687364578247,2.965068817138672
1739919878415633400,5.67263330078125,3.8635857105255127,0.7251502871513367,3.113333225250244
1739919878425616400,5.682616455078125,4.41169548034668,1.0374418497085571,3.2176785469055176
1739919878435598300,5.692598388671875,4.8550262451171875,1.3708895444869995,3.2675931453704834
1739919878445580500,5.70258056640625,5.157092571258545,1.6710563898086548,3.265690565109253
1739919878455563500,5.7125634765625,5.304407596588135,1.8815408945083618,3.216132640838623
1739919878465545500,5.72254541015625,5.3403143882751465,2.007972478866577,3.124760866165161
1739919878475528400,5.732528564453125,5.294898509979248,2.1007280349731445,2.9981298446655273
1739919878485510400,5.742510498046875,5.179665565490723,2.1593427658081055,2.874546766281128
1739919878495492400,5.752492431640625,5.051699638366699,2.1381466388702393,2.7528507709503174
1739919878505475600,5.7624755859375,4.932056427001953,2.02653169631958,2.6310253143310547
1739919878515457300,5.772457275390625,4.842874050140381,1.8214058876037598,2.5068347454071045
1739919878525440500,5.7824404296875,4.817455291748047,1.5925111770629883,2.3711037635803223
1739919878535422500,5.79242236328125,4.8474273681640625,1.4126814603805542,2.210028648376465
1739919878545404400,5.802404296875,4.910725116729736,1.3131717443466187,2.0379698276519775
1739919878555387400,5.812387451171875,4.995332717895508,1.243503451347351,1.88375985622406
1739919878565369300,5.822369384765625,5.07303524017334,1.1580106019973755,1.7436208724975586
1739919878575351600,5.8323515625,5.129660606384277,1.0594512224197388,1.5951552391052246
1739919878585334500,5.84233447265625,5.1504130363464355,0.9528201818466187,1.4104514122009277
1739919878595316500,5.85231640625,5.145683288574219,0.8431621193885803,1.1721607446670532
1739919878605299500,5.862299560546875,5.126716136932373,0.7729305624961853,0.8679713010787964
1739919878615281400,5.872281494140625,5.103801250457764,0.7761164903640747,0.5131024718284607
1739919878625263400,5.882263427734375,5.073666095733643,0.8565687537193298,0.14643657207489014
1739919878635246600,5.89224658203125,5.026939392089844,0.9747734069824219,-0.19595566391944885
1739919878645228300,5.902228271484375,4.956070423126221,1.0793660879135132,-0.4608698785305023
1739919878655211500,5.91221142578125,4.84489631652832,1.1199545860290527,-0.6303483843803406
1739919878665193500,5.922193359375,4.671818256378174,1.0971072912216187,-0.7430219650268555
1739919878675175400,5.932175537109375,4.452249050140381,1.0125455856323242,-0.8627307415008545
1739919878685158400,5.942158447265625,4.223915100097656,0.8604587912559509,-1.024674415588379
1739919878695140400,5.952140380859375,4.022040367126465,0.6750708222389221,-1.2101079225540161
1739919878705123300,5.962123291015625,3.8832762241363525,0.4768528342247009,-1.3915525674819946
1739919878715105500,5.97210546875,3.8145711421966553,0.24231623113155365,-1.554104208946228
1739919878725087500,5.98208740234375,3.7896616458892822,-0.006705306936055422,-1.701697826385498
1739919878735070500,5.992070556640625,3.793717622756958,-0.2714157998561859,-1.8598004579544067
1739919878745052700,6.002052734375,3.726896047592163,-0.5149962306022644,-2.026251792907715
1739919878755034400,6.012034423828125,3.5973527431488037,-0.6682222485542297,-2.195478916168213
1739919878765017600,6.022017578125,3.429363250732422,-0.734400749206543,-2.3464748859405518
1739919878774999300,6.031999267578125,3.278367519378662,-0.7459948062896729,-2.461366891860962
1739919878784982500,6.041982421875,3.1229286193847656,-0.722217857837677,-2.525148391723633
1739919878794964500,6.051964599609375,2.926750421524048,-0.6805077195167542,-2.5269687175750732
1739919878804946400,6.061946533203125,2.6256067752838135,-0.6428061127662659,-2.4551331996917725
1739919878814929400,6.071929443359375,2.1942970752716064,-0.6199005246162415,-2.317584991455078
1739919878824911400,6.081911376953125,1.6308479309082031,-0.6218952536582947,-2.105572462081909
1739919878834894300,6.091894287109375,0.9605305790901184,-0.6129169464111328,-1.8508708477020264
1739919878844876500,6.10187646484375,0.20586101710796356,-0.574120283126831,-1.57975172996521
1739919878854858500,6.1118583984375,-0.6145451664924622,-0.48535871505737305,-1.3145235776901245
1739919878864841500,6.121841552734375,-1.4727368354797363,-0.31813642382621765,-1.0663014650344849
1739919878874823700,6.13182373046875,-2.2937328815460205,-0.10102514922618866,-0.8401423692703247
1739919878884806400,6.141806396484375,-3.0106606483459473,0.21579407155513763,-0.6002160310745239
1739919878894788600,6.15178857421875,-3.599578380584717,0.5593530535697937,-0.30141496658325195
1739919878904770300,6.161770263671875,-4.056158065795898,0.813676655292511,0.08845876157283783
1739919878914753500,6.17175341796875,-4.409945487976074,0.9631969332695007,0.5577865839004517
1739919878924735500,6.181735595703125,-4.64587926864624,0.9472083449363708,1.0925357341766357
1739919878934717400,6.191717529296875,-4.741097450256348,0.8270915150642395,1.614111304283142
1739919878944700400,6.201700439453125,-4.726035118103027,0.6894670724868774,2.045945882797241
1739919878954682400,6.211682373046875,-4.662031650543213,0.5957707166671753,2.33267879486084
1739919878964665300,6.221665283203125,-4.588892936706543,0.5906771421432495,2.47145414352417
1739919878974647600,6.2316474609375,-4.557300090789795,0.6928940415382385,2.483877420425415
1739919878984629500,6.24162939453125,-4.581611633300781,0.8567871451377869,2.392249584197998
1739919878994612500,6.251612548828125,-4.658834934234619,0.9860425591468811,2.2030298709869385
1739919879004594700,6.2615947265625,-4.780365467071533,1.0653736591339111,1.924286961555481
1739919879014577400,6.271577392578125,-4.935369968414307,1.1022621393203735,1.551582932472229
1739919879024559600,6.2815595703125,-5.063772678375244,1.0384544134140015,1.1879916191101074
1739919879034541300,6.291541259765625,-5.162163257598877,0.7710647583007812,0.9672566652297974
1739919879044524500,6.301524658203125,-5.258868217468262,0.30444592237472534,0.923949122428894
1739919879054506500,6.311506591796875,-5.335733890533447,-0.25190335512161255,1.0052602291107178
1739919879064489500,6.321489501953125,-5.383793830871582,-0.7763447165489197,1.1588542461395264
1739919879074471400,6.331471435546875,-5.369201183319092,-1.1883916854858398,1.3282997608184814
1739919879084453400,6.341453369140625,-5.2848100662231445,-1.4151403903961182,1.486212968826294
1739919879094436400,6.351436279296875,-5.133352756500244,-1.4627678394317627,1.5981740951538086
1739919879104418600,6.36141845703125,-4.932798385620117,-1.3771693706512451,1.6604583263397217
1739919879114401500,6.371401611328125,-4.727481842041016,-1.2114852666854858,1.6716846227645874
1739919879124383500,6.381383544921875,-4.540053844451904,-1.009583830833435,1.6258260011672974
1739919879134365400,6.391365478515625,-4.372032642364502,-0.7871806025505066,1.5343128442764282
1739919879144348400,6.401348388671875,-4.219376564025879,-0.5531423091888428,1.4174551963806152
1739919879154330400,6.411330322265625,-4.086831092834473,-0.31221649050712585,1.273097038269043
1739919879164312300,6.421312255859375,-3.9524619579315186,-0.08406773954629898,1.098430871963501
1739919879174295600,6.431295654296875,-3.8130111694335938,0.10246778279542923,0.8989630937576294
1739919879184277500,6.441277587890625,-3.6772613525390625,0.22340859472751617,0.6895222067832947
1739919879194260500,6.451260498046875,-3.5527548789978027,0.26515018939971924,0.4853331446647644
1739919879204242400,6.461242431640625,-3.461456537246704,0.22075209021568298,0.27653437852859497
1739919879214224600,6.471224609375,-3.393207311630249,0.10451522469520569,0.04694966599345207
1739919879224207400,6.481207275390625,-3.3187026977539062,-0.06527887284755707,-0.22023916244506836
1739919879234189600,6.491189453125,-3.2320971488952637,-0.2503669559955597,-0.5214264392852783
1739919879244172500,6.501172607421875,-3.146636724472046,-0.4306853413581848,-0.8415061831474304
1739919879254154500,6.511154541015625,-3.062241315841675,-0.6581839919090271,-1.1287600994110107
1739919879264136400,6.521136474609375,-2.9720733165740967,-0.9620509743690491,-1.3390107154846191
1739919879274119400,6.531119384765625,-2.87300705909729,-1.3559406995773315,-1.4586372375488281
1739919879284101400,6.541101318359375,-2.7659695148468018,-1.7974766492843628,-1.4928886890411377
1739919879294084600,6.551084716796875,-2.6303396224975586,-2.120915651321411,-1.4372190237045288
1739919879304066300,6.56106640625,-2.4088292121887207,-2.2486417293548584,-1.289699912071228
1739919879314048500,6.571048583984375,-2.1323060989379883,-2.149914503097534,-1.0563048124313354
1739919879324031200,6.58103125,-1.8054708242416382,-1.8981517553329468,-0.7186353802680969
1739919879334013400,6.591013427734375,-1.4247373342514038,-1.5689244270324707,-0.27746355533599854
1739919879343996400,6.600996337890625,-0.9793907999992371,-1.2299532890319824,0.24125176668167114
1739919879353978400,6.610978271484375,-0.48512569069862366,-0.9598495960235596,0.7983767986297607
1739919879363960600,6.620960693359375,0.04619545862078667,-0.7892216444015503,1.3175421953201294
1739919879373943600,6.630943603515625,0.6154692769050598,-0.6660174131393433,1.7227575778961182
1739919879383925500,6.640925537109375,1.1935499906539917,-0.47102317214012146,1.9601643085479736
1739919879393907500,6.650907470703125,1.76027250289917,-0.19387413561344147,2.0131375789642334
1739919879403890400,6.660890380859375,2.2915048599243164,0.14441336691379547,1.90596342086792
1739919879413872000,6.6708720703125,2.7603707313537598,0.5399430990219116,1.6712965965270996
1739919879423855000,6.680855224609375,3.1387722492218018,0.9526987075805664,1.3724126815795898
1739919879433837000,6.690837158203125,3.422569990158081,1.3398717641830444,1.0521414279937744
1739919879443819000,6.700819091796875,3.6159000396728516,1.6891919374465942,0.7425369620323181
1739919879453802000,6.710802001953125,3.7158334255218506,1.976134181022644,0.45973217487335205
1739919879463784000,6.720783935546875,3.661715269088745,2.2312045097351074,0.21115778386592865
1739919879473767200,6.73076708984375,3.492058038711548,2.44014310836792,-0.002225603675469756
1739919879483749000,6.7407490234375,3.2591476440429688,2.570371389389038,-0.18568304181098938
1739919879493731000,6.75073095703125,3.039611577987671,2.6276090145111084,-0.326778382062912
1739919879503714000,6.760714111328125,2.878729820251465,2.6115686893463135,-0.4135417640209198
1739919879513696300,6.7706962890625,2.7972166538238525,2.540849447250366,-0.45215895771980286
1739919879523679000,6.780678955078125,2.8081040382385254,2.4225573539733887,-0.47947365045547485
1739919879533661200,6.7906611328125,2.8844151496887207,2.2611019611358643,-0.5150303244590759
1739919879543643000,6.800642822265625,2.9883437156677246,2.0554354190826416,-0.5656612515449524
1739919879553626000,6.810626220703125,3.0943374633789062,1.8058663606643677,-0.6263256669044495
1739919879563608000,6.820608154296875,3.2133147716522217,1.538569688796997,-0.6830933690071106
1739919879573591000,6.830591064453125,3.349400520324707,1.302250623703003,-0.7335134148597717
1739919879583573000,6.840572998046875,3.502751350402832,1.119475245475769,-0.7863867282867432
1739919879593555000,6.850554931640625,3.68141770362854,0.9769918322563171,-0.8554890751838684
1739919879603538000,6.860537841796875,3.8798811435699463,0.8575003147125244,-0.9372729063034058
1739919879613520100,6.87052001953125,4.089478015899658,0.7719507813453674,-1.0099793672561646
1739919879623502800,6.8805029296875,4.288326263427734,0.7438403367996216,-1.0757386684417725
1739919879633485000,6.890485107421875,4.468824863433838,0.7633336186408997,-1.1630772352218628
1739919879643467300,6.90046728515625,4.627912521362305,0.8152367472648621,-1.279313325881958
1739919879653450000,6.910449951171875,4.7586469650268555,0.8682344555854797,-1.3918614387512207
1739919879663432200,6.92043212890625,4.852900505065918,0.8976040482521057,-1.4738303422927856
1739919879673415200,6.930415283203125,4.91688346862793,0.8953395485877991,-1.5081769227981567
1739919879683397000,6.940397216796875,4.931431770324707,0.8391503095626831,-1.511523723602295
1739919879693379000,6.950379150390625,4.915313243865967,0.7457085251808167,-1.4885408878326416
1739919879703362000,6.960362060546875,4.885127067565918,0.6640909314155579,-1.4742509126663208
1739919879713344000,6.970343994140625,4.8384246826171875,0.6080867648124695,-1.4714223146438599
1739919879723326000,6.980325927734375,4.756340503692627,0.5727987885475159,-1.4606552124023438
1739919879733309000,6.990308837890625,4.638639450073242,0.5185384750366211,-1.4436410665512085
1739919879743291100,7.000291015625,4.4968743324279785,0.41628724336624146,-1.4145270586013794
1739919879753274000,7.010274169921875,4.34067440032959,0.27201446890830994,-1.3784793615341187
1739919879763256000,7.020256103515625,4.1775126457214355,0.109610915184021,-1.332960844039917
1739919879773238300,7.03023828125,4.015960693359375,-0.056889913976192474,-1.306822419166565
1739919879783221000,7.040220947265625,3.839460611343384,-0.20529723167419434,-1.3015259504318237
1739919879793203200,7.050203125,3.642490863800049,-0.32055777311325073,-1.3014122247695923
1739919879803186200,7.060186279296875,3.434631109237671,-0.3975910246372223,-1.2807115316390991
1739919879813168000,7.070168212890625,3.218114137649536,-0.45928874611854553,-1.2123342752456665
1739919879823150000,7.080150146484375,2.972799301147461,-0.5411114692687988,-1.074737310409546
1739919879833133000,7.090133056640625,2.6753838062286377,-0.6728513836860657,-0.8814711570739746
1739919879843115000,7.100114990234375,2.3091254234313965,-0.8444974422454834,-0.660273551940918
1739919879853098200,7.11009814453125,1.8610728979110718,-1.0012327432632446,-0.4396394193172455
1739919879863080000,7.120079833984375,1.3423540592193604,-1.1317590475082397,-0.26075541973114014
1739919879873062100,7.130062255859375,0.7674106359481812,-1.2184818983078003,-0.1502062827348709
1739919879883045000,7.140045166015625,0.13714347779750824,-1.2306216955184937,-0.1219373568892479
1739919879893027000,7.150027099609375,-0.5359286665916443,-1.1535996198654175,-0.17449884116649628
1739919879903010000,7.160010009765625,-1.2311298847198486,-1.019513726234436,-0.2931770086288452
1739919879912992000,7.169991943359375,-1.8902275562286377,-0.8641347885131836,-0.44772452116012573
1739919879922974200,7.17997412109375,-2.4494521617889404,-0.7010824680328369,-0.6022746562957764
1739919879932957200,7.189957275390625,-2.8917555809020996,-0.5669782161712646,-0.7246333360671997
1739919879942939100,7.199939208984375,-3.2098400592803955,-0.4733981788158417,-0.8137893080711365
1739919879952922000,7.209922119140625,-3.418257236480713,-0.3839399516582489,-0.8838056921958923
1739919879962904000,7.219904052734375,-3.534209728240967,-0.27956879138946533,-0.9434133768081665
1739919879972886000,7.229885986328125,-3.5795488357543945,-0.14304956793785095,-1.0098674297332764
1739919879982869200,7.239869140625,-3.5801987648010254,0.03789385408163071,-1.081477165222168
1739919879992851000,7.249850830078125,-3.565218448638916,0.23391449451446533,-1.1555770635604858
1739919880002834200,7.259834228515625,-3.5645618438720703,0.42278745770454407,-1.2137162685394287
1739919880012816100,7.269816162109375,-3.619760274887085,0.5582166910171509,-1.239640712738037
1739919880022798000,7.279798095703125,-3.7566750049591064,0.5990381240844727,-1.197716474533081
1739919880032781000,7.289781005859375,-3.978797435760498,0.5194554328918457,-1.0922236442565918
1739919880042763000,7.299762939453125,-4.265654563903809,0.361105740070343,-0.9369402527809143
1739919880052746000,7.30974609375,-4.580158710479736,0.15263748168945312,-0.7420293688774109
1739919880062728200,7.319728271484375,-4.893661975860596,-0.04837152734398842,-0.5375537276268005
1739919880072710100,7.329710205078125,-5.171840190887451,-0.1908290684223175,-0.3365529775619507
1739919880082693000,7.339693115234375,-5.393935680389404,-0.2311389446258545,-0.1463811844587326
1739919880092675000,7.349675048828125,-5.542953968048096,-0.17127294838428497,0.04042305797338486
1739919880102658000,7.359657958984375,-5.623956680297852,-0.033900707960128784,0.23128169775009155
1739919880112640300,7.36964013671875,-5.652917385101318,0.1461111307144165,0.44661423563957214
1739919880122622000,7.3796220703125,-5.61755895614624,0.34507110714912415,0.7031709551811218
1739919880132605200,7.389605224609375,-5.547464847564697,0.49956774711608887,1.0355315208435059
1739919880142587100,7.399587158203125,-5.486514568328857,0.5770721435546875,1.4193484783172607
1739919880152570000,7.409570068359375,-5.442957401275635,0.5327850580215454,1.8229798078536987
1739919880162552000,7.419552001953125,-5.411675453186035,0.3722902238368988,2.1702826023101807
1739919880172534000,7.429533935546875,-5.371063232421875,0.14318378269672394,2.374987840652466
1739919880182517000,7.43951708984375,-5.299745082855225,-0.05192738026380539,2.394110679626465
1739919880192499200,7.449499267578125,-5.220665454864502,-0.08717644959688187,2.2647459506988525
1739919880202482000,7.45948193359375,-5.13798189163208,0.050812847912311554,2.012173891067505
1739919880212464000,7.469464111328125,-5.0214009284973145,0.2944537401199341,1.676581621170044
1739919880222446000,7.479446044921875,-4.867686748504639,0.5739713907241821,1.2840065956115723
1739919880232429000,7.489428955078125,-4.657924175262451,0.7999206185340881,0.9086010456085205
1739919880242411300,7.499411376953125,-4.418271064758301,0.93254154920578,0.5902187824249268
1739919880252394200,7.509394287109375,-4.155901908874512,0.9177599549293518,0.3650762438774109
1739919880262376200,7.519376220703125,-3.8714759349823,0.7280917167663574,0.2756752669811249
1739919880272358100,7.529358154296875,-3.5689404010772705,0.41959089040756226,0.29397621750831604
1739919880282341000,7.539341064453125,-3.237654685974121,0.05191992223262787,0.3640855550765991
1739919880292323000,7.549322998046875,-2.849169969558716,-0.34988343715667725,0.42028170824050903
1739919880302306000,7.55930615234375,-2.4052255153656006,-0.7156733870506287,0.4133457541465759
1739919880312288000,7.5692880859375,-1.912250280380249,-1.003545880317688,0.33832797408103943
1739919880322270200,7.579270263671875,-1.4034925699234009,-1.1807126998901367,0.20656035840511322
1739919880332253000,7.5892529296875,-0.9112918972969055,-1.2549723386764526,0.024755680933594704
1739919880342235100,7.599235107421875,-0.47542884945869446,-1.2764086723327637,-0.19411221146583557
1739919880352217000,7.609217041015625,-0.10935018956661224,-1.3050485849380493,-0.42364394664764404
1739919880362200000,7.619199951171875,0.16336016356945038,-1.354264259338379,-0.6026350259780884
1739919880372182000,7.62918212890625,0.316915899515152,-1.4163683652877808,-0.6957370042800903
1739919880382165200,7.639165283203125,0.3663444221019745,-1.497869610786438,-0.6821279525756836
1739919880392147000,7.64914697265625,0.34797927737236023,-1.5752218961715698,-0.5728827118873596
1739919880402129200,7.659129150390625,0.3319723606109619,-1.6263107061386108,-0.39102527499198914
1739919880412112100,7.669112060546875,0.34751376509666443,-1.598647952079773,-0.1542273908853531
1739919880422094300,7.67909423828125,0.45235973596572876,-1.5031501054763794,0.11630050837993622
1739919880432077300,7.689077392578125,0.6614442467689514,-1.3428406715393066,0.3871360123157501
1739919880442059300,7.699059326171875,0.9579422473907471,-1.1026520729064941,0.6389338970184326
1739919880452041500,7.70904150390625,1.3165837526321411,-0.7905519008636475,0.8571516871452332
1739919880462024200,7.719024169921875,1.6982005834579468,-0.37666818499565125,1.0326162576675415
1739919880472006400,7.72900634765625,2.0616695880889893,0.15198154747486115,1.1532232761383057
1739919880481989400,7.7389892578125,2.391481876373291,0.7650009989738464,1.2151285409927368
1739919880491971300,7.748971435546875,2.6568148136138916,1.427112102508545,1.2123430967330933
1739919880501953300,7.758953369140625,2.8381717205047607,2.0602962970733643,1.1402944326400757
1739919880511936300,7.768936279296875,2.921753168106079,2.642216682434082,1.0079423189163208
1739919880521918200,7.778918212890625,2.928879499435425,3.17488431930542,0.8448566794395447
1739919880531901400,7.7889013671875,2.9045250415802,3.680865526199341,0.6904588341712952
1739919880541883100,7.798883056640625,2.9056053161621094,4.079043865203857,0.5646221041679382
1739919880551866400,7.808866455078125,2.991764783859253,4.333945274353027,0.47427037358283997
1739919880561848300,7.818848388671875,3.17307448387146,4.321983337402344,0.39240267872810364
1739919880571830300,7.828830322265625,3.4081342220306396,4.035655975341797,0.3046019673347473
1739919880581813200,7.838813232421875,3.6568796634674072,3.565068006515503,0.19213882088661194
1739919880591795200,7.848795166015625,3.8802242279052734,3.0207362174987793,0.03333132341504097
1739919880601778200,7.858778076171875,4.064643859863281,2.479266881942749,-0.17649488151073456
1739919880611760400,7.868760498046875,4.215272426605225,1.997194528579712,-0.45112937688827515
1739919880621742300,7.878742431640625,4.366953372955322,1.6244646310806274,-0.8015329241752625
1739919880631725300,7.888725341796875,4.533173084259033,1.2963000535964966,-1.184425711631775
1739919880641707300,7.898707275390625,4.676513195037842,0.9891188144683838,-1.5286139249801636
1739919880651690200,7.908690185546875,4.744307518005371,0.6707999110221863,-1.7963223457336426
1739919880661672400,7.91867236328125,4.751044750213623,0.33563873171806335,-1.9934759140014648
1739919880671654100,7.928654052734375,4.71858549118042,0.019645340740680695,-2.1388535499572754
1739919880681637400,7.938637451171875,4.675802230834961,-0.20844295620918274,-2.255356788635254
1739919880691619300,7.948619384765625,4.644654273986816,-0.31533610820770264,-2.3445119857788086
1739919880701602300,7.958602294921875,4.615279674530029,-0.3165411949157715,-2.4083902835845947
1739919880711584300,7.968584228515625,4.5669331550598145,-0.25405386090278625,-2.4244537353515625
1739919880721566200,7.978566162109375,4.507521152496338,-0.15625111758708954,-2.401003122329712
1739919880731549200,7.988549072265625,4.441283702850342,-0.055679772049188614,-2.3419361114501953
1739919880741531400,7.998531494140625,4.369500160217285,0.0424228236079216,-2.2459166049957275
1739919880751514000,8.00851416015625,4.289399147033691,0.14614629745483398,-2.1320018768310547
1739919880761496300,8.018496337890625,4.190832138061523,0.25297579169273376,-2.0034565925598145
1739919880771478300,8.028478271484374,4.076709747314453,0.3526688516139984,-1.8755810260772705
1739919880781461200,8.038461181640624,3.9324700832366943,0.41947025060653687,-1.7514100074768066
1739919880791443500,8.048443359375,3.7632553577423096,0.4382849335670471,-1.6237186193466187
1739919880801426400,8.058426513671876,3.5709831714630127,0.39449962973594666,-1.4846824407577515
1739919880811408400,8.068408447265625,3.3610947132110596,0.28661471605300903,-1.3356841802597046
1739919880821390300,8.078390380859375,3.102052688598633,0.1234138160943985,-1.1810104846954346
1739919880831373300,8.088373291015625,2.803166627883911,-0.08468133211135864,-1.0275108814239502
1739919880841355300,8.098355224609374,2.4974536895751953,-0.29091599583625793,-0.8785121440887451
1739919880851338500,8.10833837890625,2.2081027030944824,-0.4476901590824127,-0.7334463000297546
1739919880861320200,8.1183203125,1.907304286956787,-0.5581596493721008,-0.5893410444259644
1739919880871302400,8.128302490234375,1.5645829439163208,-0.6587856411933899,-0.45393821597099304
1739919880881285000,8.13828515625,1.1620237827301025,-0.7739947438240051,-0.33218592405319214
1739919880891267300,8.148267333984375,0.7028300166130066,-0.8687082529067993,-0.239115372300148
1739919880901250300,8.158250244140625,0.21598130464553833,-0.9115414619445801,-0.17725680768489838
1739919880911232300,8.168232177734374,-0.28816333413124084,-0.9030896425247192,-0.1489492654800415
1739919880921214500,8.17821435546875,-0.7667688131332397,-0.8278340101242065,-0.147735133767128
1739919880931197400,8.188197509765626,-1.1807622909545898,-0.6969947814941406,-0.15004995465278625
1739919880941179400,8.198179443359376,-1.5213056802749634,-0.5292665362358093,-0.11380726099014282
1739919880951161300,8.208161376953125,-1.7791249752044678,-0.3808043301105499,-0.01369477342814207
1739919880961144300,8.218144287109375,-1.937039852142334,-0.2731705605983734,0.13682734966278076
1739919880971126300,8.228126220703125,-2.010375499725342,-0.21945059299468994,0.3179534673690796
1739919880981109500,8.238109619140625,-2.0292789936065674,-0.20587939023971558,0.4830811619758606
1739919880991091200,8.24809130859375,-2.035269260406494,-0.19054464995861053,0.5898414254188538
1739919881001073400,8.258073486328126,-2.068284273147583,-0.11374387890100479,0.6036456823348999
1739919881011056000,8.26805615234375,-2.153329610824585,0.05908702313899994,0.5399343371391296
1739919881021038300,8.278038330078125,-2.2884459495544434,0.30727419257164,0.41338998079299927
1739919881031021300,8.288021240234375,-2.4685497283935547,0.5782058238983154,0.260465145111084
1739919881041003300,8.298003173828125,-2.6965909004211426,0.8225364685058594,0.11512019485235214
1739919881050985200,8.307985107421874,-2.970029830932617,0.9989293217658997,0.03008093684911728
1739919881060968400,8.317968505859374,-3.273106336593628,1.0269109010696411,0.04074263572692871
1739919881070950100,8.3279501953125,-3.6013858318328857,0.8942806720733643,0.11911200731992722
1739919881080933400,8.337933349609376,-3.929320812225342,0.6199420690536499,0.23662133514881134
1739919881090915300,8.347915283203125,-4.2223801612854,0.2567407190799713,0.35653600096702576
1739919881100897300,8.357897216796875,-4.465731143951416,-0.13582973182201385,0.4585404098033905
1739919881110880300,8.36788037109375,-4.648678779602051,-0.498434841632843,0.5299749374389648
1739919881120862200,8.3778623046875,-4.764647483825684,-0.7644183039665222,0.5715441703796387
1739919881130845200,8.38784521484375,-4.835907459259033,-0.9373874068260193,0.6054776310920715
1739919881140827100,8.3978271484375,-4.880397319793701,-1.0392043590545654,0.6618373394012451
1739919881150809300,8.407809326171876,-4.9244065284729,-1.0865260362625122,0.7594637870788574
1739919881160792300,8.417792236328125,-4.995235919952393,-1.1185880899429321,0.915057361125946
1739919881170774300,8.427774169921875,-5.093308448791504,-1.1847662925720215,1.146590232849121
1739919881180757200,8.43775732421875,-5.15662956237793,-1.218422532081604,1.4412473440170288
1739919881190739500,8.447739501953125,-5.168969631195068,-1.2293468713760376,1.8090821504592896
1739919881200721200,8.45772119140625,-5.154701232910156,-1.229324460029602,2.2733073234558105
1739919881210704400,8.467704345703124,-5.146437644958496,-1.1873834133148193,2.80605411529541
1739919881220686000,8.47768603515625,-5.135815620422363,-1.0689688920974731,3.3610832691192627
1739919881230669300,8.48766943359375,-5.079078197479248,-0.8953227996826172,3.8898000717163086
1739919881240651300,8.4976513671875,-4.928222179412842,-0.662139892578125,4.314730167388916
1739919881250633200,8.50763330078125,-4.698509693145752,-0.37296557426452637,4.5771050453186035
1739919881260616200,8.5176162109375,-4.456131935119629,-0.04338609054684639,4.662930965423584
1739919881270598400,8.527598388671874,-4.2360992431640625,0.2796335220336914,4.589317798614502
1739919881280581000,8.5375810546875,-4.049929141998291,0.5394927859306335,4.383917808532715
1739919881290563300,8.547563232421876,-3.8953750133514404,0.6531426310539246,4.078686237335205
1739919881300545300,8.557545166015625,-3.7486162185668945,0.6243578791618347,3.6881308555603027
1739919881310528300,8.5675283203125,-3.563051462173462,0.5248739123344421,3.2247564792633057
1739919881320510500,8.577510498046875,-3.3224401473999023,0.4168321192264557,2.6960508823394775
1739919881330493200,8.5874931640625,-3.0222175121307373,0.3248233497142792,2.1154868602752686
1739919881340475400,8.597475341796875,-2.6791136264801025,0.2312004566192627,1.5326526165008545
1739919881350457000,8.60745703125,-2.3237781524658203,0.11252947151660919,0.9854303002357483
1739919881360440300,8.6174404296875,-1.9730641841888428,-0.05745343863964081,0.4898216426372528
1739919881370422300,8.62742236328125,-1.6433507204055786,-0.2703004479408264,0.031624771654605865
1739919881380405200,8.6374052734375,-1.3336372375488281,-0.47297847270965576,-0.3876502513885498
1739919881390387200,8.64738720703125,-1.0001834630966187,-0.6637702584266663,-0.7736418843269348
1739919881400370400,8.657370361328125,-0.6367090940475464,-0.8457557559013367,-1.0944015979766846
1739919881410354000,8.66735400390625,-0.27976906299591064,-1.0345799922943115,-1.3132425546646118
1739919881420336000,8.677336181640625,0.047018375247716904,-1.2143961191177368,-1.4179614782333374
1739919881430318800,8.68731884765625,0.34087875485420227,-1.394592523574829,-1.422078251838684
1739919881440301000,8.697301025390624,0.5986128449440002,-1.574371576309204,-1.3503555059432983
1739919881450284000,8.707283935546876,0.8133730888366699,-1.6811113357543945,-1.215059518814087
1739919881460266000,8.717265869140626,1.0069912672042847,-1.6577544212341309,-1.0318745374679565
1739919881470248000,8.727248046875,1.2120850086212158,-1.4759230613708496,-0.8189031481742859
1739919881480231000,8.73723095703125,1.4482187032699585,-1.1294114589691162,-0.5789094567298889
1739919881490212900,8.747212890625,1.7169703245162964,-0.6279060244560242,-0.3405706286430359
1739919881500196000,8.757196044921875,2.0053000450134277,-0.01727752387523651,-0.12657178938388824
1739919881510177800,8.767177734375,2.2605409622192383,0.7082125544548035,0.03218669816851616
1739919881520160000,8.777159912109376,2.4684085845947266,1.5001239776611328,0.10734163969755173
1739919881530143000,8.78714306640625,2.612168788909912,2.291217803955078,0.08955491334199905
1739919881540125000,8.797125,2.706190347671509,3.043327569961548,-0.02021951787173748
1739919881550108000,8.80710791015625,2.7659456729888916,3.7445130348205566,-0.19191856682300568
1739919881560089900,8.81708984375,2.7977569103240967,4.333045482635498,-0.37765806913375854
1739919881570071800,8.82707177734375,2.7966771125793457,4.685962200164795,-0.5566555261611938
1739919881580055000,8.837054931640624,2.7881810665130615,4.802023410797119,-0.7246943116188049
1739919881590037000,8.847037109375,2.8010852336883545,4.718783378601074,-0.887876033782959
1739919881600020000,8.85702001953125,2.8652148246765137,4.504910469055176,-1.0683928728103638
1739919881610002000,8.867001953125,3.0090172290802,4.190446376800537,-1.2660247087478638
1739919881619984000,8.87698388671875,3.2191293239593506,3.8177425861358643,-1.4827625751495361
1739919881629966800,8.886966796875,3.4738352298736572,3.43306040763855,-1.7008424997329712
1739919881639948800,8.89694873046875,3.75089693069458,3.1049373149871826,-1.914930820465088
1739919881649932000,8.90693212890625,4.034069061279297,2.7932403087615967,-2.1172258853912354
1739919881659914000,8.9169140625,4.302518367767334,2.4283125400543213,-2.29278302192688
1739919881669897000,8.92689697265625,4.521824359893799,1.993533968925476,-2.4359138011932373
1739919881679879000,8.93687890625,4.65158748626709,1.5683952569961548,-2.55722975730896
1739919881689860900,8.94686083984375,4.679515838623047,1.2071179151535034,-2.629619598388672
1739919881699843800,8.95684375,4.648720741271973,0.9057559967041016,-2.6676111221313477
1739919881709826000,8.966825927734375,4.613020896911621,0.651833713054657,-2.6877310276031494
1739919881719808800,8.976808837890625,4.572884559631348,0.45797234773635864,-2.6943368911743164
1739919881729791000,8.986791015625,4.519841194152832,0.3331870138645172,-2.6923136711120605
1739919881739773000,8.99677294921875,4.4477009773254395,0.2783544063568115,-2.6818313598632812
1739919881749756000,9.006755859375,4.360846042633057,0.27950647473335266,-2.6610124111175537
1739919881759737900,9.01673779296875,4.2755255699157715,0.32842183113098145,-2.631383180618286
1739919881769721000,9.02672119140625,4.1827921867370605,0.43583083152770996,-2.582071304321289
1739919881779702800,9.036702880859375,4.097573280334473,0.5557308793067932,-2.516510009765625
1739919881789685000,9.04668505859375,4.029806613922119,0.6670477986335754,-2.4531068801879883
1739919881799667700,9.056667724609374,3.9575841426849365,0.7611711025238037,-2.3914854526519775
1739919881809650000,9.06664990234375,3.8553102016448975,0.8166367411613464,-2.3398516178131104
1739919881819633000,9.0766328125,3.7281737327575684,0.8505984544754028,-2.289620876312256
1739919881829614800,9.08661474609375,3.580554723739624,0.8521583080291748,-2.2343969345092773
1739919881839597000,9.09659716796875,3.411299228668213,0.8232001066207886,-2.1873793601989746
1739919881849579800,9.106579833984375,3.2168452739715576,0.7676865458488464,-2.131741762161255
1739919881859562000,9.11656201171875,2.981233835220337,0.701080858707428,-2.0567116737365723
1739919881869545000,9.126544921875,2.7068986892700195,0.6168299317359924,-1.9638493061065674
1739919881879527000,9.13652685546875,2.3942513465881348,0.5049608945846558,-1.8377734422683716
1739919881889510000,9.146510009765626,2.0427873134613037,0.3351375162601471,-1.6824016571044922
1739919881899492000,9.1564921875,1.6327800750732422,0.11203332990407944,-1.5053720474243164
1739919881909473800,9.166473876953125,1.1263402700424194,-0.10788518935441971,-1.3060057163238525
1739919881919457000,9.17645703125,0.528709888458252,-0.308505117893219,-1.0836199522018433
1739919881929438700,9.186438720703125,-0.10563454777002335,-0.45095333456993103,-0.8422917723655701
1739919881939422000,9.196421875,-0.720809817314148,-0.5479872226715088,-0.612159788608551
1739919881949404000,9.20640380859375,-1.3312593698501587,-0.5968050956726074,-0.3969156742095947
1739919881959385900,9.2163857421875,-1.946382761001587,-0.5933933258056641,-0.19951178133487701
1739919881969368800,9.226368896484376,-2.5458693504333496,-0.5472356677055359,-0.0014524880098178983
1739919881979350800,9.236350830078125,-3.0769402980804443,-0.4991789162158966,0.21131864190101624
1739919881989333800,9.246333740234375,-3.494741916656494,-0.5004940032958984,0.44555163383483887
1739919881999316000,9.25631591796875,-3.799272298812866,-0.5330689549446106,0.6962248682975769
1739919882009298000,9.2662978515625,-4.001777648925781,-0.6190688610076904,0.9601076245307922
1739919882019281000,9.276281005859374,-4.1489105224609375,-0.7091974020004272,1.2153599262237549
1739919882029263000,9.28626318359375,-4.26054048538208,-0.7734274864196777,1.4397519826889038
1739919882039245800,9.296245849609376,-4.35313606262207,-0.7727148532867432,1.604927659034729
1739919882049228000,9.30622802734375,-4.422971725463867,-0.7300845384597778,1.7012933492660522
1739919882059209700,9.316209716796875,-4.465243816375732,-0.6245062351226807,1.7357128858566284
1739919882069193000,9.32619287109375,-4.464855194091797,-0.5026399493217468,1.7211967706680298
1739919882079175000,9.3361748046875,-4.411479949951172,-0.35155802965164185,1.6494420766830444
1739919882089158000,9.346157958984374,-4.352228164672852,-0.1857626736164093,1.529444932937622
1739919882099139800,9.356139892578126,-4.2927470207214355,-0.05156678706407547,1.3803308010101318
1739919882109121800,9.366121826171875,-4.238757133483887,-0.0005731122801080346,1.212802529335022
1739919882119104800,9.376104736328125,-4.211595058441162,-0.02894962579011917,1.0749589204788208
1739919882129087000,9.3860869140625,-4.205590724945068,-0.16617006063461304,0.9692897200584412
1739919882139070000,9.396070068359375,-4.2227463722229,-0.42480453848838806,0.9079626798629761
1739919882149052000,9.406052001953125,-4.245229721069336,-0.7745079398155212,0.8853378295898438
1739919882159035000,9.416034912109374,-4.266901969909668,-1.147208333015442,0.8973414897918701
1739919882169016800,9.426016845703124,-4.309505462646484,-1.4694744348526,0.9348337054252625
1739919882178999000,9.4359990234375,-4.37611722946167,-1.7465870380401611,0.9808794856071472
1739919882188982000,9.44598193359375,-4.471009731292725,-1.941527247428894,1.0152071714401245
1739919882198964000,9.4559638671875,-4.55867862701416,-2.0267980098724365,1.0045409202575684
1739919882208947000,9.465947021484375,-4.567960262298584,-1.9880236387252808,0.9523088335990906
1739919882218929000,9.475928955078125,-4.51797342300415,-1.8430768251419067,0.8880619406700134
1739919882228910800,9.485910888671874,-4.431240081787109,-1.6594973802566528,0.8271716833114624
1739919882238894000,9.49589404296875,-4.3088836669921875,-1.476789116859436,0.7691568732261658
1739919882248875800,9.505875732421876,-4.14238977432251,-1.339624047279358,0.6916404962539673
1739919882258859000,9.51585888671875,-3.9286365509033203,-1.2070719003677368,0.5765621066093445
1739919882268841000,9.525841064453125,-3.713249444961548,-1.0627754926681519,0.4402545988559723
1739919882278823000,9.535822998046875,-3.5243663787841797,-0.909904420375824,0.3122023642063141
1739919882288806000,9.545805908203125,-3.354513168334961,-0.7266485691070557,0.2042820304632187
1739919882298787800,9.555787841796874,-3.211798906326294,-0.5279855132102966,0.1187245175242424
1739919882308770800,9.565770751953124,-3.0609028339385986,-0.3629923164844513,0.08033718168735504
1739919882318753000,9.5757529296875,-2.88371205329895,-0.27309784293174744,0.08135184645652771
1739919882328735700,9.58573583984375,-2.6842048168182373,-0.23451609909534454,0.11635243892669678
1739919882338718000,9.595718017578125,-2.471719980239868,-0.2143048346042633,0.16440758109092712
1739919882348700000,9.605699951171875,-2.2558329105377197,-0.20794068276882172,0.17416620254516602
1739919882358683000,9.615682861328125,-1.997428297996521,-0.22091853618621826,0.14829492568969727
1739919882368665000,9.6256650390625,-1.7087805271148682,-0.22981348633766174,0.08728350698947906
1739919882378647800,9.635647705078124,-1.4247491359710693,-0.2250586748123169,0.010933341458439827
1739919882388630000,9.645630126953124,-1.1607369184494019,-0.21877655386924744,-0.05307600274682045
1739919882398612000,9.655612060546876,-0.8939235806465149,-0.23235628008842468,-0.07749585807323456
1739919882408593200,9.66559326171875,-0.6213114857673645,-0.27688005566596985,-0.06644134223461151
1739919882418575400,9.675575439453125,-0.32853928208351135,-0.34142497181892395,-0.05597245693206787
1739919882428558000,9.68555810546875,-0.013109410181641579,-0.38906973600387573,-0.07255648821592331
1739919882438540300,9.695540283203124,0.28786322474479675,-0.43578794598579407,-0.09655264019966125
1739919882448522000,9.70552197265625,0.5359014868736267,-0.5092666745185852,-0.1046675592660904
1739919882458505200,9.715505126953126,0.7458193302154541,-0.586678683757782,-0.08126796036958694
1739919882468487200,9.725487060546875,0.9449425339698792,-0.641308069229126,-0.01594327948987484
1739919882478470100,9.73547021484375,1.1586673259735107,-0.6910966634750366,0.07690170407295227
1739919882488452000,9.7454521484375,1.3865036964416504,-0.7141367793083191,0.17321333289146423
1739919882498435300,9.755435302734375,1.6456964015960693,-0.6678544878959656,0.2661139667034149
1739919882508417000,9.7654169921875,1.9609822034835815,-0.5189403891563416,0.34809911251068115
1739919882518399200,9.775399169921876,2.313913583755493,-0.22025540471076965,0.40370699763298035
1739919882528382000,9.7853818359375,2.702268600463867,0.2192697674036026,0.4215483069419861
1739919882538364200,9.7953642578125,3.064988613128662,0.7546341419219971,0.40035220980644226
1739919882548347100,9.80534716796875,3.368938684463501,1.283503532409668,0.3582497537136078
1739919882558329000,9.8153291015625,3.5873589515686035,1.7505431175231934,0.2774403989315033
1739919882568311300,9.825311279296875,3.68349027633667,2.1578657627105713,0.19052520394325256
1739919882578294300,9.835294189453125,3.6682586669921875,2.5661675930023193,0.09064415097236633
1739919882588276200,9.845276123046874,3.6024603843688965,2.945970058441162,-0.009278452955186367
1739919882598259200,9.85525927734375,3.5154197216033936,3.258129119873047,-0.09453369677066803
1739919882608241200,9.8652412109375,3.402636766433716,3.5106658935546875,-0.16079340875148773
1739919882618223000,9.87522314453125,3.3046717643737793,3.657085418701172,-0.18743248283863068
1739919882628206300,9.885206298828125,3.2890312671661377,3.6709396839141846,-0.1723073273897171
1739919882638188000,9.89518798828125,3.362731695175171,3.5183916091918945,-0.11625336855649948
1739919882648171300,9.905171142578125,3.4655439853668213,3.1736717224121094,-0.07222679257392883
1739919882658153000,9.915153076171874,3.5428457260131836,2.693342447280884,-0.06619580090045929
1739919882668135200,9.92513525390625,3.586893081665039,2.135592222213745,-0.13037344813346863
1739919882678118100,9.9351181640625,3.6203854084014893,1.5746272802352905,-0.27169275283813477
1739919882688100000,9.94510009765625,3.6387717723846436,1.0932878255844116,-0.46853896975517273
1739919882698083000,9.9550830078125,3.611398935317993,0.7355064749717712,-0.6950005888938904
1739919882708065300,9.965065185546875,3.55781888961792,0.479280561208725,-0.9225855469703674
1739919882718048000,9.975048095703125,3.5133132934570312,0.2925892472267151,-1.1139768362045288
1739919882728030200,9.9850302734375,3.5135858058929443,0.17888745665550232,-1.2454129457473755
1739919882738012200,9.99501220703125,3.5651092529296875,0.13363981246948242,-1.3095899820327759
1739919882747995100,10.0049951171875,3.6648566722869873,0.13035427033901215,-1.3154354095458984
1739919882757977300,10.014977294921875,3.781028985977173,0.20638619363307953,-1.2767505645751953
1739919882767960000,10.0249599609375,3.9051711559295654,0.35091647505760193,-1.2195231914520264
1739919882777942300,10.0349423828125,4.0204691886901855,0.5420161485671997,-1.1642978191375732
1739919882787924000,10.044924072265625,4.11208963394165,0.7519576549530029,-1.1313084363937378
1739919882797907200,10.0549072265625,4.167518615722656,0.953314483165741,-1.1330146789550781
1739919882807889200,10.06488916015625,4.187490463256836,1.1197199821472168,-1.174800992012024
1739919882817872400,10.074872314453126,4.159536838531494,1.234945297241211,-1.2309188842773438
1739919882827854000,10.08485400390625,4.090479850769043,1.2980647087097168,-1.290221929550171
1739919882837837300,10.09483740234375,3.988889455795288,1.3152543306350708,-1.335713267326355
1739919882847819000,10.104819091796875,3.856598377227783,1.289924144744873,-1.3727253675460815
1739919882857801200,10.11480126953125,3.691938638687134,1.252861499786377,-1.3765586614608765
1739919882867784200,10.1247841796875,3.493201494216919,1.2310395240783691,-1.336181640625
1739919882877766100,10.13476611328125,3.27593994140625,1.118669033050537,-1.244720458984375
1739919882887749000,10.1447490234375,3.0594823360443115,0.9319830536842346,-1.0949645042419434
1739919882897731000,10.15473095703125,2.815019130706787,0.7615500688552856,-0.8827364444732666
1739919882907713300,10.16471337890625,2.5564475059509277,0.6351583003997803,-0.6327502727508545
1739919882917696300,10.1746962890625,2.2997288703918457,0.5148758292198181,-0.37191763520240784
1739919882927678200,10.18467822265625,2.0536136627197266,0.4141268730163574,-0.11615803092718124
1739919882937661200,10.1946611328125,1.768044114112854,0.34826982021331787,0.11680357903242111
1739919882947643400,10.204643310546874,1.3702815771102905,0.28884297609329224,0.3355756103992462
1739919882957625000,10.214625,0.7957501411437988,0.12916357815265656,0.5482479333877563
1739919882967608300,10.2246083984375,0.08242696523666382,-0.20340238511562347,0.7465099096298218
1739919882977590000,10.234590087890625,-0.6766088008880615,-0.6032384634017944,0.9074162244796753
1739919882987573200,10.2445732421875,-1.3958021402359009,-0.9841898083686829,0.9961820244789124
1739919882997555200,10.25455517578125,-2.0142037868499756,-1.302100658416748,0.9655596613883972
1739919883007538200,10.2645380859375,-2.488588571548462,-1.530519723892212,0.8315994739532471
1739919883017520000,10.27452001953125,-2.830886125564575,-1.7130272388458252,0.6633644104003906
1739919883027502000,10.284502197265626,-3.1108570098876953,-1.8741767406463623,0.5208277702331543
1739919883037485000,10.294485107421876,-3.376417398452759,-1.9933840036392212,0.4209491014480591
1739919883047467300,10.30446728515625,-3.6295926570892334,-2.0448999404907227,0.33573564887046814
1739919883057450000,10.314449951171875,-3.8830058574676514,-1.987489104270935,0.24939385056495667
1739919883067432200,10.32443212890625,-4.152430534362793,-1.8558011054992676,0.1578061431646347
1739919883077414400,10.334414306640625,-4.467857360839844,-1.6824769973754883,0.05775437504053116
1739919883087397000,10.344397216796875,-4.780192852020264,-1.5041041374206543,-0.05145147442817688
1739919883097379300,10.35437939453125,-5.036461353302002,-1.337377667427063,-0.18053169548511505
1739919883107362300,10.3643623046875,-5.2119317054748535,-1.1716289520263672,-0.33076512813568115
1739919883117344300,10.37434423828125,-5.310801982879639,-1.0133317708969116,-0.499518483877182
1739919883127326200,10.384326171875,-5.3593268394470215,-0.8819289803504944,-0.6911070942878723
1739919883137309200,10.39430908203125,-5.402649879455566,-0.7731593251228333,-0.8821281790733337
1739919883147291100,10.404291015625,-5.462098121643066,-0.6960581541061401,-1.0314483642578125
1739919883157274400,10.4142744140625,-5.542989253997803,-0.6622485518455505,-1.1109645366668701
1739919883167256000,10.424256103515624,-5.625577449798584,-0.6682273149490356,-1.0993633270263672
1739919883177239300,10.4342392578125,-5.671275615692139,-0.7080796957015991,-0.9992518424987793
1739919883187221000,10.444220947265626,-5.66261100769043,-0.776608943939209,-0.8067119717597961
1739919883197203200,10.454203125,-5.622352600097656,-0.8621776103973389,-0.5217183232307434
1739919883207186200,10.464186279296875,-5.560814380645752,-0.9489993453025818,-0.16014599800109863
1739919883217168100,10.474168212890625,-5.443437099456787,-1.0304774045944214,0.28273820877075195
1739919883227151000,10.484151123046875,-5.241663932800293,-1.0720717906951904,0.7735342979431152
1739919883237133300,10.49413330078125,-4.941936492919922,-1.0961768627166748,1.2414889335632324
1739919883247115000,10.504114990234376,-4.56186580657959,-1.0815120935440063,1.6083924770355225
1739919883257098200,10.51409814453125,-4.148068904876709,-1.0295759439468384,1.8463338613510132
1739919883267080200,10.524080078125,-3.7240030765533447,-0.9050321578979492,1.9558414220809937
1739919883277063200,10.534063232421875,-3.330768585205078,-0.7021623849868774,1.9503449201583862
1739919883287045000,10.544045166015625,-2.987981081008911,-0.4482478201389313,1.8712509870529175
1739919883297028000,10.554028076171875,-2.7162821292877197,-0.20674332976341248,1.7625089883804321
1739919883307010000,10.564010009765624,-2.5078883171081543,-0.03593802824616432,1.645111083984375
1739919883316992300,10.5739921875,-2.367060661315918,0.031442344188690186,1.5039336681365967
1739919883326975200,10.583975341796876,-2.2799432277679443,-0.046181343495845795,1.3402163982391357
1739919883336957200,10.593957275390625,-2.2113070487976074,-0.23231233656406403,1.1439576148986816
1739919883346940200,10.603940185546875,-2.135115623474121,-0.40539276599884033,0.8992847800254822
1739919883356922000,10.613922119140625,-2.024482250213623,-0.5242301821708679,0.6243088841438293
1739919883366904300,10.623904296875,-1.8579438924789429,-0.564267098903656,0.3474698066711426
1739919883376887000,10.633886962890625,-1.6477597951889038,-0.55850750207901,0.12793345749378204
1739919883386869200,10.643869140625,-1.4346933364868164,-0.5219324231147766,0.0036362800747156143
1739919883396852200,10.653852294921874,-1.2457777261734009,-0.4682233929634094,-0.02748941443860531
1739919883406834200,10.663834228515626,-1.0651144981384277,-0.38331544399261475,0.03909866511821747
1739919883416816600,10.673816650390625,-0.8688927888870239,-0.21834857761859894,0.19253109395503998
1739919883426799900,10.6837998046875,-0.6378371715545654,0.0065228804014623165,0.40366971492767334
1739919883436781600,10.693781494140625,-0.38867825269699097,0.24223101139068604,0.6419525742530823
1739919883446764800,10.703764892578125,-0.11649864912033081,0.4268602430820465,0.8557692766189575
1739919883456746500,10.71374658203125,0.204800546169281,0.5812450051307678,0.9847986102104187
1739919883466729700,10.723729736328124,0.5311067700386047,0.6762375831604004,0.9961079955101013
1739919883476711700,10.733711669921876,0.8101101517677307,0.678274393081665,0.8799142837524414
1739919883486693600,10.743693603515625,1.009416103363037,0.5504817962646484,0.6808624267578125
1739919883496676600,10.753676513671875,1.1514477729797363,0.343025267124176,0.43725934624671936
1739919883506658600,10.763658447265625,1.2707326412200928,0.1188608705997467,0.1811857670545578
1739919883516641500,10.7736416015625,1.4111429452896118,-0.016576578840613365,-0.03873381391167641
1739919883526623700,10.783623779296875,1.6049824953079224,-0.03906990587711334,-0.2178359180688858
1739919883536605700,10.793605712890624,1.8565891981124878,0.0455286018550396,-0.33935728669166565
1739919883546588700,10.803588623046876,2.1557445526123047,0.21167150139808655,-0.38898929953575134
1739919883556571000,10.81357080078125,2.4875271320343018,0.4499991238117218,-0.38317054510116577
1739919883566553600,10.8235537109375,2.820416212081909,0.7542386651039124,-0.35454076528549194
1739919883576535800,10.833535888671875,3.1114094257354736,1.1284340620040894,-0.3321225643157959
1739919883586518800,10.843518798828125,3.3257455825805664,1.5260320901870728,-0.3087786138057709
1739919883596500700,10.853500732421875,3.428513288497925,1.8542640209197998,-0.2639562785625458
1739919883606482700,10.863482666015624,3.441167116165161,2.0971977710723877,-0.23345109820365906
1739919883616465700,10.873465576171874,3.4068007469177246,2.295681953430176,-0.24817678332328796
1739919883626447600,10.883447509765626,3.3471062183380127,2.439466714859009,-0.3187151253223419
1739919883636430800,10.893430908203126,3.2743794918060303,2.4936225414276123,-0.41490423679351807
1739919883646412500,10.90341259765625,3.208134174346924,2.4568464756011963,-0.532892644405365
1739919883656394800,10.913394775390625,3.1637964248657227,2.3481290340423584,-0.6561831831932068
1739919883666377700,10.923377685546875,3.159578323364258,2.183774709701538,-0.7729761004447937
1739919883676359700,10.933359619140624,3.19573974609375,1.9730467796325684,-0.8742910027503967
1739919883686342700,10.9433427734375,3.286818265914917,1.7549821138381958,-0.9455252289772034
1739919883696324600,10.95332470703125,3.4186630249023438,1.5714166164398193,-0.9775550961494446
1739919883706306800,10.963306884765625,3.5535783767700195,1.378678321838379,-0.9681514501571655
1739919883716289800,10.973289794921875,3.688094139099121,1.15213143825531,-0.9214353561401367
1739919883726271700,10.983271728515625,3.815528154373169,0.9271283745765686,-0.8607096672058105
1739919883736254700,10.993254638671875,3.934286594390869,0.7057890892028809,-0.8036751747131348
1739919883746236700,11.003236572265624,4.029454708099365,0.4930456578731537,-0.7849741578102112
1739919883756219600,11.0132197265625,4.122488498687744,0.31662827730178833,-0.8075287342071533
1739919883766201900,11.023201904296876,4.223904132843018,0.22406798601150513,-0.8684957027435303
1739919883776183600,11.03318359375,4.338342189788818,0.22590449452400208,-0.9285491704940796
1739919883786166800,11.043166748046875,4.467607498168945,0.3067370355129242,-0.9432187080383301
1739919883796148700,11.053148681640625,4.611230373382568,0.4386093020439148,-0.9017503261566162
1739919883806131700,11.063131591796875,4.770522594451904,0.5602164268493652,-0.8233948349952698
1739919883816113700,11.07311376953125,4.930369853973389,0.6707648038864136,-0.7392035126686096
1739919883826095600,11.083095703125,5.0639872550964355,0.747773289680481,-0.685306966304779
1739919883836078600,11.09307861328125,5.154061317443848,0.7878365516662598,-0.6614596843719482
1739919883846060800,11.103060791015626,5.181654930114746,0.7437830567359924,-0.6552153825759888
1739919883856043500,11.11304345703125,5.153477668762207,0.607307493686676,-0.6587867140769958
1739919883866025700,11.123025634765625,5.0554633140563965,0.4270530641078949,-0.6729105114936829
1739919883876008700,11.1330087890625,4.884026527404785,0.23209156095981598,-0.7144297361373901
1739919883885990700,11.14299072265625,4.639562129974365,0.024226509034633636,-0.7775503396987915
1739919883895972600,11.15297265625,4.314008712768555,-0.1733022779226303,-0.8710600733757019
1739919883905955600,11.16295556640625,3.9203155040740967,-0.35297057032585144,-1.0021677017211914
1739919883915937500,11.1729375,3.491241693496704,-0.5412566065788269,-1.158798098564148
1739919883925920800,11.182920654296876,3.0493173599243164,-0.736873209476471,-1.3278601169586182
1739919883935902700,11.19290283203125,2.608083486557007,-0.9243667125701904,-1.501950979232788
1739919883945884700,11.202884765625,2.1747729778289795,-1.0648630857467651,-1.6523511409759521
1739919883955867600,11.21286767578125,1.7658361196517944,-1.1286554336547852,-1.7650483846664429
1739919883965849600,11.222849609375,1.3688373565673828,-1.147214651107788,-1.8047949075698853
1739919883975832600,11.23283251953125,0.9401429891586304,-1.1612151861190796,-1.7726417779922485
1739919883985814500,11.242814453125,0.4509924650192261,-1.2263022661209106,-1.6863341331481934
1739919883995797800,11.2527978515625,-0.10887641459703445,-1.2964897155761719,-1.5637450218200684
1739919884005779700,11.26277978515625,-0.7136898636817932,-1.322871446609497,-1.4181159734725952
1739919884015761700,11.27276171875,-1.338950514793396,-1.26645028591156,-1.2606123685836792
1739919884025744600,11.28274462890625,-1.953769564628601,-1.1002117395401,-1.091023564338684
1739919884035726800,11.292726806640625,-2.5363123416900635,-0.7860530018806458,-0.9332616329193115
1739919884045709600,11.30270947265625,-3.0915818214416504,-0.46842607855796814,-0.8257336020469666
1739919884055691800,11.31269189453125,-3.589709520339966,-0.24411652982234955,-0.7703707218170166
1739919884065673500,11.322673583984376,-4.004362106323242,-0.12153308838605881,-0.7280246019363403
1739919884075656700,11.33265673828125,-4.2984700202941895,-0.04921228811144829,-0.6753584742546082
1739919884085638700,11.342638671875,-4.479098320007324,-0.025908296927809715,-0.6067982912063599
1739919884095621600,11.35262158203125,-4.563202857971191,-0.009151953272521496,-0.5389255285263062
1739919884105603600,11.362603515625,-4.579574108123779,0.028564266860485077,-0.46091729402542114
1739919884115586800,11.3725869140625,-4.597443103790283,0.1005452498793602,-0.36289963126182556
1739919884125568500,11.382568603515624,-4.673028469085693,0.20211422443389893,-0.25905314087867737
1739919884135550700,11.39255078125,-4.795506954193115,0.31310224533081055,-0.1793748140335083
1739919884145533400,11.402533447265625,-4.923710823059082,0.45783254504203796,-0.17427939176559448
1739919884155515600,11.412515625,-5.007016181945801,0.6392555832862854,-0.2609167993068695
1739919884165498600,11.42249853515625,-5.032548427581787,0.8185619711875916,-0.408629834651947
1739919884175480600,11.43248046875,-5.042581558227539,0.9544228911399841,-0.6099382042884827
1739919884185462800,11.442462890625,-5.0486955642700195,1.0147533416748047,-0.8620889186859131
1739919884195445800,11.45244580078125,-5.058859825134277,1.007799744606018,-1.1406677961349487
1739919884205427700,11.462427734375,-5.077031135559082,0.9539381861686707,-1.4040770530700684
1739919884215410700,11.47241064453125,-5.103063106536865,0.8210557699203491,-1.5828607082366943
1739919884225392600,11.482392578125,-5.123324394226074,0.6209461092948914,-1.6251893043518066
1739919884235374600,11.49237451171875,-5.1371002197265625,0.36369991302490234,-1.5701673030853271
1739919884245357800,11.50235791015625,-5.078379154205322,0.034268759191036224,-1.433434247970581
1739919884255339500,11.512339599609374,-4.986423015594482,-0.284483402967453,-1.2651032209396362
1739919884265322800,11.52232275390625,-4.869056224822998,-0.5117216110229492,-1.0719082355499268
1739919884275304400,11.532304443359376,-4.749733924865723,-0.6591100096702576,-0.8869879245758057
1739919884285287700,11.54228759765625,-4.633803844451904,-0.7015778422355652,-0.7517017126083374
1739919884295269600,11.55226953125,-4.488297939300537,-0.5896917581558228,-0.6509923934936523
1739919884305251600,11.56225146484375,-4.258222579956055,-0.30874186754226685,-0.5385017991065979
1739919884315234600,11.572234619140625,-3.9472453594207764,0.06248068809509277,-0.4200175106525421
1739919884325216800,11.582216796875,-3.614438772201538,0.46565183997154236,-0.28649353981018066
1739919884335199500,11.592199462890624,-3.3090360164642334,0.8267200589179993,-0.14138083159923553
1739919884345181700,11.602181640625,-3.0548758506774902,1.113365888595581,0.011159177869558334
1739919884355164700,11.61216455078125,-2.8681764602661133,1.31569242477417,0.11482192575931549
1739919884365146600,11.622146728515625,-2.7404537200927734,1.4141265153884888,0.16251008212566376
1739919884375128800,11.63212890625,-2.640353202819824,1.4394422769546509,0.15470995008945465
1739919884385111600,11.642111572265625,-2.5669443607330322,1.3893826007843018,0.11195743083953857
1739919884395093800,11.65209375,-2.5000243186950684,1.2578567266464233,0.021076789125800133
1739919884405076700,11.66207666015625,-2.4330759048461914,1.0712445974349976,-0.09524502605199814
1739919884415058700,11.67205859375,-2.3311522006988525,0.8346107006072998,-0.2092573493719101
1739919884425040400,11.682040283203126,-2.2028098106384277,0.5931640267372131,-0.3187396228313446
1739919884435023600,11.692023681640626,-2.040759563446045,0.35319000482559204,-0.4101307988166809
1739919884445005600,11.702005615234375,-1.85800039768219,0.12754836678504944,-0.4770648181438446
1739919884454988500,11.711988525390625,-1.6522493362426758,-0.09340637922286987,-0.5121653079986572
1739919884464970500,11.721970458984375,-1.4276652336120605,-0.29547691345214844,-0.5181462168693542
1739919884474953700,11.73195361328125,-1.1762056350708008,-0.4461873471736908,-0.4955498278141022
1739919884484935400,11.741935302734374,-0.9021210670471191,-0.5284537076950073,-0.4294278025627136
1739919884494917600,11.751917724609376,-0.6273680329322815,-0.5602284073829651,-0.3032866418361664
1739919884504900400,11.761900390625,-0.3688257038593292,-0.5519702434539795,-0.11384081095457077
1739919884514882600,11.771882568359375,-0.13254153728485107,-0.5434513092041016,0.12437654286623001
1739919884524865500,11.781865478515625,0.10774856805801392,-0.5364812612533569,0.3927755057811737
1739919884534847500,11.791847412109375,0.36599743366241455,-0.514505922794342,0.6643567085266113
1739919884544829700,11.80182958984375,0.6805154085159302,-0.45938730239868164,0.9209442734718323
1739919884554812400,11.8118125,1.0587828159332275,-0.3826158046722412,1.1612341403961182
1739919884564795400,11.82179541015625,1.5071766376495361,-0.2662319540977478,1.3481254577636719
1739919884574777600,11.831777587890626,2.0224826335906982,-0.06401973217725754,1.4584228992462158
1739919884584759600,11.841759521484375,2.5765576362609863,0.2144790142774582,1.52549409866333
1739919884594742500,11.851742431640625,3.118398904800415,0.5672860741615295,1.5685079097747803
1739919884604724700,11.861724853515625,3.611445188522339,0.9602330923080444,1.6044842004776
1739919884614707500,11.87170751953125,4.0194902420043945,1.3123940229415894,1.6193835735321045
1739919884624689700,11.881689697265625,4.326883792877197,1.5742672681808472,1.6254934072494507
1739919884634672600,11.891672607421874,4.515603542327881,1.7593318223953247,1.6213358640670776
1739919884644654600,11.901654541015626,4.576246738433838,1.8702796697616577,1.577802062034607
1739919884654636500,11.911636474609375,4.527997970581055,1.9390499591827393,1.4867253303527832
1739919884664619500,11.92161962890625,4.429482460021973,1.907549262046814,1.3718518018722534
1739919884674601500,11.9316015625,4.297703266143799,1.7591718435287476,1.253624439239502
1739919884684584700,11.941584716796875,4.190807342529297,1.5152443647384644,1.1213204860687256
1739919884694566400,11.95156640625,4.149303436279297,1.237243890762329,0.9508292078971863
1739919884704548600,11.961548583984374,4.1667609214782715,0.9972065687179565,0.7344649434089661
1739919884714531600,11.971531494140624,4.22304105758667,0.8139272928237915,0.4911702573299408
1739919884724513500,11.981513427734376,4.294259071350098,0.6616637110710144,0.26452407240867615
1739919884734496500,11.99149658203125,4.328780174255371,0.4744783639907837,0.11258353292942047
1739919884744478500,12.001478515625,4.338414192199707,0.23321594297885895,0.04698481783270836
1739919884754461400,12.01146142578125,4.34036922454834,-0.01495498139411211,0.026131469756364822
1739919884764443600,12.021443603515625,4.340915679931641,-0.2243332415819168,0.008591091260313988
1739919884774425600,12.031425537109374,4.349847316741943,-0.3844379484653473,-0.035833898931741714
1739919884784408600,12.04140869140625,4.373470306396484,-0.46002432703971863,-0.12167876213788986
1739919884794390500,12.051390625,4.4025187492370605,-0.4432631731033325,-0.2435857653617859
1739919884804373500,12.06137353515625,4.424954891204834,-0.35511255264282227,-0.345569908618927
1739919884814355700,12.071355712890625,4.439942836761475,-0.2225411981344223,-0.4210982322692871
1739919884824337400,12.08133740234375,4.438408374786377,-0.06333716213703156,-0.4819874167442322
1739919884834320600,12.091320556640625,4.411351680755615,0.10201051831245422,-0.5405660271644592
1739919884844302600,12.101302490234374,4.3602094650268555,0.2670378088951111,-0.5974119901657104
1739919884854285600,12.11128564453125,4.282567501068115,0.42170143127441406,-0.6472339034080505
1739919884864267500,12.121267578125,4.176301956176758,0.533998966217041,-0.6703935265541077
1739919884874250800,12.131250732421876,4.033587455749512,0.5915541052818298,-0.6740082502365112
1739919884884232400,12.141232421875,3.8555190563201904,0.5853896737098694,-0.6633281707763672
1739919884894214700,12.151214599609375,3.6644339561462402,0.5211893916130066,-0.6484914422035217
1739919884904197400,12.161197265625,3.466878652572632,0.4309612512588501,-0.6447076201438904
1739919884914179600,12.1711796875,3.2695484161376953,0.34705355763435364,-0.6539708971977234
1739919884924161500,12.18116162109375,3.069490432739258,0.27409547567367554,-0.6824872493743896
1739919884934143500,12.1911435546875,2.8697128295898438,0.200745090842247,-0.7420677542686462
1739919884944126700,12.201126708984376,2.661245822906494,0.1105872318148613,-0.8329278826713562
1739919884954108400,12.2111083984375,2.435828924179077,0.08006474375724792,-0.9227203130722046
1739919884964091600,12.221091552734375,2.1851656436920166,0.16005678474903107,-0.9902615547180176
1739919884974073600,12.231073486328125,1.9248579740524292,0.3202376663684845,-1.0186561346054077
1739919884984056600,12.241056640625,1.6776002645492554,0.415508508682251,-1.0120091438293457
1739919884994038500,12.25103857421875,1.4089035987854004,0.38415566086769104,-0.9780823588371277
1739919885004020500,12.2610205078125,1.0644958019256592,0.24996642768383026,-0.9115867018699646
1739919885014003500,12.27100341796875,0.6407147645950317,0.026861974969506264,-0.8217402100563049
1739919885023985700,12.280985595703125,0.15617601573467255,-0.1848609298467636,-0.7059829831123352
1739919885033968400,12.290968505859375,-0.3656402826309204,-0.368208646774292,-0.5863258242607117
1739919885043950600,12.30095068359375,-0.9081571102142334,-0.49554476141929626,-0.4617345929145813
1739919885053933600,12.31093359375,-1.4794682264328003,-0.5428446531295776,-0.3245740830898285
1739919885063915500,12.32091552734375,-2.0522584915161133,-0.5276930928230286,-0.17697210609912872
1739919885073897700,12.330897705078126,-2.5714151859283447,-0.4778619110584259,-0.018786471337080002
1739919885083880400,12.34088037109375,-3.0055742263793945,-0.3984086215496063,0.13815361261367798
1739919885093862700,12.350862548828125,-3.3244130611419678,-0.2930656969547272,0.28468579053878784
1739919885103845600,12.360845703125,-3.5425877571105957,-0.16939488053321838,0.40782102942466736
1739919885113827600,12.37082763671875,-3.699550151824951,-0.0328114777803421,0.4867432713508606
1739919885123809500,12.3808095703125,-3.8252928256988525,0.12052241712808609,0.5291309356689453
1739919885133792500,12.39079248046875,-3.952563762664795,0.30876076221466064,0.54595547914505
1739919885143774500,12.4007744140625,-4.094763278961182,0.5156993269920349,0.5601852536201477
1739919885153757700,12.4107578125,-4.254209041595459,0.7056623101234436,0.5908901691436768
1739919885163739400,12.420739501953125,-4.4106245040893555,0.8451078534126282,0.6384566426277161
1739919885173722600,12.43072265625,-4.553250312805176,0.9098373055458069,0.7007985711097717
1739919885183704600,12.44070458984375,-4.683590888977051,0.8764635920524597,0.769673228263855
1739919885193686500,12.4506865234375,-4.803325176239014,0.76817786693573,0.8295986652374268
1739919885203669500,12.46066943359375,-4.883614540100098,0.5971313118934631,0.8667340278625488
1739919885213651700,12.470651611328124,-4.907519817352295,0.39820995926856995,0.8743586540222168
1739919885223634400,12.480634521484374,-4.859482765197754,0.20017969608306885,0.8400827050209045
