time,seconds_elapsed,z,y,x
1740006935733533200,0.021533203125,-0.849456787109375,-0.170623779296875,-0.0912628173828125
1740006935743514400,0.031514404296875,-0.8540191650390625,-0.3386993408203125,0.0901641845703125
1740006935753496000,0.04149609375,-0.9611358642578125,-0.4806060791015625,0.232666015625
1740006935763478300,0.051478271484375,-0.9767303466796875,-0.5454559326171875,0.27630615234375
1740006935773460200,0.061460205078125,-1.007904052734375,-0.4050445556640625,0.4411468505859375
1740006935783441400,0.07144140625,-1.046722412109375,-0.231964111328125,0.422119140625
1740006935793423000,0.081423095703125,-1.053863525390625,-0.215484619140625,0.3222198486328125
1740006935803405300,0.0914052734375,-1.078033447265625,-0.26092529296875,0.1963653564453125
1740006935813387300,0.10138720703125,-1.0961761474609375,-0.2298736572265625,0.0851898193359375
1740006935823368200,0.1113681640625,-1.1175079345703125,-0.18658447265625,0.052337646484375
1740006935833350100,0.12135009765625,-1.129852294921875,-0.170501708984375,0.0535736083984375
1740006935843332400,0.131332275390625,-1.18914794921875,-0.2410430908203125,0.12945556640625
1740006935853314000,0.14131396484375,-1.213226318359375,-0.2497406005859375,0.2035369873046875
1740006935863295200,0.151295166015625,-1.2122955322265625,-0.2638397216796875,0.4472198486328125
1740006935873277200,0.161277099609375,-1.2698211669921875,-0.2135162353515625,0.614013671875
1740006935883259400,0.17125927734375,-1.276824951171875,-0.071380615234375,0.48162841796875
1740006935893241900,0.181241943359375,-1.2718505859375,-0.06256103515625,0.458587646484375
1740006935903222800,0.191222900390625,-1.3040771484375,-0.0449981689453125,0.3848724365234375
1740006935913205000,0.201205078125,-1.3014373779296875,-0.026763916015625,0.3550872802734375
1740006935923186700,0.211186767578125,-1.3156585693359375,0.0029449462890625,0.35888671875
1740006935933169000,0.2211689453125,-1.327728271484375,0.03778076171875,0.3964996337890625
1740006935943149800,0.23114990234375,-1.34722900390625,0.063934326171875,0.458160400390625
1740006935953132000,0.241132080078125,-1.3474578857421875,0.07196044921875,0.4833221435546875
1740006935963113700,0.25111376953125,-1.3282623291015625,0.0743255615234375,0.4932098388671875
1740006935973096000,0.261095947265625,-1.2763214111328125,0.0850830078125,0.4815216064453125
1740006935983078000,0.271077880859375,-1.227264404296875,0.069671630859375,0.457733154296875
1740006935993058800,0.281058837890625,-1.1566162109375,0.03778076171875,0.371337890625
1740006936003040800,0.291040771484375,-1.051513671875,0.045654296875,0.3247833251953125
1740006936013023000,0.30102294921875,-0.9600830078125,0.057586669921875,0.268310546875
1740006936023004700,0.311004638671875,-0.8685760498046875,0.1041259765625,0.208709716796875
1740006936032985900,0.32098583984375,-0.759368896484375,0.033721923828125,0.2808837890625
1740006936042967800,0.3309677734375,-0.67535400390625,-0.0160675048828125,0.34393310546875
1740006936052950000,0.340949951171875,-0.658843994140625,-0.045166015625,0.454833984375
1740006936062931700,0.350931640625,-0.64617919921875,-0.1075286865234375,0.556793212890625
1740006936072913000,0.360912841796875,-0.6159515380859375,-0.1546173095703125,0.524932861328125
1740006936082894800,0.370894775390625,-0.5805816650390625,-0.1702117919921875,0.4760589599609375
1740006936092876800,0.380876708984375,-0.5508575439453125,-0.1640472412109375,0.441925048828125
1740006936102858800,0.390858642578125,-0.509246826171875,-0.154388427734375,0.4506683349609375
1740006936112840000,0.40083984375,-0.4698333740234375,-0.1391143798828125,0.5008544921875
1740006936122822000,0.41082177734375,-0.2945098876953125,-0.0258026123046875,0.623291015625
1740006936132803800,0.420803955078125,-0.10833740234375,0.0543365478515625,0.7343292236328125
1740006936142785800,0.430785888671875,-0.06268310546875,-0.0230560302734375,0.689178466796875
1740006936152767000,0.44076708984375,-0.1720428466796875,-0.1827239990234375,0.485443115234375
1740006936162749000,0.4507490234375,-0.5335540771484375,-0.386993408203125,0.2230682373046875
1740006936172731000,0.46073095703125,-0.3939666748046875,-0.302734375,0.233245849609375
1740006936182712800,0.470712890625,-0.339385986328125,-0.24945068359375,0.233551025390625
1740006936192694000,0.480694091796875,-0.419097900390625,-0.3079376220703125,0.1377410888671875
1740006936202675700,0.49067578125,-0.5290069580078125,-0.4197998046875,-0.022674560546875
1740006936212658000,0.500657958984375,-0.62744140625,-0.49627685546875,-0.1340179443359375
1740006936222639900,0.510639892578125,-0.612213134765625,-0.4240875244140625,-0.1268768310546875
1740006936232621800,0.520621826171875,-0.5757293701171875,-0.2450103759765625,0.037750244140625
1740006936242602800,0.530602783203125,-0.580169677734375,-0.1182098388671875,0.258453369140625
1740006936252585000,0.5405849609375,-0.5738677978515625,-0.061065673828125,0.4048919677734375
1740006936262567000,0.55056689453125,-0.5375823974609375,-0.0465240478515625,0.5171661376953125
1740006936272548900,0.560548828125,-0.48931884765625,-0.044281005859375,0.5830841064453125
1740006936282529800,0.57052978515625,-0.465728759765625,-0.0659942626953125,0.5609130859375
1740006936292512000,0.580511962890625,-0.4367218017578125,-0.103546142578125,0.51947021484375
1740006936302493700,0.59049365234375,-0.415008544921875,-0.1511993408203125,0.5190887451171875
1740006936312476000,0.600475830078125,-0.3929901123046875,-0.1657257080078125,0.4989776611328125
1740006936322456800,0.610456787109375,-0.34234619140625,-0.1207733154296875,0.4807281494140625
1740006936332439000,0.62043896484375,-0.3453521728515625,-0.0404815673828125,0.478912353515625
1740006936342420700,0.630420654296875,-0.4102783203125,0.026763916015625,0.448089599609375
1740006936352403000,0.64040283203125,-0.495086669921875,0.0561981201171875,0.42816162109375
1740006936362384000,0.6503837890625,-0.5116424560546875,0.0635223388671875,0.51129150390625
1740006936372365800,0.66036572265625,-0.4830322265625,0.0991668701171875,0.67291259765625
1740006936382347800,0.67034765625,-0.4868011474609375,0.165771484375,0.8260955810546875
1740006936392330000,0.680330078125,-0.5162506103515625,0.2265777587890625,0.93817138671875
1740006936402311700,0.690311767578125,-0.50408935546875,0.2779083251953125,0.992462158203125
1740006936412292600,0.700292724609375,-0.4118804931640625,0.319976806640625,0.975830078125
1740006936422274800,0.71027490234375,-0.3087615966796875,0.3323822021484375,0.9275054931640625
1740006936432257000,0.720257080078125,-0.2762603759765625,0.336700439453125,0.9042816162109375
1740006936442238700,0.73023876953125,-0.31829833984375,0.3701019287109375,0.9604644775390625
1740006936452219600,0.7402197265625,-0.38873291015625,0.4287872314453125,1.09625244140625
1740006936462201900,0.750201904296875,-0.45501708984375,0.4921112060546875,1.28997802734375
1740006936472184000,0.76018408203125,-0.51605224609375,0.525848388671875,1.468109130859375
1740006936482165800,0.770165771484375,-0.52154541015625,0.5463104248046875,1.5746917724609375
1740006936492146700,0.780146728515625,-0.5030364990234375,0.5761566162109375,1.663177490234375
1740006936502129000,0.79012890625,-0.488128662109375,0.604522705078125,1.7433624267578125
1740006936512110800,0.80011083984375,-0.4842071533203125,0.605316162109375,1.8031768798828125
1740006936522092800,0.8100927734375,-0.491241455078125,0.5758209228515625,1.852569580078125
1740006936532073700,0.82007373046875,-0.50653076171875,0.5384368896484375,1.9069366455078125
1740006936542056000,0.830055908203125,-0.53436279296875,0.4945526123046875,1.9429473876953125
1740006936552037600,0.84003759765625,-0.5641632080078125,0.4695281982421875,1.9630889892578125
1740006936562019800,0.850019775390625,-0.580810546875,0.4433746337890625,1.96478271484375
1740006936572002000,0.860001953125,-0.603363037109375,0.4029083251953125,1.9688873291015625
1740006936581983000,0.86998291015625,-0.6481475830078125,0.365814208984375,1.95391845703125
1740006936591964700,0.879964599609375,-0.686492919921875,0.322265625,1.90216064453125
1740006936601947000,0.88994677734375,-0.7039031982421875,0.272216796875,1.8441314697265625
1740006936611928800,0.8999287109375,-0.719757080078125,0.2395782470703125,1.8228302001953125
1740006936621909800,0.90990966796875,-0.74017333984375,0.195343017578125,1.8296356201171875
1740006936631891700,0.9198916015625,-0.7741241455078125,0.149810791015625,1.8496246337890625
1740006936641874000,0.9298740234375,-0.80694580078125,0.11676025390625,1.8608551025390625
1740006936651856000,0.93985595703125,-0.8141326904296875,0.04034423828125,1.787750244140625
1740006936661836800,0.9498369140625,-0.8022613525390625,-0.013580322265625,1.654296875
1740006936671818800,0.95981884765625,-0.7694244384765625,-0.022796630859375,1.5352630615234375
1740006936681801000,0.969801025390625,-0.7184906005859375,-0.0378570556640625,1.4163818359375
1740006936691782700,0.97978271484375,-0.6548919677734375,-0.0604248046875,1.29083251953125
1740006936701763800,0.989763916015625,-0.5891571044921875,-0.077484130859375,1.1623992919921875
1740006936711745800,0.999745849609375,-0.5197906494140625,-0.0919189453125,1.0475921630859375
1740006936721727700,1.009727783203125,-0.459747314453125,-0.1109619140625,0.9498443603515625
1740006936731709700,1.019709716796875,-0.41015625,-0.141387939453125,0.8833160400390625
1740006936741692000,1.02969189453125,-0.369384765625,-0.1688995361328125,0.86669921875
1740006936751672800,1.0396728515625,-0.3421630859375,-0.192169189453125,0.8763427734375
1740006936761654800,1.04965478515625,-0.3147735595703125,-0.2018280029296875,0.89215087890625
1740006936771636700,1.05963671875,-0.2945404052734375,-0.212799072265625,0.870025634765625
1740006936781619000,1.069618896484375,-0.2703399658203125,-0.2342987060546875,0.8017578125
1740006936791599900,1.079599853515625,-0.2319793701171875,-0.2509307861328125,0.7269439697265625
1740006936801581800,1.089581787109375,-0.1939697265625,-0.2459869384765625,0.672454833984375
1740006936811563800,1.099563720703125,-0.17626953125,-0.231201171875,0.6343536376953125
1740006936821545700,1.109545654296875,-0.1882476806640625,-0.2278289794921875,0.621917724609375
1740006936831526700,1.119526611328125,-0.207977294921875,-0.218780517578125,0.6010894775390625
1740006936841508900,1.1295087890625,-0.223236083984375,-0.19537353515625,0.59649658203125
1740006936851490800,1.13949072265625,-0.230010986328125,-0.243133544921875,0.634368896484375
1740006936861472800,1.14947265625,-0.2376251220703125,-0.28143310546875,0.630035400390625
1740006936871454700,1.159454833984375,-0.2317352294921875,-0.2462310791015625,0.6063385009765625
1740006936881436000,1.169435791015625,-0.2239227294921875,-0.206390380859375,0.55108642578125
1740006936891417900,1.17941796875,-0.2473297119140625,-0.2631072998046875,0.6854400634765625
1740006936901399800,1.18939990234375,-0.2494049072265625,-0.30169677734375,0.758026123046875
1740006936911382000,1.199382080078125,-0.2298431396484375,-0.29132080078125,0.8227996826171875
1740006936921363000,1.209363037109375,-0.21331787109375,-0.2749481201171875,0.881744384765625
1740006936931345000,1.219344970703125,-0.201812744140625,-0.278045654296875,0.86700439453125
1740006936941326800,1.229326904296875,-0.184661865234375,-0.272796630859375,0.857818603515625
1740006936951309000,1.23930908203125,-0.16064453125,-0.24298095703125,0.89849853515625
1740006936961290000,1.2492900390625,-0.147064208984375,-0.210662841796875,0.951171875
1740006936971272000,1.25927197265625,-0.14141845703125,-0.183319091796875,1.0187530517578125
1740006936981254000,1.26925390625,-0.1228790283203125,-0.1522064208984375,1.071624755859375
1740006936991236000,1.279236083984375,-0.0985870361328125,-0.121246337890625,1.099334716796875
1740006937001216800,1.289216796875,-0.108978271484375,-0.0857086181640625,1.1193389892578125
1740006937011199000,1.299198974609375,-0.1676177978515625,-0.0521697998046875,1.1688690185546875
1740006937021181000,1.309180908203125,-0.151641845703125,-0.0367431640625,1.1455078125
1740006937031163000,1.319162841796875,-0.1417694091796875,-0.0247344970703125,1.1475677490234375
1740006937041143800,1.329143798828125,-0.1877899169921875,-0.0046844482421875,1.2005157470703125
1740006937051126000,1.3391259765625,-0.2084197998046875,0.0283966064453125,1.2369842529296875
1740006937061108000,1.34910791015625,-0.23046875,0.0447845458984375,1.2593841552734375
1740006937071090000,1.35908984375,-0.257171630859375,0.0655670166015625,1.2833709716796875
1740006937081071900,1.36907177734375,-0.2471771240234375,0.0981903076171875,1.3114471435546875
1740006937091053000,1.379052978515625,-0.2980194091796875,0.146148681640625,1.35064697265625
1740006937101034800,1.38903466796875,-0.3221435546875,0.1741180419921875,1.4002532958984375
1740006937111017000,1.399016845703125,-0.305572509765625,0.1670684814453125,1.474090576171875
1740006937120999000,1.4089990234375,-0.2747650146484375,0.1766815185546875,1.54925537109375
1740006937130980000,1.41897998046875,-0.272125244140625,0.28369140625,1.6431884765625
1740006937140961800,1.4289619140625,-0.2636260986328125,0.429229736328125,1.79998779296875
1740006937150944000,1.438944091796875,-0.2541656494140625,0.5404205322265625,1.9573974609375
1740006937160926000,1.448926025390625,-0.2693328857421875,0.537933349609375,2.0264129638671875
1740006937170908000,1.458907958984375,-0.3034210205078125,0.437408447265625,2.0318756103515625
1740006937180888800,1.468888916015625,-0.3446807861328125,0.3260498046875,2.0655670166015625
1740006937190871000,1.47887109375,-0.40911865234375,0.2592315673828125,2.19964599609375
1740006937200853000,1.48885302734375,-0.45477294921875,0.18035888671875,2.233612060546875
1740006937210835000,1.4988349609375,-0.4873504638671875,0.146240234375,2.2183074951171875
1740006937220816000,1.50881591796875,-0.48486328125,0.2633819580078125,2.295257568359375
1740006937230798000,1.518798095703125,-0.4290771484375,0.471435546875,2.4052886962890625
1740006937240779800,1.52877978515625,-0.3555908203125,0.6298828125,2.3946685791015625
1740006937250762000,1.538761962890625,-0.2847900390625,0.7054443359375,2.2062835693359375
1740006937260743000,1.548742919921875,-0.2279510498046875,0.75030517578125,1.9604644775390625
1740006937270725000,1.55872509765625,-0.17510986328125,0.7423095703125,1.7136383056640625
1740006937280706800,1.568706787109375,-0.0863494873046875,0.63128662109375,1.4459075927734375
1740006937290689000,1.57868896484375,-0.035400390625,0.4903411865234375,1.31097412109375
1740006937300671000,1.5886708984375,0.029266357421875,0.4021453857421875,1.2931365966796875
1740006937310652000,1.59865185546875,0.074920654296875,0.364715576171875,1.321563720703125
1740006937320633900,1.6086337890625,0.0720977783203125,0.333587646484375,1.3629302978515625
1740006937330616000,1.618615966796875,0.042633056640625,0.3175201416015625,1.379150390625
1740006937340597800,1.62859765625,-0.003875732421875,0.32861328125,1.3532867431640625
1740006937350579000,1.638578857421875,-0.0632781982421875,0.343109130859375,1.2996673583984375
1740006937360561000,1.648560791015625,-0.1099395751953125,0.356658935546875,1.2237091064453125
1740006937370543000,1.658543212890625,-0.1502227783203125,0.3821563720703125,1.1499176025390625
1740006937380524800,1.66852490234375,-0.193115234375,0.3964385986328125,1.0626678466796875
1740006937390506000,1.678506103515625,-0.2462005615234375,0.41162109375,1.00433349609375
1740006937400488000,1.688488037109375,-0.3036956787109375,0.39227294921875,1.0030670166015625
1740006937410470000,1.698469970703125,-0.3153533935546875,0.3889923095703125,0.9920806884765625
1740006937420451800,1.708451904296875,-0.2681884765625,0.4526824951171875,0.9503173828125
1740006937430434000,1.71843408203125,-0.202301025390625,0.560577392578125,0.8615570068359375
1740006937440415000,1.7284150390625,-0.122894287109375,0.7030029296875,0.66217041015625
1740006937450397000,1.73839697265625,-0.0242767333984375,0.8562164306640625,0.383026123046875
1740006937460379000,1.74837890625,0.1031646728515625,0.8959503173828125,0.043914794921875
1740006937470361000,1.758361083984375,0.1977081298828125,0.81488037109375,-0.236785888671875
1740006937480342000,1.768342041015625,0.1896514892578125,0.7274017333984375,-0.3184356689453125
1740006937490324000,1.778323974609375,0.1068878173828125,0.6940155029296875,-0.16815185546875
1740006937500306000,1.788305908203125,0.007843017578125,0.697296142578125,0.09197998046875
1740006937510288100,1.7982880859375,-0.0590667724609375,0.7119140625,0.3400115966796875
1740006937520268800,1.808268798828125,-0.10174560546875,0.722412109375,0.5536041259765625
1740006937530251000,1.8182509765625,-0.118804931640625,0.7439117431640625,0.70074462890625
1740006937540233000,1.82823291015625,-0.1229248046875,0.782318115234375,0.7959136962890625
1740006937550215000,1.83821484375,-0.1446380615234375,0.8089141845703125,0.8585205078125
1740006937560196900,1.84819677734375,-0.151702880859375,0.813201904296875,0.885986328125
1740006937570178000,1.858177978515625,-0.1343841552734375,0.8331298828125,0.91729736328125
1740006937580160000,1.868159912109375,-0.1160888671875,0.878936767578125,0.9716796875
1740006937590142000,1.878141845703125,-0.11212158203125,0.9164276123046875,1.03106689453125
1740006937600124000,1.8881240234375,-0.1079254150390625,0.9465789794921875,1.0994873046875
1740006937610105000,1.89810498046875,-0.0926361083984375,0.9822235107421875,1.152252197265625
1740006937620086800,1.908086669921875,-0.0958251953125,1.0014495849609375,1.197479248046875
1740006937630069000,1.918069091796875,-0.1123504638671875,0.9842376708984375,1.19927978515625
1740006937640051000,1.928051025390625,-0.125030517578125,0.9357452392578125,1.1566162109375
1740006937650032000,1.9380322265625,-0.13323974609375,0.8832244873046875,1.090667724609375
1740006937660013800,1.948013916015625,-0.1152801513671875,0.8405609130859375,1.058258056640625
1740006937669996000,1.95799609375,-0.04595947265625,0.8376922607421875,1.055877685546875
1740006937679978000,1.96797802734375,0.042633056640625,0.8531036376953125,1.0688629150390625
1740006937689960000,1.9779599609375,0.108917236328125,0.85626220703125,1.08673095703125
1740006937699940900,1.98794091796875,0.14093017578125,0.8309478759765625,1.146026611328125
1740006937709923000,1.997923095703125,0.1441497802734375,0.8011016845703125,1.244537353515625
1740006937719905000,2.007905029296875,0.14227294921875,0.8027496337890625,1.3196563720703125
1740006937729887000,2.017886962890625,0.1104736328125,0.7982025146484375,1.40386962890625
1740006937739868000,2.027867919921875,0.08563232421875,0.8084869384765625,1.51690673828125
1740006937749850000,2.03785009765625,0.076202392578125,0.8298797607421875,1.5883331298828125
1740006937759831800,2.047831787109375,0.04132080078125,0.8037872314453125,1.6029510498046875
1740006937769814000,2.05781396484375,-0.01275634765625,0.7291412353515625,1.6296234130859375
1740006937779796000,2.0677958984375,-0.0900115966796875,0.6434783935546875,1.730499267578125
1740006937789777200,2.077777099609375,-0.1681976318359375,0.56109619140625,1.8966217041015625
1740006937799758800,2.0877587890625,-0.238037109375,0.468597412109375,2.032867431640625
1740006937809741000,2.097740966796875,-0.32733154296875,0.341888427734375,2.043365478515625
1740006937819723000,2.107722900390625,-0.3475799560546875,0.254241943359375,2.0214996337890625
1740006937829704000,2.117703857421875,-0.340850830078125,0.1677093505859375,1.945709228515625
1740006937839686000,2.127685791015625,-0.32586669921875,0.079437255859375,1.7884674072265625
1740006937849668000,2.137668212890625,-0.2901458740234375,0.035064697265625,1.6202545166015625
1740006937859649800,2.14764990234375,-0.2510223388671875,0.01837158203125,1.4773712158203125
1740006937869631000,2.157630859375,-0.2039031982421875,0.02655029296875,1.3583526611328125
1740006937879613000,2.167613037109375,-0.1824951171875,0.04266357421875,1.3022613525390625
1740006937889595100,2.17759521484375,-0.191162109375,0.05596923828125,1.30255126953125
1740006937899576300,2.187576416015625,-0.1839752197265625,0.0488128662109375,1.30145263671875
1740006937909558300,2.197558349609375,-0.1540374755859375,0.042755126953125,1.3181304931640625
1740006937919539200,2.207539306640625,-0.1094512939453125,0.0301513671875,1.3291168212890625
1740006937929521400,2.217521484375,-0.057525634765625,0.010650634765625,1.301727294921875
1740006937939503400,2.22750341796875,-0.008941650390625,-0.0029296875,1.24114990234375
1740006937949485300,2.2374853515625,0.04180908203125,-0.0041351318359375,1.172332763671875
1740006937959466200,2.24746630859375,0.09027099609375,-0.009246826171875,1.10931396484375
1740006937969448400,2.257448486328125,0.1423187255859375,-0.02337646484375,1.0488433837890625
1740006937979430400,2.267430419921875,0.188751220703125,-0.030242919921875,1.0285797119140625
1740006937989412400,2.277412353515625,0.2174835205078125,-0.0632171630859375,0.999298095703125
1740006937999394300,2.287394287109375,0.2294769287109375,-0.0809326171875,0.961761474609375
1740006938009375200,2.297375244140625,0.211029052734375,-0.0607452392578125,0.9701385498046875
1740006938019357400,2.307357421875,0.1827392578125,-0.064697265625,0.9875335693359375
1740006938029339400,2.31733935546875,0.17510986328125,-0.066070556640625,1.0183563232421875
1740006938039321300,2.3273212890625,0.17413330078125,-0.041748046875,1.064208984375
1740006938049302300,2.33730224609375,0.1678619384765625,0.015899658203125,1.1147003173828125
1740006938059284500,2.347284423828125,0.1674652099609375,0.050445556640625,1.1334991455078125
1740006938069266400,2.357266357421875,0.142425537109375,0.062774658203125,1.1714630126953125
1740006938079248400,2.367248291015625,0.1138458251953125,0.0528564453125,1.2512359619140625
1740006938089229300,2.377229248046875,0.1204376220703125,0.0471954345703125,1.3499603271484375
1740006938099211300,2.387211181640625,0.1107025146484375,0.02294921875,1.42926025390625
1740006938109193200,2.397193115234375,0.1090087890625,-0.0393524169921875,1.4780120849609375
1740006938119175400,2.407175537109375,0.121246337890625,-0.09942626953125,1.5020599365234375
1740006938129157400,2.417157470703125,0.1324462890625,-0.1182861328125,1.5572052001953125
1740006938139138300,2.42713818359375,0.1315460205078125,-0.10028076171875,1.719482421875
1740006938149120300,2.437120361328125,0.1256866455078125,-0.057464599609375,1.881988525390625
1740006938159102500,2.4471025390625,0.1126861572265625,0.009857177734375,1.98333740234375
1740006938169084400,2.45708447265625,0.0602264404296875,0.0730743408203125,2.001708984375
1740006938179065300,2.4670654296875,-0.019378662109375,0.10357666015625,1.9414825439453125
1740006938189047300,2.47704736328125,-0.0859527587890625,0.1130523681640625,1.8189697265625
1740006938199029500,2.487029541015625,-0.1518096923828125,0.099029541015625,1.6719970703125
1740006938209011200,2.49701123046875,-0.220794677734375,0.0753021240234375,1.572784423828125
1740006938218993400,2.506993408203125,-0.26373291015625,0.0762786865234375,1.54034423828125
1740006938228974300,2.516974365234375,-0.2535400390625,0.1028289794921875,1.5877685546875
1740006938238956300,2.526956298828125,-0.2313690185546875,0.1413726806640625,1.6844482421875
1740006938248938200,2.536938232421875,-0.2194061279296875,0.194427490234375,1.79925537109375
1740006938258920400,2.54692041015625,-0.2137603759765625,0.274383544921875,1.9112548828125
1740006938268901400,2.5569013671875,-0.17364501953125,0.376068115234375,2.0283660888671875
1740006938278883300,2.56688330078125,-0.0842132568359375,0.55810546875,2.16558837890625
1740006938288865300,2.576865234375,0.037384033203125,0.7285919189453125,2.2259674072265625
1740006938298847500,2.586847412109375,0.1938323974609375,0.7818603515625,2.1437225341796875
1740006938308829200,2.5968291015625,0.3145599365234375,0.8202667236328125,1.969085693359375
1740006938318810000,2.60681005859375,0.38330078125,0.8647308349609375,1.791229248046875
1740006938328792300,2.616792236328125,0.4394989013671875,0.883209228515625,1.6442718505859375
1740006938338774500,2.6267744140625,0.4664306640625,0.877410888671875,1.521392822265625
1740006938348756200,2.636756103515625,0.4394683837890625,0.85546875,1.4522552490234375
1740006938358737200,2.646737060546875,0.3536224365234375,0.8133087158203125,1.462646484375
1740006938368719400,2.65671923828125,0.2479705810546875,0.7655792236328125,1.5189208984375
1740006938378701600,2.66670166015625,0.1781463623046875,0.72119140625,1.5709381103515625
1740006938388683300,2.676683349609375,0.1529541015625,0.7211151123046875,1.5979156494140625
1740006938398665500,2.68666552734375,0.1209259033203125,0.75225830078125,1.6052093505859375
1740006938408646400,2.696646484375,0.0625,0.7751922607421875,1.5709991455078125
1740006938418628000,2.706628173828125,0.0012969970703125,0.7849578857421875,1.5092315673828125
1740006938428610300,2.7166103515625,-0.0472564697265625,0.789459228515625,1.443389892578125
1740006938438592500,2.726592529296875,-0.083526611328125,0.791656494140625,1.3818206787109375
1740006938448573400,2.736573486328125,-0.124267578125,0.7781982421875,1.328277587890625
1740006938458555100,2.74655517578125,-0.1524658203125,0.7751312255859375,1.290985107421875
1740006938468537300,2.756537353515625,-0.1732025146484375,0.781646728515625,1.2683563232421875
1740006938478519600,2.76651953125,-0.176239013671875,0.7941436767578125,1.252655029296875
1740006938488501200,2.776501220703125,-0.1756134033203125,0.8037872314453125,1.2212677001953125
1740006938498482200,2.786482177734375,-0.168731689453125,0.803924560546875,1.1664581298828125
1740006938508464400,2.79646435546875,-0.156280517578125,0.7879791259765625,1.09393310546875
1740006938518446300,2.8064462890625,-0.13592529296875,0.7776641845703125,1.0363006591796875
1740006938528428300,2.81642822265625,-0.114349365234375,0.7752532958984375,0.9932708740234375
1740006938538409200,2.8264091796875,-0.0967864990234375,0.762939453125,0.9398040771484375
1740006938548391400,2.836391357421875,-0.076416015625,0.74188232421875,0.88079833984375
1740006938558373000,2.846373046875,-0.05108642578125,0.715484619140625,0.8301849365234375
1740006938568355300,2.856355224609375,-0.021270751953125,0.691680908203125,0.782562255859375
1740006938578337500,2.866337646484375,0.00640869140625,0.6743316650390625,0.72479248046875
1740006938588318500,2.876318359375,0.046142578125,0.6925811767578125,0.635772705078125
1740006938598300200,2.886300048828125,0.0939178466796875,0.7448577880859375,0.4886474609375
1740006938608282400,2.896282470703125,0.169342041015625,0.8022613525390625,0.308074951171875
1740006938618264300,2.906264404296875,0.2609405517578125,0.8346405029296875,0.173980712890625
1740006938628245200,2.916245361328125,0.334381103515625,0.843658447265625,0.1305694580078125
1740006938638227200,2.926227294921875,0.3741912841796875,0.8504638671875,0.1506805419921875
1740006938648209400,2.93620947265625,0.376800537109375,0.858306884765625,0.21478271484375
1740006938658191400,2.94619140625,0.36749267578125,0.858245849609375,0.280853271484375
1740006938668173300,2.95617333984375,0.3495025634765625,0.847686767578125,0.342987060546875
1740006938678154200,2.966154296875,0.28509521484375,0.83837890625,0.431427001953125
1740006938688136400,2.976136474609375,0.179168701171875,0.837310791015625,0.540557861328125
1740006938698118400,2.986118408203125,0.0633697509765625,0.849853515625,0.6439056396484375
1740006938708100400,2.996100341796875,-0.0284576416015625,0.869110107421875,0.743621826171875
1740006938718081300,3.006081298828125,-0.097320556640625,0.888763427734375,0.8427886962890625
1740006938728063200,3.016063232421875,-0.1394500732421875,0.9140472412109375,0.9019012451171875
1740006938738045200,3.026045166015625,-0.1560516357421875,0.9482879638671875,0.951873779296875
1740006938748027400,3.03602734375,-0.1452178955078125,0.997955322265625,1.023040771484375
1740006938758009300,3.04600927734375,-0.10150146484375,1.0443878173828125,1.1108551025390625
1740006938767990300,3.055990234375,-0.050384521484375,1.075286865234375,1.24114990234375
1740006938777972200,3.06597216796875,-0.0068206787109375,1.0933685302734375,1.3817138671875
1740006938787954400,3.075954345703125,0.0361175537109375,1.10321044921875,1.56134033203125
1740006938797936400,3.085936279296875,0.086273193359375,1.133087158203125,1.772216796875
1740006938807917300,3.095917236328125,0.1301727294921875,1.144989013671875,1.939605712890625
1740006938817899300,3.105899169921875,0.15802001953125,1.1184234619140625,2.06512451171875
1740006938827881200,3.115881103515625,0.1685638427734375,1.0787200927734375,2.1224365234375
1740006938837863400,3.125863525390625,0.1328582763671875,1.0328216552734375,2.1396484375
1740006938847845400,3.135845458984375,0.065643310546875,0.9785308837890625,2.137451171875
1740006938857826300,3.145826416015625,0.010162353515625,0.9154205322265625,2.1119842529296875
1740006938867808300,3.155808349609375,-0.0198822021484375,0.8432464599609375,2.084625244140625
1740006938877790200,3.165790283203125,-0.0122222900390625,0.7694244384765625,2.0408782958984375
1740006938887772400,3.1757724609375,0.0312347412109375,0.696868896484375,1.967041015625
1740006938897753600,3.185753662109375,0.0829315185546875,0.646392822265625,1.876556396484375
1740006938907735300,3.1957353515625,0.1224212646484375,0.614013671875,1.80145263671875
1740006938917717500,3.205717529296875,0.127899169921875,0.5792388916015625,1.73797607421875
1740006938927699500,3.215699462890625,0.1285552978515625,0.5435791015625,1.67291259765625
1740006938937681400,3.225681396484375,0.135833740234375,0.50885009765625,1.6198272705078125
1740006938947662300,3.235662353515625,0.150390625,0.46636962890625,1.57611083984375
1740006938957644500,3.24564453125,0.175079345703125,0.4142608642578125,1.5331573486328125
1740006938967626500,3.25562646484375,0.207611083984375,0.3802947998046875,1.505462646484375
1740006938977608400,3.2656083984375,0.2484283447265625,0.3593597412109375,1.492462158203125
1740006938987589400,3.27558935546875,0.2767486572265625,0.3370819091796875,1.47125244140625
1740006938997571600,3.285571533203125,0.282562255859375,0.2932891845703125,1.4281005859375
1740006939007553300,3.29555322265625,0.2922515869140625,0.2521820068359375,1.3919219970703125
1740006939017535500,3.305535400390625,0.3073272705078125,0.2237701416015625,1.3729705810546875
1740006939027517400,3.315517333984375,0.3212738037109375,0.203765869140625,1.3582611083984375
1740006939037498400,3.325498291015625,0.33538818359375,0.1862030029296875,1.335601806640625
1740006939047480300,3.335480224609375,0.355712890625,0.168731689453125,1.3052825927734375
1740006939057462500,3.345462646484375,0.37396240234375,0.149810791015625,1.2575531005859375
1740006939067444500,3.355444580078125,0.3864898681640625,0.134368896484375,1.2259063720703125
1740006939077425400,3.36542529296875,0.4036407470703125,0.140045166015625,1.2086334228515625
1740006939087407400,3.375407470703125,0.4168548583984375,0.1609649658203125,1.1883087158203125
1740006939097389600,3.3853896484375,0.405426025390625,0.1747589111328125,1.1699371337890625
1740006939107371500,3.39537158203125,0.391815185546875,0.1820068359375,1.1553192138671875
1740006939117353500,3.405353515625,0.3766632080078125,0.1859283447265625,1.1543426513671875
1740006939127334400,3.41533447265625,0.352386474609375,0.179443359375,1.1575775146484375
1740006939137316400,3.42531640625,0.3248138427734375,0.171173095703125,1.1850738525390625
1740006939147298600,3.435298583984375,0.29766845703125,0.160491943359375,1.2398681640625
1740006939157280500,3.445280517578125,0.2838897705078125,0.144317626953125,1.288116455078125
1740006939167261400,3.455261474609375,0.265625,0.1400604248046875,1.3600921630859375
1740006939177243400,3.465243408203125,0.2347869873046875,0.149444580078125,1.4690093994140625
1740006939187225300,3.475225341796875,0.2318115234375,0.1532135009765625,1.566009521484375
1740006939197207600,3.48520751953125,0.2332611083984375,0.1836700439453125,1.670196533203125
1740006939207189500,3.495189453125,0.20355224609375,0.20257568359375,1.7386474609375
1740006939217170400,3.50517041015625,0.165618896484375,0.1674041748046875,1.7426300048828125
1740006939227152400,3.51515234375,0.1432037353515625,0.13330078125,1.72747802734375
1740006939237134300,3.52513427734375,0.1246490478515625,0.1122283935546875,1.704864501953125
1740006939247116500,3.535116455078125,0.0966339111328125,0.0926055908203125,1.679931640625
1740006939257098500,3.545098388671875,0.07379150390625,0.0600433349609375,1.6212921142578125
1740006939267079400,3.555079345703125,0.0617523193359375,0.0430450439453125,1.5612640380859375
1740006939277061400,3.565061279296875,0.0650482177734375,0.0667877197265625,1.55072021484375
1740006939287043600,3.575043701171875,0.0895233154296875,0.1339111328125,1.574462890625
1740006939297025500,3.585025634765625,0.134368896484375,0.2125091552734375,1.5820159912109375
1740006939307006500,3.59500634765625,0.18218994140625,0.2880706787109375,1.5868682861328125
1740006939316988400,3.604988525390625,0.2099761962890625,0.374359130859375,1.6268768310546875
1740006939326970400,3.614970458984375,0.238800048828125,0.4976959228515625,1.69482421875
1740006939336952300,3.624952392578125,0.253753662109375,0.6247406005859375,1.7633056640625
1740006939346934500,3.6349345703125,0.2512664794921875,0.751434326171875,1.812225341796875
1740006939356915500,3.64491552734375,0.2349395751953125,0.8651580810546875,1.8425750732421875
1740006939366897400,3.6548974609375,0.20892333984375,0.94622802734375,1.836822509765625
1740006939376879400,3.66487939453125,0.17974853515625,1.006011962890625,1.8087921142578125
1740006939386861600,3.674861572265625,0.1232147216796875,1.0335540771484375,1.748016357421875
1740006939396842500,3.684842529296875,0.050872802734375,1.01483154296875,1.65582275390625
1740006939406824400,3.694824462890625,0.01348876953125,0.9686279296875,1.55877685546875
1740006939416806400,3.704806396484375,0.024169921875,0.9178466796875,1.4609527587890625
1740006939426788600,3.71478857421875,0.030181884765625,0.890594482421875,1.3825531005859375
1740006939436770600,3.7247705078125,0.0175628662109375,0.8660430908203125,1.381103515625
1740006939446751200,3.734751220703125,-0.0087738037109375,0.82476806640625,1.3922576904296875
1740006939456733400,3.7447333984375,-0.01873779296875,0.771697998046875,1.349090576171875
1740006939466715600,3.754715576171875,0.0009613037109375,0.72576904296875,1.3179473876953125
1740006939476697300,3.764697265625,0.034881591796875,0.7012939453125,1.31610107421875
1740006939486679600,3.774679443359375,0.0621490478515625,0.6993255615234375,1.32110595703125
1740006939496660500,3.784660400390625,0.0610198974609375,0.696563720703125,1.3232269287109375
1740006939506642400,3.794642333984375,0.042205810546875,0.6908721923828125,1.30621337890625
1740006939516624400,3.804624267578125,0.026031494140625,0.6810455322265625,1.277435302734375
1740006939526606600,3.814606689453125,0.0063629150390625,0.67706298828125,1.2444000244140625
1740006939536587500,3.82458740234375,-0.0111236572265625,0.6843109130859375,1.219024658203125
1740006939546569500,3.834569580078125,-0.0294342041015625,0.7006683349609375,1.2050323486328125
1740006939556551400,3.844551513671875,-0.0380401611328125,0.719268798828125,1.1920166015625
1740006939566533600,3.85453369140625,-0.0490570068359375,0.7413177490234375,1.180511474609375
1740006939576515300,3.864515380859375,-0.0560760498046875,0.75750732421875,1.1552886962890625
1740006939586496300,3.874496337890625,-0.0673828125,0.7581634521484375,1.1193084716796875
1740006939596478500,3.884478515625,-0.0662689208984375,0.75439453125,1.0818328857421875
1740006939606460700,3.894460693359375,-0.0604095458984375,0.7514495849609375,1.041015625
1740006939616442400,3.9044423828125,-0.048492431640625,0.7491912841796875,1.004638671875
1740006939626424600,3.914424560546875,-0.0345916748046875,0.7426300048828125,0.968109130859375
1740006939636406500,3.924406494140625,-0.0166168212890625,0.7436981201171875,0.9442291259765625
1740006939646388500,3.934388427734375,0.00396728515625,0.7640838623046875,0.94354248046875
1740006939656370400,3.944370361328125,0.0244293212890625,0.7922821044921875,0.9447174072265625
1740006939666351600,3.9543515625,0.03924560546875,0.8071746826171875,0.928802490234375
1740006939676333300,3.964333251953125,0.0501251220703125,0.8067169189453125,0.9029693603515625
1740006939686315500,3.9743154296875,0.0597686767578125,0.807861328125,0.8755645751953125
1740006939696297500,3.98429736328125,0.0628509521484375,0.81256103515625,0.84783935546875
1740006939706279400,3.994279541015625,0.0673828125,0.8212127685546875,0.83319091796875
1740006939716260400,4.00426025390625,0.0685272216796875,0.8297576904296875,0.8130950927734375
1740006939726242600,4.01424267578125,0.063629150390625,0.8181915283203125,0.7675933837890625
1740006939736224500,4.024224609375,0.046905517578125,0.782318115234375,0.7029876708984375
1740006939746206500,4.03420654296875,0.0260772705078125,0.7416534423828125,0.636505126953125
1740006939756188400,4.0441884765625,0.006500244140625,0.7117767333984375,0.5765228271484375
1740006939766169600,4.054169677734375,-0.0064239501953125,0.6973724365234375,0.5259857177734375
1740006939776151300,4.0641513671875,-0.0042266845703125,0.693572998046875,0.4967193603515625
1740006939786133500,4.074133544921875,-0.003204345703125,0.6922454833984375,0.48577880859375
1740006939796115500,4.084115478515625,-0.0010833740234375,0.67315673828125,0.4816741943359375
1740006939806096600,4.0940966796875,0.013702392578125,0.649505615234375,0.4905548095703125
1740006939816078300,4.104078369140625,0.033416748046875,0.634429931640625,0.5381317138671875
1740006939826060500,4.114060546875,0.071868896484375,0.625823974609375,0.6119384765625
1740006939836042500,4.12404248046875,0.116455078125,0.6174774169921875,0.7027130126953125
1740006939846024400,4.1340244140625,0.1650848388671875,0.6213531494140625,0.82574462890625
1740006939856005400,4.14400537109375,0.212432861328125,0.633331298828125,0.9727020263671875
1740006939865987600,4.153987548828125,0.251068115234375,0.6456298828125,1.11614990234375
1740006939875969500,4.163969482421875,0.2799072265625,0.6569671630859375,1.245819091796875
1740006939885951500,4.173951416015625,0.304901123046875,0.658905029296875,1.3643035888671875
1740006939895933400,4.183933349609375,0.3289642333984375,0.6794586181640625,1.4699859619140625
1740006939905915000,4.193914794921875,0.339691162109375,0.6990966796875,1.5434112548828125
1740006939915896800,4.203896728515625,0.33782958984375,0.7048492431640625,1.5884552001953125
1740006939925878800,4.213878662109375,0.3170623779296875,0.7003021240234375,1.5996551513671875
1740006939935861000,4.223861083984375,0.281982421875,0.67291259765625,1.5709228515625
1740006939945841700,4.233841552734375,0.2442626953125,0.6346435546875,1.5354461669921875
1740006939955823900,4.243823974609375,0.2006683349609375,0.6066741943359375,1.5115966796875
1740006939965805800,4.253805908203125,0.147430419921875,0.58697509765625,1.506591796875
1740006939975787800,4.263787841796875,0.1019439697265625,0.557891845703125,1.510162353515625
1740006939985770000,4.27377001953125,0.0791015625,0.516693115234375,1.5181884765625
1740006939995751000,4.2837509765625,0.082794189453125,0.470458984375,1.529449462890625
1740006940005731800,4.29373193359375,0.11419677734375,0.4181365966796875,1.5312957763671875
1740006940015714000,4.303714111328125,0.1723175048828125,0.365509033203125,1.5179290771484375
1740006940025695700,4.31369580078125,0.2296142578125,0.3185272216796875,1.4966888427734375
1740006940035678000,4.323677978515625,0.281463623046875,0.275543212890625,1.4739532470703125
1740006940045660000,4.333659912109375,0.32635498046875,0.2411346435546875,1.440704345703125
1740006940055640800,4.343640869140625,0.359527587890625,0.207305908203125,1.399932861328125
1740006940065622800,4.353622802734375,0.3900604248046875,0.1785736083984375,1.3598785400390625
1740006940075605000,4.36360498046875,0.4189300537109375,0.1681365966796875,1.3438873291015625
1740006940085586700,4.373586669921875,0.46844482421875,0.1649169921875,1.3293304443359375
1740006940095568000,4.38356787109375,0.4440765380859375,0.1762847900390625,1.33642578125
1740006940105549800,4.3935498046875,0.4369354248046875,0.13427734375,1.307861328125
1740006940115532000,4.403531982421875,0.47943115234375,0.1121368408203125,1.2985382080078125
1740006940125513700,4.413513671875,0.4678955078125,0.143280029296875,1.303863525390625
1740006940135496000,4.423495849609375,0.4901580810546875,0.1441650390625,1.305206298828125
1740006940145476900,4.433476806640625,0.513092041015625,0.1525115966796875,1.320648193359375
1740006940155458800,4.443458740234375,0.541900634765625,0.1714935302734375,1.3114013671875
1740006940165440800,4.453440673828125,0.57489013671875,0.169464111328125,1.281005859375
1740006940175423000,4.463423095703125,0.601654052734375,0.163909912109375,1.220458984375
1740006940185404700,4.47340478515625,0.6158905029296875,0.1788177490234375,1.167144775390625
1740006940195385900,4.4833857421875,0.608642578125,0.203887939453125,1.141998291015625
1740006940205367800,4.493367919921875,0.5806732177734375,0.2207794189453125,1.148590087890625
1740006940215350000,4.50335009765625,0.5355224609375,0.2288970947265625,1.1917266845703125
1740006940225331700,4.513331787109375,0.47528076171875,0.230438232421875,1.2747344970703125
1740006940235313000,4.52331298828125,0.405670166015625,0.22540283203125,1.37493896484375
1740006940245294800,4.533294921875,0.34918212890625,0.2288818359375,1.4832916259765625
1740006940255276800,4.54327685546875,0.3077545166015625,0.2497406005859375,1.57806396484375
1740006940265258800,4.5532587890625,0.2596588134765625,0.2796783447265625,1.661956787109375
1740006940275241000,4.563240966796875,0.215728759765625,0.2962799072265625,1.706207275390625
1740006940285222000,4.573221923828125,0.1761932373046875,0.28961181640625,1.7079620361328125
1740006940295203800,4.583203857421875,0.146026611328125,0.264892578125,1.67388916015625
1740006940305185800,4.593185791015625,0.126312255859375,0.2289886474609375,1.598419189453125
1740006940315168000,4.60316796875,0.1055755615234375,0.1700439453125,1.48162841796875
1740006940325149700,4.613149658203125,0.076263427734375,0.1077423095703125,1.3660888671875
1740006940335131000,4.623130859375,0.056884765625,0.067474365234375,1.2894287109375
1740006940345112800,4.63311279296875,0.0550384521484375,0.06500244140625,1.2673797607421875
1740006940355094800,4.6430947265625,0.0600738525390625,0.0949249267578125,1.27606201171875
1740006940365076700,4.65307666015625,0.073944091796875,0.143280029296875,1.3011016845703125
1740006940375058000,4.663057861328125,0.090972900390625,0.201873779296875,1.3384857177734375
1740006940385040000,4.673039794921875,0.112823486328125,0.272216796875,1.3863372802734375
1740006940395021800,4.683021728515625,0.1432342529296875,0.35125732421875,1.43878173828125
1740006940405003800,4.693003662109375,0.1703033447265625,0.43096923828125,1.4742889404296875
1740006940414986000,4.702986083984375,0.1896209716796875,0.4878997802734375,1.47491455078125
1740006940424967000,4.712966796875,0.2078704833984375,0.5166778564453125,1.455230712890625
1740006940434948900,4.722948974609375,0.2259063720703125,0.526947021484375,1.4377899169921875
1740006940444930800,4.732930908203125,0.2366943359375,0.5313720703125,1.4085540771484375
1740006940454913000,4.7429130859375,0.236480712890625,0.5336456298828125,1.384552001953125
1740006940464894700,4.752894775390625,0.235015869140625,0.5356292724609375,1.36572265625
1740006940474876000,4.7628759765625,0.223846435546875,0.535400390625,1.3575592041015625
1740006940484857900,4.77285791015625,0.1985626220703125,0.5318450927734375,1.3423614501953125
1740006940494839800,4.78283984375,0.1602020263671875,0.5242767333984375,1.3356781005859375
1740006940504821800,4.79282177734375,0.1296234130859375,0.5105743408203125,1.3255157470703125
1740006940514804000,4.802803955078125,0.1098175048828125,0.50506591796875,1.3127899169921875
1740006940524785000,4.812784912109375,0.096954345703125,0.510528564453125,1.2993927001953125
1740006940534766800,4.822766845703125,0.0872039794921875,0.5120086669921875,1.266021728515625
1740006940544748800,4.832748779296875,0.0782470703125,0.50982666015625,1.2239227294921875
1740006940554731000,4.84273095703125,0.0657958984375,0.5132904052734375,1.194854736328125
1740006940564712700,4.852712646484375,0.04180908203125,0.5253448486328125,1.178924560546875
1740006940574694000,4.86269384765625,0.0106353759765625,0.5283660888671875,1.1628875732421875
1740006940584675800,4.87267578125,-0.012908935546875,0.5288848876953125,1.1367950439453125
1740006940594657800,4.88265771484375,-0.0304412841796875,0.5262451171875,1.1091156005859375
1740006940604639700,4.8926396484375,-0.0267333984375,0.5240478515625,1.086883544921875
1740006940614621000,4.902620849609375,-0.013916015625,0.5279083251953125,1.084320068359375
1740006940624603000,4.912602783203125,0.00531005859375,0.5305328369140625,1.0737152099609375
1740006940634584800,4.922584716796875,0.0308837890625,0.5315704345703125,1.044921875
1740006940644566800,4.93256689453125,0.0500335693359375,0.536956787109375,1.0224151611328125
1740006940654549000,4.942549072265625,0.065032958984375,0.539581298828125,0.9965667724609375
1740006940664530000,4.952530029296875,0.0773773193359375,0.5301666259765625,0.95611572265625
1740006940674512000,4.962511962890625,0.0870361328125,0.5164642333984375,0.9078369140625
1740006940684493800,4.972493896484375,0.095794677734375,0.507537841796875,0.8681640625
1740006940694475800,4.982475830078125,0.1026153564453125,0.501129150390625,0.839935302734375
1740006940704457700,4.992457763671875,0.115386962890625,0.4816741943359375,0.8206329345703125
1740006940714439000,5.00243896484375,0.138885498046875,0.4699554443359375,0.800689697265625
1740006940724420900,5.0124208984375,0.1575164794921875,0.47216796875,0.7838897705078125
1740006940734402800,5.02240283203125,0.1652069091796875,0.47735595703125,0.7821197509765625
1740006940744384800,5.032384765625,0.1679229736328125,0.47540283203125,0.7797698974609375
1740006940754367000,5.042366943359375,0.166473388671875,0.4671630859375,0.77362060546875
1740006940764348000,5.052347900390625,0.1569976806640625,0.4512939453125,0.76177978515625
1740006940774329900,5.062329833984375,0.1391754150390625,0.436004638671875,0.7653350830078125
1740006940784311800,5.072311767578125,0.1278533935546875,0.441070556640625,0.794189453125
1740006940794293800,5.082293701171875,0.131317138671875,0.462738037109375,0.8282623291015625
1740006940804276000,5.09227587890625,0.13824462890625,0.487884521484375,0.846160888671875
1740006940814257000,5.1022568359375,0.1272430419921875,0.498809814453125,0.844635009765625
1740006940824238800,5.11223876953125,0.1053466796875,0.4772796630859375,0.8289642333984375
1740006940834220800,5.122220703125,0.08099365234375,0.4331512451171875,0.7791900634765625
1740006940844202800,5.13220263671875,0.0581207275390625,0.375,0.7087860107421875
1740006940854185000,5.14218505859375,0.0317230224609375,0.3139495849609375,0.656005859375
1740006940864166000,5.152165771484375,-0.0000762939453125,0.2719573974609375,0.642730712890625
1740006940874147800,5.16214794921875,-0.021514892578125,0.251495361328125,0.67266845703125
1740006940884129800,5.1721298828125,-0.02862548828125,0.2463226318359375,0.73663330078125
1740006940894111700,5.18211181640625,-0.0278778076171875,0.25421142578125,0.8276824951171875
1740006940904092400,5.192092529296875,-0.0192718505859375,0.2836456298828125,0.9290618896484375
1740006940914074400,5.202074462890625,-0.009857177734375,0.328155517578125,1.0166473388671875
1740006940924056300,5.212056396484375,-0.0035400390625,0.370361328125,1.0717620849609375
1740006940934038500,5.22203857421875,0,0.4036407470703125,1.1086883544921875
1740006940944020200,5.232020263671875,0.0061798095703125,0.4179840087890625,1.142974853515625
1740006940954001400,5.24200146484375,0.0288543701171875,0.4161834716796875,1.1619720458984375
1740006940963983400,5.2519833984375,0.0682373046875,0.4261627197265625,1.1575164794921875
1740006940973965300,5.26196533203125,0.112030029296875,0.4167327880859375,1.1443328857421875
1740006940983947300,5.271947265625,0.1539306640625,0.397918701171875,1.0979766845703125
1740006940993929500,5.281929443359375,0.192718505859375,0.3749237060546875,1.0322265625
1740006941003910400,5.291910400390625,0.2214202880859375,0.34918212890625,0.965606689453125
1740006941013892400,5.301892333984375,0.2448883056640625,0.325439453125,0.9023284912109375
1740006941023874300,5.311874267578125,0.2709808349609375,0.302032470703125,0.8450164794921875
1740006941033856500,5.3218564453125,0.2833709716796875,0.289825439453125,0.80914306640625
1740006941043838200,5.331838134765625,0.2963714599609375,0.270782470703125,0.7883453369140625
1740006941053819400,5.3418193359375,0.3025054931640625,0.257843017578125,0.7829437255859375
1740006941063801300,5.35180126953125,0.298858642578125,0.250518798828125,0.787628173828125
1740006941073783300,5.361783203125,0.284332275390625,0.2569122314453125,0.820037841796875
1740006941083765200,5.37176513671875,0.25164794921875,0.27935791015625,0.87078857421875
1740006941093747500,5.38174755859375,0.22210693359375,0.2969970703125,0.9024810791015625
1740006941103728400,5.391728271484375,0.2003021240234375,0.3087005615234375,0.919342041015625
1740006941113710300,5.40171044921875,0.188385009765625,0.3136749267578125,0.9452972412109375
1740006941123692300,5.4116923828125,0.1831207275390625,0.3116302490234375,0.9696044921875
1740006941133674500,5.421674560546875,0.1974334716796875,0.304290771484375,0.9958648681640625
1740006941143656200,5.43165625,0.2256927490234375,0.2982635498046875,1.0099029541015625
1740006941153637400,5.441637451171875,0.2402191162109375,0.296875,1.0302886962890625
1740006941163619300,5.451619384765625,0.2392730712890625,0.3025054931640625,1.0598602294921875
1740006941173601300,5.461601318359375,0.2446136474609375,0.3065643310546875,1.0856781005859375
1740006941183583200,5.471583251953125,0.2523345947265625,0.3192596435546875,1.11724853515625
1740006941193565400,5.4815654296875,0.24627685546875,0.3374176025390625,1.170196533203125
1740006941203546400,5.49154638671875,0.2241973876953125,0.3546142578125,1.2288360595703125
1740006941213528300,5.5015283203125,0.1978302001953125,0.3752899169921875,1.2894439697265625
1740006941223510300,5.51151025390625,0.170196533203125,0.3897247314453125,1.3522186279296875
1740006941233492500,5.521492431640625,0.141998291015625,0.39788818359375,1.4149017333984375
1740006941243473400,5.531473388671875,0.132720947265625,0.4026031494140625,1.472442626953125
1740006941253455400,5.541455322265625,0.137115478515625,0.4052581787109375,1.5529022216796875
1740006941263437300,5.551437255859375,0.143035888671875,0.410614013671875,1.6328125
1740006941273419300,5.561419189453125,0.1864013671875,0.412353515625,1.7210235595703125
1740006941283401200,5.571401123046875,0.21990966796875,0.365509033203125,1.7953643798828125
1740006941293382400,5.58138232421875,0.2406768798828125,0.326416015625,1.8817291259765625
1740006941303364400,5.5913642578125,0.2666168212890625,0.309844970703125,1.996551513671875
1740006941313346300,5.60134619140625,0.3095245361328125,0.2984466552734375,2.135498046875
1740006941323328300,5.611328369140625,0.3481597900390625,0.2625274658203125,2.2363433837890625
1740006941333310500,5.621310546875,0.3711090087890625,0.1801605224609375,2.255462646484375
1740006941343291400,5.63129150390625,0.3705902099609375,0.066192626953125,2.1930694580078125
1740006941353273300,5.6412734375,0.3635101318359375,-0.0476226806640625,2.0655059814453125
1740006941363255300,5.65125537109375,0.3427276611328125,-0.1505889892578125,1.896636962890625
1740006941373237200,5.6612373046875,0.3289337158203125,-0.240509033203125,1.717071533203125
1740006941383219200,5.67121923828125,0.3258056640625,-0.295623779296875,1.5648956298828125
1740006941393200400,5.681200439453125,0.3109588623046875,-0.2996673583984375,1.44293212890625
1740006941403182300,5.691182373046875,0.32489013671875,-0.2463226318359375,1.3716278076171875
1740006941413164300,5.701164306640625,0.33538818359375,-0.15509033203125,1.3441314697265625
1740006941423146200,5.711146240234375,0.3420257568359375,-0.0649261474609375,1.3341217041015625
1740006941433128400,5.72112841796875,0.3394775390625,0.018157958984375,1.332672119140625
1740006941443109400,5.731109375,0.331695556640625,0.098236083984375,1.33795166015625
1740006941453091300,5.74109130859375,0.3351898193359375,0.17413330078125,1.3419952392578125
1740006941463073300,5.7510732421875,0.3317718505859375,0.245361328125,1.3350677490234375
1740006941473055500,5.761055419921875,0.31011962890625,0.2993621826171875,1.3222503662109375
1740006941483037200,5.771037109375,0.278839111328125,0.3291168212890625,1.2900848388671875
1740006941493018400,5.781018310546875,0.23974609375,0.342620849609375,1.2593536376953125
1740006941503000300,5.791000244140625,0.2033233642578125,0.3457794189453125,1.2510986328125
1740006941512982300,5.800982177734375,0.1716461181640625,0.3440704345703125,1.2675018310546875
1740006941522964200,5.810964111328125,0.1443634033203125,0.3404083251953125,1.296539306640625
1740006941532946400,5.820946533203125,0.130218505859375,0.333709716796875,1.303741455078125
1740006941542927400,5.83092724609375,0.1131591796875,0.32666015625,1.3070068359375
1740006941552909300,5.840909423828125,0.102294921875,0.3240966796875,1.3148040771484375
1740006941562891300,5.850891357421875,0.0964813232421875,0.3242950439453125,1.310302734375
1740006941572873500,5.86087353515625,0.083038330078125,0.336029052734375,1.30694580078125
1740006941582855200,5.870855224609375,0.06890869140625,0.3579864501953125,1.308197021484375
1740006941592836400,5.88083642578125,0.0745849609375,0.372711181640625,1.294891357421875
1740006941602818300,5.890818359375,0.086639404296875,0.3903961181640625,1.286773681640625
1740006941612800300,5.90080029296875,0.082275390625,0.402862548828125,1.27276611328125
1740006941622782200,5.9107822265625,0.0931549072265625,0.4287109375,1.2647247314453125
1740006941632764400,5.920764404296875,0.09234619140625,0.46484375,1.2641448974609375
1740006941642745300,5.930745361328125,0.082733154296875,0.491180419921875,1.2608795166015625
1740006941652727300,5.940727294921875,0.0467529296875,0.5218963623046875,1.2584075927734375
1740006941662709200,5.950709228515625,-0.0083160400390625,0.559173583984375,1.2671661376953125
1740006941672691500,5.96069140625,-0.0612945556640625,0.597930908203125,1.29449462890625
1740006941682673200,5.970673095703125,-0.0919647216796875,0.6392974853515625,1.32867431640625
1740006941692654300,5.980654296875,-0.0844268798828125,0.6800994873046875,1.3230438232421875
1740006941702636300,5.99063623046875,-0.0850677490234375,0.7098846435546875,1.29864501953125
1740006941712618200,6.0006181640625,-0.091644287109375,0.7030487060546875,1.2583465576171875
1740006941722600200,6.01060009765625,-0.091064453125,0.6502685546875,1.2015838623046875
1740006941732582400,6.02058251953125,-0.076385498046875,0.5950927734375,1.15191650390625
1740006941742563300,6.030563232421875,-0.0673065185546875,0.590911865234375,1.13092041015625
1740006941752545300,6.040545166015625,-0.0413818359375,0.6099853515625,1.1280517578125
1740006941762527200,6.05052734375,0.0042724609375,0.6237640380859375,1.106903076171875
1740006941772509400,6.060509521484375,0.039764404296875,0.635284423828125,1.037200927734375
1740006941782491400,6.070491455078125,0.0262603759765625,0.634857177734375,0.954681396484375
1740006941792472300,6.080472412109375,-0.035797119140625,0.607666015625,0.8442840576171875
1740006941802454300,6.090454345703125,-0.12188720703125,0.56500244140625,0.75262451171875
1740006941812436200,6.100436279296875,-0.19598388671875,0.529266357421875,0.707763671875
1740006941822418200,6.110418212890625,-0.25836181640625,0.494781494140625,0.7485504150390625
1740006941832400400,6.120400390625,-0.3071746826171875,0.4747467041015625,0.8264312744140625
1740006941842381300,6.13038134765625,-0.333953857421875,0.4786376953125,0.8830413818359375
1740006941852363300,6.14036328125,-0.3597259521484375,0.469696044921875,0.884246826171875
1740006941862345200,6.15034521484375,-0.373046875,0.4167633056640625,0.81732177734375
1740006941872327400,6.160327392578125,-0.38946533203125,0.334930419921875,0.7073211669921875
1740006941882309400,6.170309326171875,-0.4217071533203125,0.24993896484375,0.602630615234375
1740006941892290300,6.180290283203125,-0.4811248779296875,0.162506103515625,0.52081298828125
1740006941902272800,6.190272705078125,-0.5700225830078125,0.09027099609375,0.5071868896484375
1740006941912254500,6.20025439453125,-0.643035888671875,0.048187255859375,0.54052734375
1740006941922236700,6.210236572265625,-0.669677734375,0.0376129150390625,0.6202239990234375
1740006941932218600,6.220218505859375,-0.6841278076171875,0.0159149169921875,0.6695098876953125
1740006941942199800,6.23019970703125,-0.68939208984375,-0.04241943359375,0.6614990234375
1740006941952181500,6.240181396484375,-0.6442108154296875,-0.05889892578125,0.67877197265625
1740006941962163700,6.250163818359375,-0.597076416015625,-0.046844482421875,0.707672119140625
1740006941972145700,6.260145751953125,-0.564910888671875,-0.0527801513671875,0.706512451171875
1740006941982127600,6.270127685546875,-0.5493621826171875,-0.082733154296875,0.6866912841796875
1740006941992108500,6.280108642578125,-0.5519561767578125,-0.109039306640625,0.6910400390625
1740006942002090800,6.2900908203125,-0.5620574951171875,-0.1212158203125,0.7124176025390625
1740006942012072400,6.300072509765625,-0.5552825927734375,-0.1215667724609375,0.7040863037109375
1740006942022054700,6.3100546875,-0.55322265625,-0.1324920654296875,0.6695556640625
1740006942032036600,6.32003662109375,-0.5613861083984375,-0.1499481201171875,0.6423492431640625
1740006942042017800,6.330017822265625,-0.568756103515625,-0.1554412841796875,0.6457366943359375
1740006942051999500,6.33999951171875,-0.5670928955078125,-0.1555023193359375,0.6384429931640625
1740006942061981700,6.349981689453125,-0.545928955078125,-0.14971923828125,0.589080810546875
1740006942071963600,6.359963623046875,-0.5139007568359375,-0.1564483642578125,0.514373779296875
1740006942081945600,6.369945556640625,-0.479705810546875,-0.1780548095703125,0.4456024169921875
1740006942091926500,6.379926513671875,-0.4658203125,-0.21343994140625,0.415374755859375
1740006942101908700,6.38990869140625,-0.463409423828125,-0.2438201904296875,0.4062042236328125
1740006942111890400,6.399890380859375,-0.4624176025390625,-0.2608795166015625,0.3955078125
1740006942121872600,6.40987255859375,-0.4737548828125,-0.267791748046875,0.3911590576171875
1740006942131854600,6.4198544921875,-0.4994354248046875,-0.2719879150390625,0.398834228515625
1740006942141835800,6.429835693359375,-0.5294647216796875,-0.2816925048828125,0.4191131591796875
1740006942151817500,6.4398173828125,-0.550506591796875,-0.2953033447265625,0.4427032470703125
1740006942161799700,6.449799560546875,-0.564605712890625,-0.318939208984375,0.465362548828125
1740006942171781600,6.45978173828125,-0.58184814453125,-0.3408050537109375,0.4831390380859375
1740006942181763600,6.469763671875,-0.5901031494140625,-0.3479156494140625,0.49859619140625
1740006942191744500,6.47974462890625,-0.5945281982421875,-0.365020751953125,0.4945220947265625
1740006942201726700,6.489726806640625,-0.610626220703125,-0.3924407958984375,0.49749755859375
1740006942211708700,6.499708740234375,-0.6342315673828125,-0.41705322265625,0.5070648193359375
1740006942221690600,6.509690673828125,-0.645904541015625,-0.4117279052734375,0.522003173828125
1740006942231672600,6.519672607421875,-0.6558837890625,-0.3900146484375,0.522735595703125
1740006942241653800,6.52965380859375,-0.675994873046875,-0.3692626953125,0.53106689453125
1740006942251635500,6.539635498046875,-0.704071044921875,-0.354644775390625,0.55560302734375
1740006942261617700,6.54961767578125,-0.710296630859375,-0.3309326171875,0.5833587646484375
1740006942271599600,6.559599609375,-0.7197723388671875,-0.308013916015625,0.6287689208984375
1740006942281581600,6.56958154296875,-0.7315826416015625,-0.288604736328125,0.671844482421875
1740006942291562500,6.5795625,-0.724334716796875,-0.2669525146484375,0.6900634765625
1740006942301544700,6.589544677734375,-0.705078125,-0.2440643310546875,0.6833343505859375
1740006942311526700,6.599526611328125,-0.687652587890625,-0.2369232177734375,0.6822052001953125
1740006942321508600,6.609508544921875,-0.675537109375,-0.217315673828125,0.6900787353515625
1740006942331490600,6.619490478515625,-0.700042724609375,-0.172698974609375,0.7378692626953125
1740006942341471700,6.6294716796875,-0.74420166015625,-0.1003875732421875,0.82025146484375
1740006942351453400,6.639453369140625,-0.7901153564453125,-0.00360107421875,0.90081787109375
1740006942361435600,6.649435546875,-0.83160400390625,0.0938720703125,0.9091339111328125
1740006942371417600,6.65941748046875,-0.88433837890625,0.162261962890625,0.8495025634765625
1740006942381399600,6.669399658203125,-0.9799957275390625,0.194305419921875,0.751129150390625
1740006942391380500,6.67938037109375,-1.0702972412109375,0.1946258544921875,0.6550445556640625
1740006942401362700,6.68936279296875,-1.135498046875,0.1998748779296875,0.602691650390625
1740006942411344600,6.6993447265625,-1.1966400146484375,0.215545654296875,0.579986572265625
1740006942421326600,6.70932666015625,-1.2232666015625,0.2300567626953125,0.5666656494140625
1740006942431308500,6.71930859375,-1.189239501953125,0.2398834228515625,0.561431884765625
1740006942441289700,6.729289794921875,-1.106292724609375,0.2401275634765625,0.5555267333984375
1740006942451271400,6.739271484375,-0.99481201171875,0.2418060302734375,0.544464111328125
1740006942461253600,6.749253662109375,-0.88031005859375,0.2549591064453125,0.51617431640625
1740006942471235600,6.759235595703125,-0.797210693359375,0.2773590087890625,0.480682373046875
1740006942481217500,6.769217529296875,-0.75177001953125,0.3008575439453125,0.45068359375
1740006942491199700,6.77919970703125,-0.728790283203125,0.333099365234375,0.4401092529296875
1740006942501180700,6.7891806640625,-0.7101898193359375,0.372283935546875,0.4419403076171875
1740006942511162600,6.79916259765625,-0.6625518798828125,0.40032958984375,0.4268951416015625
1740006942521144600,6.80914453125,-0.584075927734375,0.401947021484375,0.4070587158203125
1740006942531126800,6.819126708984375,-0.5045166015625,0.427154541015625,0.42071533203125
1740006942541108700,6.829108642578125,-0.4357147216796875,0.4704132080078125,0.468719482421875
1740006942551089400,6.83908935546875,-0.383209228515625,0.5209808349609375,0.5570068359375
1740006942561071600,6.849071533203125,-0.3524322509765625,0.5735015869140625,0.662139892578125
1740006942571053600,6.859053466796875,-0.34637451171875,0.6092681884765625,0.787139892578125
1740006942581035500,6.869035400390625,-0.3347320556640625,0.616424560546875,0.9244842529296875
1740006942591017700,6.879017822265625,-0.274017333984375,0.6115875244140625,1.015777587890625
1740006942600998700,6.88899853515625,-0.184173583984375,0.5773468017578125,1.0574798583984375
1740006942610980600,6.898980712890625,-0.0758056640625,0.5318145751953125,1.08978271484375
1740006942620962600,6.908962646484375,0.001312255859375,0.456298828125,1.0643310546875
1740006942630944800,6.91894482421875,0.0618438720703125,0.346282958984375,1.00885009765625
1740006942640926700,6.9289267578125,0.1024322509765625,0.2591552734375,0.9623565673828125
1740006942650907400,6.938907470703125,0.1154632568359375,0.19708251953125,0.9506378173828125
1740006942660889600,6.9488896484375,0.1282196044921875,0.1567230224609375,0.954620361328125
1740006942670871800,6.958871826171875,0.15936279296875,0.1412200927734375,0.93829345703125
1740006942680853500,6.968853515625,0.1990509033203125,0.1430206298828125,0.9182281494140625
1740006942690835700,6.978835693359375,0.2447967529296875,0.1734771728515625,0.9241943359375
1740006942700816600,6.988816650390625,0.3020172119140625,0.2266082763671875,0.9296112060546875
1740006942710798800,6.998798828125,0.3436737060546875,0.270355224609375,0.920684814453125
1740006942720780500,7.008780517578125,0.372802734375,0.288909912109375,0.881805419921875
1740006942730762800,7.0187626953125,0.398468017578125,0.310150146484375,0.8401031494140625
1740006942740744700,7.02874462890625,0.4148406982421875,0.3285064697265625,0.80279541015625
1740006942750726700,7.0387265625,0.42578125,0.350555419921875,0.7870330810546875
1740006942760707600,7.04870751953125,0.4245758056640625,0.3797454833984375,0.7928466796875
1740006942770689800,7.058689697265625,0.4151458740234375,0.4139251708984375,0.830902099609375
1740006942780671500,7.06867138671875,0.3999481201171875,0.46343994140625,0.9091339111328125
1740006942790653700,7.07865380859375,0.3822174072265625,0.5354766845703125,1.021453857421875
1740006942800635600,7.0886357421875,0.355255126953125,0.6048431396484375,1.120574951171875
1740006942810616800,7.098616943359375,0.311920166015625,0.6672821044921875,1.17864990234375
1740006942820598500,7.1085986328125,0.2906951904296875,0.7645111083984375,1.2727203369140625
1740006942830580700,7.118580810546875,0.2485504150390625,0.8255157470703125,1.338043212890625
1740006942840562700,7.128562744140625,0.1894683837890625,0.8408203125,1.3422393798828125
1740006942850544600,7.138544677734375,0.12298583984375,0.8492889404296875,1.3290557861328125
1740006942860525600,7.148525634765625,0.0845794677734375,0.9058685302734375,1.37744140625
1740006942870507800,7.1585078125,0.080718994140625,1.0082244873046875,1.4639434814453125
1740006942880489500,7.168489501953125,0.078216552734375,1.11444091796875,1.49658203125
1740006942890471700,7.1784716796875,0.0464019775390625,1.1395721435546875,1.433258056640625
1740006942900454100,7.1884541015625,-0.015167236328125,1.0635833740234375,1.2904052734375
1740006942910435000,7.19843505859375,-0.0845947265625,0.971038818359375,1.1323699951171875
1740006942920417000,7.2084169921875,-0.1586151123046875,0.8717803955078125,0.9888153076171875
1740006942930399000,7.21839892578125,-0.2252349853515625,0.7444915771484375,0.856536865234375
1740006942940381000,7.228380859375,-0.2679290771484375,0.6417388916015625,0.77777099609375
1740006942950363000,7.23836279296875,-0.2943878173828125,0.593597412109375,0.787078857421875
1740006942960344000,7.248343994140625,-0.30792236328125,0.57928466796875,0.8610687255859375
1740006942970326000,7.258325927734375,-0.2873992919921875,0.5731964111328125,0.9474334716796875
1740006942980308000,7.268307861328125,-0.2481689453125,0.55133056640625,1.0193634033203125
1740006942990290000,7.2782900390625,-0.1983642578125,0.5404052734375,1.0686798095703125
1740006943000272100,7.288272216796875,-0.134490966796875,0.5468902587890625,1.1213226318359375
1740006943010253000,7.298253173828125,-0.080322265625,0.55999755859375,1.151031494140625
1740006943020235000,7.308235107421875,-0.0376129150390625,0.5503387451171875,1.142120361328125
1740006943030217000,7.318217041015625,-0.0058135986328125,0.51934814453125,1.092742919921875
1740006943040199200,7.32819921875,0.0162811279296875,0.4774169921875,1.0204010009765625
1740006943050180900,7.338180908203125,0.02960205078125,0.4260406494140625,0.927734375
1740006943060163000,7.3481630859375,0.03607177734375,0.3693084716796875,0.8257293701171875
1740006943070144000,7.35814404296875,0.05450439453125,0.316009521484375,0.7316131591796875
1740006943080126000,7.3681259765625,0.0879669189453125,0.2768402099609375,0.6458740234375
1740006943090108000,7.37810791015625,0.13995361328125,0.266357421875,0.5827484130859375
1740006943100090000,7.388090087890625,0.185699462890625,0.2641754150390625,0.5363311767578125
1740006943110071800,7.39807177734375,0.193756103515625,0.2475433349609375,0.487396240234375
1740006943120053000,7.408052978515625,0.1739349365234375,0.216552734375,0.436676025390625
1740006943130035000,7.418034912109375,0.1403656005859375,0.17633056640625,0.4061737060546875
1740006943140017200,7.42801708984375,0.10955810546875,0.14337158203125,0.406402587890625
1740006943149998800,7.437998779296875,0.0861968994140625,0.1161956787109375,0.4413909912109375
1740006943159981000,7.44798095703125,0.073150634765625,0.09527587890625,0.4819793701171875
1740006943169962000,7.4579619140625,0.0682373046875,0.0838470458984375,0.53631591796875
1740006943179944000,7.46794384765625,0.0634307861328125,0.064727783203125,0.5950927734375
1740006943189926000,7.47792578125,0.065887451171875,0.0449676513671875,0.644622802734375
1740006943199908000,7.487908203125,0.078826904296875,0.04052734375,0.69287109375
1740006943209889800,7.497889892578125,0.0955047607421875,0.044097900390625,0.7345733642578125
1740006943219871000,7.50787109375,0.1185150146484375,0.0414581298828125,0.7693328857421875
1740006943229853000,7.51785302734375,0.1455078125,0.0413665771484375,0.7961578369140625
1740006943239835100,7.527835205078125,0.1720733642578125,0.0478668212890625,0.817657470703125
1740006943249816800,7.53781689453125,0.20001220703125,0.0687713623046875,0.832611083984375
1740006943259799000,7.547799072265625,0.2183074951171875,0.1001739501953125,0.846282958984375
1740006943269781000,7.557781005859375,0.2199859619140625,0.12158203125,0.858245849609375
1740006943279762000,7.567761962890625,0.221771240234375,0.141082763671875,0.873321533203125
1740006943289744000,7.577743896484375,0.225738525390625,0.1684722900390625,0.90283203125
1740006943299726000,7.58772607421875,0.2297821044921875,0.209808349609375,0.9585418701171875
1740006943309707800,7.597707763671875,0.2330474853515625,0.2583160400390625,1.0310516357421875
1740006943319690000,7.60768994140625,0.2365570068359375,0.3126220703125,1.1233062744140625
1740006943329671000,7.6176708984375,0.2373199462890625,0.36248779296875,1.211273193359375
1740006943339653000,7.627653076171875,0.23236083984375,0.408782958984375,1.276458740234375
1740006943349634800,7.637634765625,0.21002197265625,0.4380035400390625,1.3345794677734375
1740006943359617000,7.647616943359375,0.1661376953125,0.4534454345703125,1.3678131103515625
1740006943369599000,7.657598876953125,0.107757568359375,0.460540771484375,1.3926239013671875
1740006943379580000,7.667579833984375,0.05548095703125,0.479583740234375,1.445098876953125
1740006943389561900,7.677561767578125,0.020721435546875,0.5260467529296875,1.53363037109375
1740006943399544000,7.6875439453125,0.0000457763671875,0.568695068359375,1.5990447998046875
1740006943409526000,7.697526123046875,-0.036346435546875,0.5650177001953125,1.6005859375
1740006943419508000,7.707508056640625,-0.072479248046875,0.5264129638671875,1.5563201904296875
1740006943429489000,7.717489013671875,-0.10992431640625,0.4937591552734375,1.5147857666015625
1740006943439471000,7.72747119140625,-0.1534271240234375,0.4613494873046875,1.46759033203125
1740006943449453000,7.737453125,-0.17108154296875,0.4150543212890625,1.4048309326171875
1740006943459435000,7.74743505859375,-0.2082977294921875,0.3654632568359375,1.3632354736328125
1740006943469417200,7.757417236328125,-0.190887451171875,0.3434295654296875,1.3757171630859375
1740006943479399000,7.76739892578125,-0.1508026123046875,0.372772216796875,1.44598388671875
1740006943489379800,7.7773798828125,-0.10137939453125,0.4563751220703125,1.5535736083984375
1740006943499362000,7.787362060546875,-0.057647705078125,0.542449951171875,1.6201171875
1740006943509344000,7.797343994140625,-0.0153656005859375,0.5969696044921875,1.6334381103515625
1740006943519326000,7.807325927734375,0.0087432861328125,0.6201934814453125,1.611785888671875
1740006943529308200,7.81730810546875,0.0262603759765625,0.6294097900390625,1.5819091796875
1740006943539289000,7.8272890625,0.0408477783203125,0.653045654296875,1.568511962890625
1740006943549271000,7.83727099609375,0.073455810546875,0.672607421875,1.5452423095703125
1740006943559253000,7.8472529296875,0.0903472900390625,0.66400146484375,1.488525390625
1740006943569235200,7.857235107421875,0.092620849609375,0.6312408447265625,1.4123992919921875
1740006943579217000,7.867216796875,0.100341796875,0.58935546875,1.32745361328125
1740006943589198000,7.877197998046875,0.11846923828125,0.5449676513671875,1.2423248291015625
1740006943599180000,7.887179931640625,0.1356658935546875,0.49029541015625,1.148193359375
1740006943609162000,7.897161865234375,0.1298065185546875,0.4298248291015625,1.066314697265625
1740006943619144000,7.90714404296875,0.1114044189453125,0.377899169921875,1.0109710693359375
1740006943629127000,7.917126953125,0.0954742431640625,0.3419036865234375,0.97821044921875
1740006943639107800,7.92710791015625,0.0770263671875,0.3444366455078125,0.9816131591796875
1740006943649090000,7.937090087890625,0.023223876953125,0.33624267578125,0.995880126953125
1740006943659072000,7.947072021484375,-0.029052734375,0.317230224609375,0.976776123046875
1740006943669054000,7.957053955078125,-0.07568359375,0.3199005126953125,0.9519805908203125
1740006943679036000,7.967035888671875,-0.102783203125,0.3349609375,0.931121826171875
1740006943689017000,7.97701708984375,-0.1063995361328125,0.35467529296875,0.9066619873046875
1740006943698999000,7.9869990234375,-0.103790283203125,0.3804931640625,0.8819580078125
1740006943708981000,7.99698095703125,-0.0929718017578125,0.4159393310546875,0.8560943603515625
1740006943718963000,8.006962890625,-0.07635498046875,0.4546356201171875,0.8286590576171875
1740006943728945000,8.01694482421875,-0.0606842041015625,0.4891357421875,0.7892913818359375
1740006943738925800,8.02692578125,-0.03631591796875,0.51715087890625,0.7348175048828125
1740006943748908000,8.036907958984376,-0.002655029296875,0.5357666015625,0.666259765625
1740006943758890000,8.046889892578125,0.0201416015625,0.5493927001953125,0.59423828125
1740006943768872000,8.056871826171875,0.04119873046875,0.5611114501953125,0.5372161865234375
1740006943778854000,8.06685400390625,0.05560302734375,0.5743255615234375,0.506195068359375
1740006943788836000,8.076836181640624,0.058258056640625,0.5903472900390625,0.484100341796875
1740006943798817000,8.086817138671876,0.0601959228515625,0.5956878662109375,0.4557952880859375
1740006943808799000,8.096799072265625,0.0660552978515625,0.59185791015625,0.4279022216796875
1740006943818781000,8.106781005859375,0.0696563720703125,0.589080810546875,0.419464111328125
1740006943828763100,8.11676318359375,0.069244384765625,0.59259033203125,0.4271392822265625
1740006943838744800,8.126744873046874,0.066802978515625,0.5889129638671875,0.4421844482421875
1740006943848726000,8.13672607421875,0.067138671875,0.5792236328125,0.460723876953125
1740006943858708000,8.1467080078125,0.0736083984375,0.57232666015625,0.4850616455078125
1740006943868690000,8.15668994140625,0.081939697265625,0.5683746337890625,0.51885986328125
1740006943878672000,8.166671875,0.08465576171875,0.5708160400390625,0.56024169921875
1740006943888654000,8.176654052734374,0.0956268310546875,0.58837890625,0.6182098388671875
1740006943898635000,8.186635009765626,0.1153411865234375,0.636871337890625,0.7141571044921875
1740006943908616200,8.1966162109375,0.13543701171875,0.7010955810546875,0.8178863525390625
1740006943918598400,8.206598388671875,0.1428680419921875,0.7303314208984375,0.87237548828125
1740006943928580400,8.216580322265624,0.13201904296875,0.7197418212890625,0.858001708984375
1740006943938562300,8.226562255859376,0.109649658203125,0.688873291015625,0.8266143798828125
1740006943948544300,8.236544189453125,0.088043212890625,0.6645965576171875,0.83831787109375
1740006943958525400,8.246525390625,0.0831146240234375,0.65704345703125,0.88861083984375
1740006943968507400,8.25650732421875,0.0825653076171875,0.672332763671875,0.96429443359375
1740006943978489300,8.2664892578125,0.0922393798828125,0.686004638671875,1.0505218505859375
1740006943988471300,8.27647119140625,0.1116180419921875,0.69476318359375,1.13641357421875
1740006943998453500,8.28645361328125,0.1328125,0.7150115966796875,1.254608154296875
1740006944008434200,8.29643408203125,0.16180419921875,0.7449188232421875,1.3987579345703125
1740006944018416400,8.30641650390625,0.198028564453125,0.7724456787109375,1.5410003662109375
1740006944028398300,8.3163984375,0.2408294677734375,0.7758331298828125,1.6488189697265625
1740006944038380300,8.32638037109375,0.2769775390625,0.7565460205078125,1.719573974609375
1740006944048361200,8.336361328125,0.28704833984375,0.71783447265625,1.7473297119140625
1740006944058343400,8.346343505859375,0.2758941650390625,0.6652679443359375,1.7351531982421875
1740006944068325400,8.356325439453125,0.2588653564453125,0.6181793212890625,1.69415283203125
1740006944078307300,8.366307373046874,0.23004150390625,0.5797271728515625,1.6375274658203125
1740006944088289300,8.376289306640626,0.18951416015625,0.5374755859375,1.5688018798828125
1740006944098271500,8.386271484375,0.1529998779296875,0.4846954345703125,1.4916839599609375
1740006944108252200,8.396252197265625,0.1228485107421875,0.440826416015625,1.415863037109375
1740006944118234400,8.406234375,0.0778350830078125,0.3905487060546875,1.3521270751953125
1740006944128216300,8.41621630859375,0.032257080078125,0.3411102294921875,1.3017730712890625
1740006944138198300,8.4261982421875,0.00323486328125,0.2825164794921875,1.260162353515625
1740006944148180200,8.43618017578125,-0.0214691162109375,0.22564697265625,1.2462615966796875
1740006944158161400,8.446161376953125,-0.03778076171875,0.177398681640625,1.2391357421875
1740006944168143400,8.456143310546874,-0.03387451171875,0.14404296875,1.2360076904296875
1740006944178125300,8.466125244140626,-0.016754150390625,0.1140899658203125,1.225494384765625
1740006944188107300,8.476107177734375,0.005218505859375,0.0941009521484375,1.208587646484375
1740006944198089500,8.48608935546875,0.027862548828125,0.0815277099609375,1.1965789794921875
1740006944208070400,8.4960703125,0.057769775390625,0.073760986328125,1.1862945556640625
1740006944218052400,8.50605224609375,0.097747802734375,0.067535400390625,1.1635894775390625
1740006944228034300,8.516034423828126,0.143585205078125,0.0642852783203125,1.1304931640625
1740006944238016300,8.526016357421875,0.1935577392578125,0.05316162109375,1.0868072509765625
1740006944247998200,8.535998291015625,0.2547607421875,0.0436859130859375,1.041595458984375
1740006944257980400,8.54598046875,0.30438232421875,0.060943603515625,1.012969970703125
1740006944267961300,8.55596142578125,0.340057373046875,0.076080322265625,0.996856689453125
1740006944277943300,8.565943359375,0.3679046630859375,0.0826416015625,0.98675537109375
1740006944287925200,8.57592529296875,0.3910064697265625,0.097320556640625,0.9822540283203125
1740006944297907500,8.585907470703125,0.4013214111328125,0.1230926513671875,0.9837188720703125
1740006944307889200,8.59588916015625,0.392974853515625,0.14642333984375,0.998382568359375
1740006944317870300,8.605870361328124,0.36822509765625,0.1665802001953125,1.0233001708984375
1740006944327852300,8.615852294921876,0.3397064208984375,0.1851043701171875,1.0487060546875
1740006944337834200,8.625834228515625,0.3111114501953125,0.1990203857421875,1.079345703125
1740006944347816200,8.635816162109375,0.283660888671875,0.2174224853515625,1.124053955078125
1740006944357798400,8.64579833984375,0.2508087158203125,0.2288665771484375,1.1959381103515625
1740006944367779300,8.655779296875,0.2330322265625,0.2592620849609375,1.2599334716796875
1740006944377761300,8.66576123046875,0.20269775390625,0.2940826416015625,1.3311614990234375
1740006944387743200,8.6757431640625,0.1739501953125,0.3087310791015625,1.3997802734375
1740006944397725400,8.685725341796875,0.1754302978515625,0.332122802734375,1.484130859375
1740006944407707100,8.69570703125,0.194915771484375,0.37139892578125,1.594696044921875
1740006944417689300,8.705689453125,0.2124176025390625,0.426727294921875,1.702362060546875
1740006944427670300,8.715670166015625,0.202392578125,0.46075439453125,1.7694091796875
1740006944437652200,8.72565234375,0.172821044921875,0.4315643310546875,1.7888336181640625
1740006944447634200,8.73563427734375,0.139617919921875,0.359619140625,1.765289306640625
1740006944457616400,8.745616455078125,0.11187744140625,0.255615234375,1.703857421875
1740006944467598300,8.755598388671874,0.1051483154296875,0.147064208984375,1.6515350341796875
1740006944477580300,8.765580322265626,0.111663818359375,0.0610504150390625,1.612548828125
1740006944487561200,8.775561279296875,0.1304473876953125,0.0222930908203125,1.60626220703125
1740006944497543400,8.78554345703125,0.1570892333984375,0.0514678955078125,1.635406494140625
1740006944507525400,8.795525390625,0.17169189453125,0.1300048828125,1.6847076416015625
1740006944517507300,8.80550732421875,0.19378662109375,0.2425537109375,1.73785400390625
1740006944527489500,8.815489501953126,0.2371826171875,0.362640380859375,1.7668304443359375
1740006944537470500,8.825470458984375,0.2795867919921875,0.4710235595703125,1.75604248046875
1740006944547452400,8.835452392578125,0.2961273193359375,0.585479736328125,1.746856689453125
1740006944557434400,8.845434326171874,0.3185882568359375,0.673492431640625,1.6924591064453125
1740006944567416300,8.855416259765626,0.330078125,0.727996826171875,1.5852203369140625
1740006944577398300,8.865398193359376,0.3084564208984375,0.7615509033203125,1.456573486328125
1740006944587379200,8.875379150390625,0.2904510498046875,0.76708984375,1.335418701171875
1740006944597361400,8.885361328125,0.2704620361328125,0.750152587890625,1.2375640869140625
1740006944607343400,8.89534326171875,0.233551025390625,0.7198333740234375,1.1546478271484375
1740006944617325300,8.9053251953125,0.1712799072265625,0.6841888427734375,1.0987701416015625
1740006944627307500,8.9153076171875,0.1104583740234375,0.6320648193359375,1.074310302734375
1740006944637289200,8.925289306640625,0.07818603515625,0.57879638671875,1.0697479248046875
1740006944647270400,8.9352705078125,0.04962158203125,0.5226287841796875,1.064208984375
1740006944657252400,8.94525244140625,0.0247039794921875,0.475616455078125,1.074493408203125
1740006944667234300,8.955234375,0.0212554931640625,0.4570465087890625,1.1036834716796875
1740006944677216300,8.96521630859375,0.0344696044921875,0.470062255859375,1.1426849365234375
1740006944687198500,8.975198486328125,0.029266357421875,0.479827880859375,1.154754638671875
1740006944697179400,8.985179443359375,0.0380096435546875,0.46929931640625,1.1303863525390625
1740006944707161300,8.995161376953124,0.0430908203125,0.47784423828125,1.10272216796875
1740006944717143300,9.005143310546876,-0.001434326171875,0.48541259765625,1.109588623046875
1740006944727125500,9.01512548828125,-0.0288543701171875,0.4948577880859375,1.100982666015625
1740006944737107200,9.025107177734375,-0.0354461669921875,0.5255126953125,1.0735626220703125
1740006944747089400,9.03508935546875,-0.0345611572265625,0.5535430908203125,1.0453948974609375
1740006944757070300,9.0450703125,-0.032196044921875,0.576385498046875,1.0162353515625
1740006944767052300,9.05505224609375,-0.0443267822265625,0.59771728515625,0.9748077392578125
1740006944777034200,9.0650341796875,-0.0492706298828125,0.6093597412109375,0.9291839599609375
1740006944787016400,9.075016357421875,-0.02716064453125,0.61846923828125,0.8714141845703125
1740006944796998100,9.084998046875,0.004241943359375,0.6174163818359375,0.805419921875
1740006944806980400,9.09498046875,0.0328216552734375,0.6110992431640625,0.740936279296875
1740006944816961300,9.104961181640626,0.062103271484375,0.610504150390625,0.692596435546875
1740006944826943500,9.114943603515625,0.087310791015625,0.616729736328125,0.6564788818359375
1740006944836925200,9.12492529296875,0.09991455078125,0.617401123046875,0.6164398193359375
1740006944846907400,9.134907470703125,0.106292724609375,0.6107025146484375,0.5778656005859375
1740006944856889300,9.144889404296874,0.1128692626953125,0.6063995361328125,0.5550079345703125
1740006944866870500,9.15487060546875,0.114776611328125,0.6155548095703125,0.5521087646484375
1740006944876852200,9.164852294921875,0.11016845703125,0.62939453125,0.55548095703125
1740006944886834400,9.17483447265625,0.0990142822265625,0.6402587890625,0.55780029296875
1740006944896816000,9.184816162109374,0.07965087890625,0.653656005859375,0.5713043212890625
1740006944906798300,9.19479833984375,0.049041748046875,0.6747283935546875,0.6071319580078125
1740006944916780500,9.204780517578126,0.008209228515625,0.705535888671875,0.661895751953125
1740006944926761500,9.214761474609375,-0.032012939453125,0.7357940673828125,0.716278076171875
1740006944936743400,9.224743408203125,-0.069244384765625,0.7547454833984375,0.7534942626953125
1740006944946725400,9.234725341796874,-0.0997314453125,0.7606964111328125,0.7789154052734375
1740006944956707600,9.24470751953125,-0.125,0.7510986328125,0.782745361328125
1740006944966689300,9.254689208984376,-0.133514404296875,0.7396240234375,0.77337646484375
1740006944976670500,9.26467041015625,-0.1410369873046875,0.721343994140625,0.764190673828125
1740006944986652400,9.27465234375,-0.138641357421875,0.69232177734375,0.756744384765625
1740006944996634400,9.28463427734375,-0.113616943359375,0.671600341796875,0.7772216796875
1740006945006616300,9.2946162109375,-0.0719146728515625,0.663177490234375,0.8310089111328125
1740006945016598500,9.3045986328125,-0.0267181396484375,0.660064697265625,0.904510498046875
1740006945026580500,9.31458056640625,0.0162200927734375,0.6620330810546875,1.0070037841796875
1740006945036561400,9.3245615234375,0.0740966796875,0.673187255859375,1.1380462646484375
1740006945046543400,9.33454345703125,0.14959716796875,0.6937713623046875,1.286712646484375
1740006945056525600,9.344525634765626,0.2413330078125,0.7128448486328125,1.43365478515625
1740006945066507300,9.35450732421875,0.3333740234375,0.7231597900390625,1.5472412109375
1740006945076489500,9.364489501953125,0.3841094970703125,0.706817626953125,1.5929412841796875
1740006945086470400,9.374470458984375,0.39630126953125,0.663970947265625,1.579559326171875
1740006945096452400,9.384452392578124,0.3760223388671875,0.61285400390625,1.5242156982421875
1740006945106434300,9.394434326171876,0.334228515625,0.556182861328125,1.477264404296875
1740006945116416500,9.40441650390625,0.3011627197265625,0.5022735595703125,1.441864013671875
1740006945126398500,9.4143984375,0.282623291015625,0.4573516845703125,1.406890869140625
1740006945136380400,9.42438037109375,0.2646942138671875,0.4178924560546875,1.374053955078125
1740006945146361300,9.434361328125,0.235015869140625,0.3797149658203125,1.3405914306640625
1740006945156343600,9.444343505859376,0.195892333984375,0.3474273681640625,1.3004608154296875
1740006945166325500,9.454325439453125,0.147918701171875,0.309783935546875,1.2505340576171875
1740006945176307500,9.464307373046875,0.0975189208984375,0.273223876953125,1.2128448486328125
1740006945186289700,9.47428955078125,0.0635833740234375,0.2469635009765625,1.178863525390625
1740006945196270600,9.4842705078125,0.05401611328125,0.2288818359375,1.150787353515625
1740006945206252500,9.49425244140625,0.0584716796875,0.2251739501953125,1.1410369873046875
1740006945216234500,9.504234375,0.06402587890625,0.190765380859375,1.1448516845703125
1740006945226216400,9.514216552734375,0.0756988525390625,0.150177001953125,1.149810791015625
1740006945236198400,9.524198486328125,0.097564697265625,0.1217041015625,1.170501708984375
1740006945246180600,9.5341806640625,0.100616455078125,0.1121368408203125,1.20343017578125
1740006945256161500,9.54416162109375,0.0755615234375,0.1110382080078125,1.2252960205078125
1740006945266143500,9.5541435546875,0.0588531494140625,0.111602783203125,1.243499755859375
1740006945276125400,9.56412548828125,0.0486907958984375,0.1162109375,1.27044677734375
1740006945286107600,9.574107666015625,0.051177978515625,0.119110107421875,1.282440185546875
1740006945296089300,9.58408935546875,0.0816802978515625,0.091094970703125,1.2955474853515625
1740006945306071600,9.594071533203126,0.0944976806640625,0.0698699951171875,1.310943603515625
1740006945316052500,9.604052490234375,0.086456298828125,0.07550048828125,1.3056793212890625
1740006945326034400,9.614034423828125,0.0787200927734375,0.06988525390625,1.282867431640625
1740006945336016400,9.624016357421874,0.07373046875,0.05950927734375,1.2741851806640625
1740006945345998600,9.63399853515625,0.05450439453125,0.049041748046875,1.2803802490234375
1740006945355980300,9.643980224609376,0.037384033203125,0.0489654541015625,1.306304931640625
1740006945365961500,9.65396142578125,-0.008026123046875,0.04913330078125,1.3291473388671875
1740006945375943400,9.663943359375,-0.075836181640625,0.05462646484375,1.3373260498046875
1740006945385925600,9.673925537109374,-0.1237945556640625,0.04803466796875,1.3725738525390625
1740006945395907300,9.6839072265625,-0.156341552734375,0.023834228515625,1.3944244384765625
1740006945405889500,9.6938896484375,-0.190948486328125,0.0294036865234375,1.38623046875
1740006945415871500,9.70387158203125,-0.2288970947265625,0.0435791015625,1.4004669189453125
1740006945425852400,9.713852294921875,-0.2618560791015625,0.07269287109375,1.4151458740234375
1740006945435834400,9.72383447265625,-0.2918701171875,0.11090087890625,1.4843597412109375
1740006945445816600,9.733816650390626,-0.3330841064453125,0.181732177734375,1.5803070068359375
1740006945455798300,9.74379833984375,-0.374786376953125,0.2510528564453125,1.6483001708984375
1740006945465780500,9.753780517578125,-0.409210205078125,0.2881927490234375,1.6848297119140625
1740006945475761400,9.763761474609375,-0.44415283203125,0.297149658203125,1.6717071533203125
1740006945485743600,9.77374365234375,-0.4741363525390625,0.287933349609375,1.636688232421875
1740006945495725300,9.783725341796876,-0.494903564453125,0.27252197265625,1.5758514404296875
1740006945505707500,9.79370751953125,-0.50592041015625,0.2481536865234375,1.486328125
1740006945515689500,9.803689453125,-0.5132904052734375,0.220947265625,1.3917694091796875
1740006945525671400,9.81367138671875,-0.531219482421875,0.2135009765625,1.328277587890625
1740006945535652400,9.82365234375,-0.548919677734375,0.2314910888671875,1.323638916015625
1740006945545634600,9.833634521484376,-0.5440216064453125,0.2896270751953125,1.366790771484375
1740006945555616300,9.8436162109375,-0.541534423828125,0.3685302734375,1.44683837890625
1740006945565598500,9.853598388671875,-0.5622100830078125,0.4514312744140625,1.5216522216796875
1740006945575580400,9.863580322265625,-0.583953857421875,0.5089263916015625,1.565093994140625
1740006945585562400,9.873562255859374,-0.5879058837890625,0.5457305908203125,1.594757080078125
1740006945595543300,9.883543212890626,-0.5714263916015625,0.58673095703125,1.6062774658203125
1740006945605525500,9.893525390625,-0.53717041015625,0.636962890625,1.60693359375
1740006945615507500,9.903507568359375,-0.4390106201171875,0.6927337646484375,1.6161346435546875
1740006945625489400,9.913489501953125,-0.347869873046875,0.74322509765625,1.5540618896484375
1740006945635471400,9.923471435546874,-0.29888916015625,0.73223876953125,1.4471893310546875
1740006945645452500,9.93345263671875,-0.277496337890625,0.6991424560546875,1.308746337890625
1740006945655434500,9.9434345703125,-0.293182373046875,0.6596832275390625,1.17791748046875
1740006945665416400,9.95341650390625,-0.299224853515625,0.63568115234375,1.0956573486328125
1740006945675398400,9.9633984375,-0.299102783203125,0.6277008056640625,1.0462646484375
1740006945685380400,9.97338037109375,-0.307281494140625,0.6179962158203125,1.0258941650390625
1740006945695362600,9.983362548828126,-0.324371337890625,0.615966796875,1.01922607421875
1740006945705343500,9.993343505859375,-0.3083648681640625,0.599609375,1.0040283203125
1740006945715325400,10.003325439453125,-0.2532196044921875,0.5862274169921875,0.96484375
1740006945725307400,10.013307373046874,-0.212921142578125,0.6127777099609375,0.9460601806640625
1740006945735289600,10.02328955078125,-0.2058563232421875,0.641876220703125,0.928497314453125
1740006945745271600,10.033271484375,-0.2126007080078125,0.6305694580078125,0.882965087890625
1740006945755253500,10.04325341796875,-0.2009429931640625,0.6036834716796875,0.8217926025390625
1740006945765234400,10.053234375,-0.1656036376953125,0.581024169921875,0.77435302734375
1740006945775216400,10.06321630859375,-0.126678466796875,0.574371337890625,0.742767333984375
1740006945785198300,10.0731982421875,-0.084503173828125,0.5797882080078125,0.7169952392578125
1740006945795180500,10.0831806640625,-0.0517425537109375,0.5849456787109375,0.6949920654296875
1740006945805162500,10.09316259765625,-0.0308837890625,0.5838775634765625,0.6833343505859375
1740006945815143400,10.103143310546875,-0.022857666015625,0.5722198486328125,0.674530029296875
1740006945825125400,10.11312548828125,-0.0119171142578125,0.56256103515625,0.659271240234375
1740006945835107600,10.123107666015626,-0.002838134765625,0.55419921875,0.6338653564453125
1740006945845089500,10.133089599609375,0.000823974609375,0.5406951904296875,0.6167755126953125
1740006945855071500,10.143071533203125,0.0030975341796875,0.5227508544921875,0.602691650390625
1740006945865053400,10.153053466796875,0.0106048583984375,0.508941650390625,0.5833282470703125
1740006945875034600,10.16303466796875,0.0230255126953125,0.50567626953125,0.5789794921875
1740006945885016300,10.173016357421876,0.03692626953125,0.51019287109375,0.59246826171875
1740006945894998500,10.18299853515625,0.045867919921875,0.51544189453125,0.630462646484375
1740006945904980500,10.19298046875,0.0516510009765625,0.5323028564453125,0.6692047119140625
1740006945914962400,10.20296240234375,0.0588226318359375,0.556884765625,0.713348388671875
1740006945924944400,10.2129443359375,0.040008544921875,0.5700836181640625,0.73712158203125
1740006945934925600,10.222925537109376,0.0008392333984375,0.558624267578125,0.7313690185546875
1740006945944907500,10.232907470703125,-0.030609130859375,0.542816162109375,0.73504638671875
1740006945954889500,10.242889404296875,-0.0574798583984375,0.54962158203125,0.771728515625
1740006945964871400,10.252871337890625,-0.0732421875,0.5705413818359375,0.838653564453125
1740006945974853600,10.262853515625,-0.06512451171875,0.61236572265625,0.9134979248046875
1740006945984835300,10.27283544921875,-0.0482025146484375,0.6644744873046875,0.9862060546875
1740006945994816500,10.28281640625,-0.038116455078125,0.703857421875,1.0225372314453125
1740006946004798500,10.292798583984375,-0.0488739013671875,0.70257568359375,1.0040435791015625
1740006946014780400,10.302780517578125,-0.0919342041015625,0.653717041015625,0.948211669921875
1740006946024762400,10.312762451171874,-0.13568115234375,0.6107635498046875,0.9074249267578125
1740006946034744600,10.32274462890625,-0.162872314453125,0.6053009033203125,0.9198455810546875
1740006946044725500,10.3327255859375,-0.1702728271484375,0.6162872314453125,0.9720611572265625
1740006946054707500,10.34270751953125,-0.167877197265625,0.612945556640625,1.0339508056640625
1740006946064689400,10.352689453125,-0.1651153564453125,0.5933074951171875,1.113494873046875
1740006946074671600,10.362671630859374,-0.1492462158203125,0.5933685302734375,1.222900390625
1740006946084653300,10.3726533203125,-0.1093292236328125,0.6069793701171875,1.347930908203125
1740006946094635500,10.382635498046875,-0.048553466796875,0.6241302490234375,1.4742431640625
1740006946104616400,10.392616455078125,0.009979248046875,0.6192474365234375,1.58624267578125
1740006946114598400,10.402598388671874,0.05224609375,0.59381103515625,1.6510009765625
1740006946124580400,10.412580322265624,0.0846405029296875,0.54876708984375,1.704132080078125
1740006946134562600,10.4225625,0.1179351806640625,0.512786865234375,1.7476654052734375
1740006946144544300,10.432544189453125,0.1564483642578125,0.4727783203125,1.7316741943359375
1740006946154526500,10.4425263671875,0.1945953369140625,0.4268341064453125,1.6519012451171875
1740006946164507400,10.45250732421875,0.2068023681640625,0.3747711181640625,1.5413055419921875
1740006946174489600,10.462489501953126,0.188720703125,0.3376922607421875,1.41729736328125
1740006946184471300,10.47247119140625,0.1336517333984375,0.313507080078125,1.32391357421875
1740006946194453500,10.48245361328125,0.05865478515625,0.29656982421875,1.27740478515625
1740006946204435500,10.492435546875,-0.0287628173828125,0.27496337890625,1.2461395263671875
1740006946214416400,10.50241650390625,-0.1171722412109375,0.248748779296875,1.2209014892578125
1740006946224398300,10.5123984375,-0.1879425048828125,0.2208099365234375,1.2023162841796875
1740006946234380500,10.522380615234376,-0.251861572265625,0.171966552734375,1.2034759521484375
1740006946244362200,10.5323623046875,-0.3056640625,0.0974578857421875,1.205230712890625
1740006946254344400,10.542344482421875,-0.32537841796875,0.0452117919921875,1.19464111328125
1740006946264326700,10.55232666015625,-0.336334228515625,0.005767822265625,1.1936187744140625
1740006946274307600,10.5623076171875,-0.344451904296875,-0.023681640625,1.211669921875
1740006946284289300,10.572289306640625,-0.3280792236328125,-0.037017822265625,1.20166015625
1740006946294271500,10.582271484375,-0.3108673095703125,-0.03448486328125,1.20587158203125
1740006946304253400,10.59225341796875,-0.292083740234375,-0.0332794189453125,1.19720458984375
1740006946314235400,10.6022353515625,-0.26702880859375,-0.038909912109375,1.1678619384765625
1740006946324217600,10.612217529296874,-0.22998046875,-0.0346221923828125,1.14404296875
1740006946334198500,10.622198486328125,-0.18487548828125,-0.018035888671875,1.0944976806640625
1740006946344180200,10.63218017578125,-0.1547088623046875,-0.0031890869140625,1.0730133056640625
1740006946354162400,10.642162353515625,-0.142913818359375,0.0215911865234375,1.0549163818359375
1740006946364144600,10.65214453125,-0.1558685302734375,0.0391387939453125,1.0493011474609375
1740006946374126300,10.662126220703126,-0.1909637451171875,0.0430908203125,1.0778961181640625
1740006946384108500,10.672108642578126,-0.2336883544921875,0.02984619140625,1.1230926513671875
1740006946394089500,10.68208935546875,-0.2868804931640625,-0.0168609619140625,1.2557525634765625
1740006946404071700,10.69207177734375,-0.3403167724609375,-0.1032867431640625,1.3311004638671875
1740006946414053400,10.702053466796874,-0.385040283203125,-0.1478424072265625,1.2844696044921875
1740006946424035600,10.71203564453125,-0.4263763427734375,-0.17022705078125,1.277374267578125
1740006946434017500,10.722017578125,-0.456085205078125,-0.1695404052734375,1.3248443603515625
1740006946443999500,10.73199951171875,-0.4687652587890625,-0.1353912353515625,1.3588104248046875
1740006946453980400,10.74198046875,-0.474395751953125,-0.0979766845703125,1.362396240234375
1740006946463962600,10.751962646484374,-0.500091552734375,-0.079864501953125,1.3508758544921875
1740006946473944300,10.7619443359375,-0.5633697509765625,-0.073211669921875,1.364105224609375
1740006946483926500,10.771926513671875,-0.6346282958984375,-0.0594940185546875,1.3979034423828125
1740006946493908500,10.781908447265625,-0.7184906005859375,-0.0232391357421875,1.4576416015625
1740006946503889700,10.7918896484375,-0.81219482421875,0.015228271484375,1.540679931640625
1740006946513871400,10.801871337890624,-0.7679595947265625,0.0415191650390625,1.5529632568359375
1740006946523853600,10.811853515625,-0.6043243408203125,0.0630035400390625,1.5012054443359375
1740006946533835500,10.82183544921875,-0.8260040283203125,0.0650177001953125,1.496551513671875
1740006946543817500,10.8318173828125,-1.12359619140625,0.0781097412109375,1.4806976318359375
1740006946553799400,10.84179931640625,-1.125732421875,0.0681915283203125,1.382568359375
1740006946563780600,10.851780517578124,-0.939239501953125,0.0232696533203125,1.2222900390625
1740006946573762300,10.86176220703125,-0.8742523193359375,0.0215301513671875,1.1748046875
1740006946583744500,10.87174462890625,-0.8534698486328125,0.087432861328125,1.1986083984375
1740006946593726500,10.8817265625,-0.8311309814453125,0.166839599609375,1.2546234130859375
1740006946603708400,10.89170849609375,-0.8210601806640625,0.2326812744140625,1.3031463623046875
1740006946613690400,10.9016904296875,-0.7932586669921875,0.29766845703125,1.3412933349609375
1740006946623671600,10.911671630859376,-0.742431640625,0.3694915771484375,1.380126953125
1740006946633653500,10.921653564453125,-0.7045745849609375,0.4253692626953125,1.4235076904296875
1740006946643635500,10.931635498046875,-0.6615447998046875,0.4617919921875,1.444122314453125
1740006946653617400,10.941617431640625,-0.5850677490234375,0.4987945556640625,1.4013824462890625
1740006946663599600,10.951599609375,-0.4851531982421875,0.528594970703125,1.3100128173828125
1740006946673581300,10.961581298828126,-0.4398651123046875,0.5168304443359375,1.2123565673828125
1740006946683562500,10.9715625,-0.41192626953125,0.486297607421875,1.1337890625
1740006946693544400,10.98154443359375,-0.3596343994140625,0.458038330078125,1.094757080078125
1740006946703526400,10.9915263671875,-0.39166259765625,0.4460906982421875,1.1090545654296875
1740006946713508400,11.00150830078125,-0.4751129150390625,0.4568023681640625,1.10247802734375
1740006946723490600,11.011490478515626,-0.5334625244140625,0.4671478271484375,1.063995361328125
1740006946733472300,11.02147216796875,-0.5644683837890625,0.4768524169921875,1.0117340087890625
1740006946743453400,11.031453369140625,-0.5417633056640625,0.4616851806640625,0.95196533203125
1740006946753435400,11.041435302734374,-0.5234832763671875,0.4394683837890625,0.903564453125
1740006946763417600,11.05141748046875,-0.552215576171875,0.4459228515625,0.8861541748046875
1740006946773399300,11.0613994140625,-0.533172607421875,0.4576873779296875,0.8914947509765625
1740006946783381500,11.071381591796875,-0.5021514892578125,0.4643707275390625,0.882232666015625
1740006946793363500,11.081363525390625,-0.4875030517578125,0.47088623046875,0.8553466796875
1740006946803344400,11.091344482421874,-0.4393157958984375,0.4804229736328125,0.838897705078125
1740006946813326300,11.101326416015626,-0.3720855712890625,0.499786376953125,0.848663330078125
1740006946823308500,11.11130859375,-0.3840789794921875,0.4906768798828125,0.882904052734375
1740006946833290200,11.121290283203125,-0.41363525390625,0.4818878173828125,0.894287109375
1740006946843272400,11.1312724609375,-0.369873046875,0.504913330078125,0.9585113525390625
1740006946853254700,11.141254638671874,-0.2973785400390625,0.5629119873046875,0.9572906494140625
1740006946863235600,11.151235595703126,-0.248138427734375,0.583404541015625,0.9230804443359375
1740006946873217300,11.16121728515625,-0.2116546630859375,0.561126708984375,0.870025634765625
1740006946883199500,11.171199462890625,-0.1893463134765625,0.52978515625,0.801910400390625
1740006946893181400,11.181181396484375,-0.2026214599609375,0.5170135498046875,0.761016845703125
1740006946903163400,11.191163330078124,-0.2209930419921875,0.530731201171875,0.75518798828125
1740006946913144600,11.20114453125,-0.2207489013671875,0.550994873046875,0.76519775390625
1740006946923126800,11.211126708984375,-0.225189208984375,0.56085205078125,0.7754974365234375
1740006946933108700,11.221108642578125,-0.227691650390625,0.5720062255859375,0.777008056640625
1740006946943090700,11.231090576171875,-0.2347259521484375,0.5688934326171875,0.7821044921875
1740006946953073000,11.241072998046874,-0.224029541015625,0.55780029296875,0.76007080078125
1740006946963054600,11.2510546875,-0.1910552978515625,0.5545806884765625,0.7381439208984375
1740006946973036800,11.261036865234376,-0.1735687255859375,0.55328369140625,0.7103271484375
1740006946983017700,11.271017822265625,-0.1613006591796875,0.543701171875,0.670013427734375
1740006946992999700,11.280999755859375,-0.1519775390625,0.538848876953125,0.6366424560546875
1740006947002981600,11.290981689453124,-0.152130126953125,0.5597381591796875,0.64599609375
1740006947012963800,11.3009638671875,-0.1692657470703125,0.6017913818359375,0.724761962890625
1740006947022945500,11.310945556640625,-0.19146728515625,0.6468048095703125,0.8166351318359375
1740006947032926700,11.3209267578125,-0.2010955810546875,0.6789093017578125,0.87420654296875
1740006947042908700,11.33090869140625,-0.2065582275390625,0.6849822998046875,0.881195068359375
1740006947052891000,11.340890869140624,-0.21844482421875,0.6705780029296875,0.8590240478515625
1740006947062872600,11.35087255859375,-0.23431396484375,0.6367645263671875,0.824615478515625
1740006947072854800,11.360854736328125,-0.22381591796875,0.5923919677734375,0.796142578125
1740006947082836700,11.370836669921875,-0.2036285400390625,0.55810546875,0.789154052734375
1740006947092817700,11.380817626953124,-0.1805419921875,0.536529541015625,0.79815673828125
1740006947102799600,11.390799560546874,-0.15814208984375,0.5279541015625,0.8188629150390625
1740006947112781800,11.40078173828125,-0.1523895263671875,0.52301025390625,0.8577728271484375
1740006947122763500,11.410763427734375,-0.1574859619140625,0.5240478515625,0.9228668212890625
1740006947132745700,11.420745849609375,-0.1705780029296875,0.5394439697265625,1.0153350830078125
1740006947142727700,11.430727783203125,-0.1854095458984375,0.565277099609375,1.1351470947265625
1740006947152708900,11.440708984375,-0.1982269287109375,0.60443115234375,1.2740325927734375
1740006947162690600,11.450690673828126,-0.1989288330078125,0.63507080078125,1.389190673828125
1740006947172672800,11.4606728515625,-0.202545166015625,0.6386566162109375,1.4779205322265625
1740006947182654700,11.47065478515625,-0.20880126953125,0.612060546875,1.5326080322265625
1740006947192636700,11.48063671875,-0.215179443359375,0.5739898681640625,1.5546112060546875
1740006947202618600,11.49061865234375,-0.2099151611328125,0.5372772216796875,1.5333251953125
1740006947212599800,11.500599853515626,-0.199188232421875,0.490386962890625,1.4668426513671875
1740006947222581500,11.51058154296875,-0.1956329345703125,0.43896484375,1.3830718994140625
1740006947232563700,11.520563720703125,-0.17864990234375,0.3975067138671875,1.2859039306640625
1740006947242545700,11.530545654296875,-0.1646728515625,0.365234375,1.2093353271484375
1740006947252527600,11.540527587890624,-0.167877197265625,0.3468017578125,1.1492919921875
1740006947262509800,11.550509765625,-0.18853759765625,0.3384246826171875,1.1270599365234375
1740006947272490800,11.56049072265625,-0.2265472412109375,0.3134918212890625,1.145355224609375
1740006947282472700,11.57047265625,-0.2681427001953125,0.287445068359375,1.186767578125
1740006947292454700,11.58045458984375,-0.2980499267578125,0.25067138671875,1.2426910400390625
1740006947302436600,11.5904365234375,-0.3025970458984375,0.201019287109375,1.284423828125
1740006947312418800,11.600418701171876,-0.286590576171875,0.14471435546875,1.31292724609375
1740006947322400800,11.61040087890625,-0.246551513671875,0.098388671875,1.3315582275390625
1740006947332381700,11.620381591796875,-0.19293212890625,0.0647430419921875,1.33868408203125
1740006947342363600,11.63036376953125,-0.1334381103515625,0.04229736328125,1.3516845703125
1740006947352345600,11.640345703125,-0.06396484375,0.02081298828125,1.3575439453125
1740006947362327800,11.650327880859376,0.0130615234375,-0.008270263671875,1.3675079345703125
1740006947372309800,11.660309814453125,0.0952606201171875,-0.0370635986328125,1.394561767578125
1740006947382291700,11.670291748046875,0.167144775390625,-0.0643157958984375,1.3797454833984375
1740006947392272600,11.680272705078124,0.220001220703125,-0.079376220703125,1.3465423583984375
1740006947402254800,11.6902548828125,0.2476348876953125,-0.0753631591796875,1.326751708984375
1740006947412236800,11.70023681640625,0.258636474609375,-0.0555267333984375,1.3239898681640625
1740006947422218800,11.71021875,0.2555084228515625,-0.0328521728515625,1.3250885009765625
1740006947432200700,11.72020068359375,0.254791259765625,-0.01318359375,1.3332061767578125
1740006947442182700,11.7301826171875,0.2411041259765625,0.009307861328125,1.3547515869140625
1740006947452163600,11.74016357421875,0.208099365234375,0.0343017578125,1.4013519287109375
1740006947462145800,11.750145751953125,0.1591644287109375,0.059539794921875,1.4533233642578125
1740006947472127700,11.760127685546875,0.104705810546875,0.0774993896484375,1.4714813232421875
1740006947482109700,11.770109619140625,0.051025390625,0.0923309326171875,1.494598388671875
1740006947492091600,11.780091552734374,-0.0150299072265625,0.103363037109375,1.518280029296875
1740006947502073900,11.790073974609374,-0.0714263916015625,0.1025390625,1.529998779296875
1740006947512054800,11.8000546875,-0.11273193359375,0.0946197509765625,1.551605224609375
1740006947522036700,11.81003662109375,-0.133636474609375,0.102386474609375,1.611175537109375
1740006947532018700,11.820018798828125,-0.1437835693359375,0.143890380859375,1.6894073486328125
1740006947542001000,11.8300009765625,-0.1221771240234375,0.169677734375,1.7720794677734375
1740006947551982600,11.839982666015626,-0.1284027099609375,0.16156005859375,1.8220367431640625
1740006947561964800,11.84996484375,-0.1472015380859375,0.13201904296875,1.83441162109375
1740006947571945700,11.85994580078125,-0.1362152099609375,0.0986175537109375,1.8191070556640625
1740006947581927700,11.869927734375,-0.1291351318359375,0.05328369140625,1.76763916015625
1740006947591909600,11.87990966796875,-0.1505279541015625,-0.0010223388671875,1.692108154296875
1740006947601891800,11.889891845703126,-0.1446380615234375,-0.0408477783203125,1.59381103515625
1740006947611873500,11.89987353515625,-0.1417388916015625,-0.0440521240234375,1.517364501953125
1740006947621855700,11.909855712890625,-0.1709747314453125,-0.0026702880859375,1.498870849609375
1740006947631837700,11.919837646484375,-0.1775970458984375,0.079193115234375,1.5371856689453125
1740006947641819600,11.929819580078124,-0.162994384765625,0.1966400146484375,1.61602783203125
1740006947651800600,11.939800537109376,-0.142608642578125,0.329803466796875,1.6975860595703125
1740006947661782800,11.94978271484375,-0.1240081787109375,0.464874267578125,1.7531280517578125
1740006947671764700,11.9597646484375,-0.100189208984375,0.5983734130859375,1.7905426025390625
1740006947681746700,11.96974658203125,-0.07513427734375,0.72222900390625,1.801116943359375
1740006947691728600,11.979728759765624,-0.0472412109375,0.8059234619140625,1.744049072265625
1740006947701710600,11.989710693359376,-0.0347137451171875,0.8250274658203125,1.62689208984375
1740006947711691500,11.99969140625,-0.01837158203125,0.7843780517578125,1.4648284912109375
1740006947721673700,12.009673828125,0.0109100341796875,0.712646484375,1.2925872802734375
1740006947731655700,12.01965576171875,0.01776123046875,0.629302978515625,1.183013916015625
1740006947741637600,12.0296376953125,0.021240234375,0.545989990234375,1.1195068359375
1740006947751619800,12.039619873046876,0.0741119384765625,0.4838409423828125,1.077789306640625
1740006947761601800,12.049601806640625,0.082122802734375,0.4618072509765625,1.0932159423828125
1740006947771582700,12.059582763671875,0.041046142578125,0.468597412109375,1.1725311279296875
1740006947781564700,12.069564697265625,0.002349853515625,0.4667205810546875,1.2359771728515625
1740006947791547000,12.079546875,-0.0500335693359375,0.46734619140625,1.24737548828125
1740006947801528600,12.089528564453126,-0.0860748291015625,0.471099853515625,1.232330322265625
1740006947811510800,12.0995107421875,-0.103973388671875,0.4713897705078125,1.1990814208984375
1740006947821492700,12.10949267578125,-0.128387451171875,0.491668701171875,1.1922760009765625
1740006947831473700,12.1194736328125,-0.1404266357421875,0.522613525390625,1.2105255126953125
1740006947841455600,12.12945556640625,-0.129119873046875,0.55828857421875,1.213623046875
1740006947851437800,12.139437744140626,-0.1079864501953125,0.588714599609375,1.185546875
1740006947861419800,12.149419677734375,-0.0991973876953125,0.61297607421875,1.144073486328125
1740006947871401700,12.159401611328125,-0.10198974609375,0.6257476806640625,1.106231689453125
1740006947881383700,12.1693837890625,-0.1047210693359375,0.6453857421875,1.0805816650390625
1740006947891364900,12.17936474609375,-0.107452392578125,0.6618804931640625,1.054931640625
1740006947901346600,12.1893466796875,-0.0895233154296875,0.6644287109375,1.0329742431640625
1740006947911328300,12.199328369140625,-0.0748748779296875,0.6673736572265625,1.01776123046875
1740006947921310200,12.209310302734375,-0.0695953369140625,0.677459716796875,1.008026123046875
1740006947931292400,12.21929248046875,-0.058868408203125,0.6863555908203125,0.9984283447265625
1740006947941274000,12.229274169921876,-0.04864501953125,0.693389892578125,0.978271484375
1740006947951255300,12.23925537109375,-0.059295654296875,0.7077484130859375,0.959014892578125
1740006947961237200,12.2492373046875,-0.0739898681640625,0.7215728759765625,0.94598388671875
1740006947971219200,12.25921923828125,-0.08404541015625,0.7331085205078125,0.9310150146484375
1740006947981201200,12.269201171875,-0.0848236083984375,0.742828369140625,0.9018707275390625
1740006947991183400,12.279183349609376,-0.0938873291015625,0.7440643310546875,0.8676910400390625
1740006948001165000,12.2891650390625,-0.111846923828125,0.73272705078125,0.8233184814453125
1740006948011146200,12.299146240234375,-0.1362152099609375,0.7083892822265625,0.7651519775390625
1740006948021128200,12.309128173828125,-0.1543731689453125,0.6851043701171875,0.71771240234375
1740006948031110400,12.3191103515625,-0.164703369140625,0.68353271484375,0.7034912109375
1740006948041092000,12.329092041015626,-0.158203125,0.7075958251953125,0.7174224853515625
1740006948051073300,12.3390732421875,-0.136474609375,0.7358856201171875,0.73272705078125
1740006948061055200,12.34905517578125,-0.1052703857421875,0.7490386962890625,0.718536376953125
1740006948071037200,12.359037109375,-0.06732177734375,0.744659423828125,0.694000244140625
1740006948081019100,12.36901904296875,-0.02581787109375,0.731781005859375,0.65252685546875
1740006948091001300,12.37900146484375,0.0035400390625,0.717437744140625,0.604522705078125
1740006948100983000,12.388983154296875,0.02215576171875,0.681793212890625,0.54144287109375
1740006948110965200,12.39896533203125,0.0121307373046875,0.6277923583984375,0.4879150390625
1740006948120946200,12.4089462890625,-0.0138092041015625,0.577606201171875,0.48394775390625
1740006948130928400,12.418928466796874,-0.040191650390625,0.5409698486328125,0.5466766357421875
1740006948140910000,12.42891015625,-0.0556793212890625,0.518768310546875,0.6601409912109375
1740006948150892300,12.438892333984375,-0.0449676513671875,0.5079498291015625,0.798065185546875
1740006948160874200,12.448874267578125,-0.0169677734375,0.512298583984375,0.947357177734375
1740006948170856200,12.458856201171875,0.023895263671875,0.5332489013671875,1.0953216552734375
1740006948180837000,12.468837158203126,0.0829925537109375,0.5702972412109375,1.2137603759765625
1740006948190819300,12.4788193359375,0.1383514404296875,0.5931243896484375,1.2682647705078125
1740006948200801000,12.488801025390625,0.178497314453125,0.6127166748046875,1.2830810546875
1740006948210783200,12.498783203125,0.1871337890625,0.6394500732421875,1.2856292724609375
1740006948220765200,12.50876513671875,0.16143798828125,0.6251983642578125,1.28448486328125
1740006948230747100,12.5187470703125,0.134735107421875,0.5962371826171875,1.2667083740234375
1740006948240728000,12.52872802734375,0.1105804443359375,0.5665740966796875,1.2649383544921875
1740006948250710300,12.538710205078125,0.0837860107421875,0.539154052734375,1.2794036865234375
1740006948260692200,12.548692138671875,0.0662078857421875,0.515045166015625,1.3031768798828125
1740006948270674200,12.558674072265624,0.0389862060546875,0.4906768798828125,1.31170654296875
1740006948280656100,12.56865625,-0.000274658203125,0.4620361328125,1.30242919921875
1740006948290638300,12.578638427734376,-0.0425262451171875,0.4365997314453125,1.284912109375
1740006948300619000,12.588618896484375,-0.0812225341796875,0.4111785888671875,1.2687530517578125
1740006948310601200,12.598601318359375,-0.1142730712890625,0.4006195068359375,1.28045654296875
1740006948320583200,12.608583251953124,-0.1299285888671875,0.384246826171875,1.3148345947265625
1740006948330565000,12.618565185546874,-0.13134765625,0.3379058837890625,1.3504638671875
1740006948340547300,12.62854736328125,-0.111846923828125,0.2940673828125,1.3909912109375
1740006948350529300,12.638529296875,-0.101409912109375,0.2495269775390625,1.42889404296875
1740006948360510200,12.64851025390625,-0.094970703125,0.20989990234375,1.4608154296875
1740006948370492200,12.6584921875,-0.09759521484375,0.16949462890625,1.46734619140625
1740006948380474000,12.66847412109375,-0.1228485107421875,0.1298828125,1.482269287109375
1740006948390456300,12.678456298828126,-0.15924072265625,0.07330322265625,1.5234527587890625
1740006948400438300,12.688438232421875,-0.1497039794921875,0.00494384765625,1.54656982421875
1740006948410420200,12.698420166015625,-0.1140899658203125,-0.0284423828125,1.5618743896484375
1740006948420402200,12.708402099609375,-0.0662078857421875,-0.0734405517578125,1.558929443359375
1740006948430383000,12.718383056640626,-0.008453369140625,-0.1196746826171875,1.5334320068359375
1740006948440365300,12.728365234375,0.0464324951171875,-0.134429931640625,1.515899658203125
1740006948450347300,12.73834716796875,0.1136932373046875,-0.120574951171875,1.50408935546875
1740006948460329200,12.7483291015625,0.1713714599609375,-0.080780029296875,1.4947357177734375
1740006948470311200,12.758311279296874,0.226226806640625,-0.047821044921875,1.51275634765625
1740006948480293400,12.76829345703125,0.2511138916015625,-0.0256195068359375,1.519500732421875
1740006948490274300,12.7782744140625,0.25750732421875,-0.0314788818359375,1.487945556640625
1740006948500256300,12.78825634765625,0.2472381591796875,-0.0110321044921875,1.449554443359375
1740006948510238200,12.79823828125,0.200653076171875,0.010498046875,1.4206390380859375
1740006948520220200,12.80822021484375,0.1333160400390625,0.0354156494140625,1.4138336181640625
1740006948530202000,12.8182021484375,0.0500335693359375,0.07550048828125,1.42694091796875
1740006948540184300,12.828184326171876,-0.026580810546875,0.10797119140625,1.45953369140625
1740006948550165200,12.838165283203125,-0.08892822265625,0.1276702880859375,1.5184326171875
1740006948560147200,12.848147216796875,-0.1460723876953125,0.1591033935546875,1.60968017578125
1740006948570129200,12.858129150390624,-0.19580078125,0.1973724365234375,1.697906494140625
1740006948580111400,12.868111328125,-0.2471160888671875,0.21673583984375,1.7637786865234375
1740006948590093000,12.878093017578125,-0.2950897216796875,0.200653076171875,1.810333251953125
1740006948600075300,12.8880751953125,-0.3405303955078125,0.1482086181640625,1.8141632080078125
1740006948610056200,12.89805615234375,-0.3787994384765625,0.0697021484375,1.7738189697265625
1740006948620038100,12.9080380859375,-0.4032745361328125,-0.015899658203125,1.6969146728515625
1740006948630020000,12.91802001953125,-0.429656982421875,-0.074920654296875,1.6204833984375
1740006948640002300,12.928002197265625,-0.4586639404296875,-0.096405029296875,1.5646514892578125
1740006948649984000,12.93798388671875,-0.475006103515625,-0.066925048828125,1.5389556884765625
1740006948659966200,12.94796630859375,-0.47381591796875,0.0110931396484375,1.557830810546875
1740006948669947100,12.957947021484374,-0.4559783935546875,0.123260498046875,1.61932373046875
1740006948679929300,12.967929443359376,-0.41986083984375,0.253875732421875,1.68353271484375
1740006948689911000,12.9779111328125,-0.3706817626953125,0.3671875,1.728240966796875
1740006948699893200,12.987893310546875,-0.3164520263671875,0.4568328857421875,1.763641357421875
1740006948709875200,12.997875244140625,-0.242401123046875,0.5506134033203125,1.7750244140625
1740006948719857200,13.007857177734374,-0.1608123779296875,0.64447021484375,1.7501068115234375
1740006948729839400,13.01783935546875,-0.0997772216796875,0.69329833984375,1.6917572021484375
1740006948739820300,13.0278203125,-0.0372314453125,0.694671630859375,1.5904693603515625
1740006948749802200,13.03780224609375,0.022186279296875,0.6649627685546875,1.457305908203125
1740006948759784200,13.0477841796875,0.045745849609375,0.6167755126953125,1.3419952392578125
