time,seconds_elapsed,z,y,x
1740006935749753300,0.03775341796875,-1.1981117725372314,0.4705882966518402,-0.033932119607925415
1740006935759735000,0.047735107421875,-0.5398812294006348,0.6465305685997009,-0.41492846608161926
1740006935769717200,0.05771728515625,0.06024571880698204,0.7268781661987305,-0.7048075795173645
1740006935779698200,0.0676982421875,0.2940678000450134,0.7459719777107239,-0.9148524403572083
1740006935789680000,0.07768017578125,0.2807898223400116,0.4892411530017853,-1.098212480545044
1740006935799662000,0.087662109375,0.13048233091831207,0.24239566922187805,-1.2322163581848145
1740006935809644300,0.097644287109375,-0.07605066150426865,0.518500030040741,-1.189062476158142
1740006935819625200,0.107625244140625,-0.2616138458251953,0.935634970664978,-1.0866007804870605
1740006935829607200,0.117607177734375,-0.4093649089336395,1.3203558921813965,-0.9908100366592407
1740006935839589000,0.127589111328125,-0.39739561080932617,1.657644510269165,-0.8695024847984314
1740006935849571300,0.1375712890625,-0.29035142064094543,1.8687851428985596,-0.7393273711204529
1740006935859553000,0.147552978515625,-0.16950036585330963,1.0952566862106323,-0.8519593477249146
1740006935869534200,0.1575341796875,-0.019936660304665565,0.8264575600624084,-0.941361665725708
1740006935879516200,0.16751611328125,0.20749889314174652,0.6861851215362549,-0.9387086033821106
1740006935889498000,0.177498046875,0.35465967655181885,0.6032265424728394,-0.9323563575744629
1740006935899480800,0.187480712890625,0.42838263511657715,0.6681655645370483,-0.815483808517456
1740006935909461800,0.197461669921875,0.46480265259742737,0.7291244864463806,-0.6059039831161499
1740006935919444000,0.20744384765625,0.4869857132434845,0.8468764424324036,-0.31747642159461975
1740006935929425700,0.21742578125,0.5136821269989014,1.0385043621063232,0.010517269372940063
1740006935939408000,0.227407958984375,0.5792789459228516,1.216801643371582,0.36886611580848694
1740006935949388800,0.237388916015625,0.6933073401451111,1.2815566062927246,0.7865331768989563
1740006935959370800,0.247370849609375,0.8352213501930237,1.2172431945800781,1.261405348777771
1740006935969352700,0.257352783203125,0.9956174492835999,1.0343180894851685,1.7745544910430908
1740006935979335000,0.2673349609375,1.0481232404708862,1.073970913887024,2.248145580291748
1740006935989315800,0.27731591796875,1.0208016633987427,1.1787891387939453,2.6108007431030273
1740006935999297800,0.2872978515625,1.0112379789352417,1.2090280055999756,2.8584611415863037
1740006936009279700,0.29727978515625,0.9845753312110901,1.1974239349365234,3.0135908126831055
1740006936019262000,0.307261962890625,0.8628861904144287,1.2404122352600098,3.018602132797241
1740006936029243000,0.317242919921875,0.771858274936676,1.6445657014846802,2.7951881885528564
1740006936039224800,0.327224853515625,0.7962576150894165,2.1747400760650635,2.5086770057678223
1740006936049206800,0.337206787109375,0.9853454232215881,2.5958127975463867,2.261461019515991
1740006936059188700,0.347188720703125,1.2299996614456177,2.687067747116089,2.106369972229004
1740006936069169700,0.357169677734375,1.3968991041183472,2.41200852394104,2.012281656265259
1740006936079151900,0.36715185546875,1.443924903869629,1.9783586263656616,1.9762717485427856
1740006936089133800,0.3771337890625,1.39681875705719,1.6183286905288696,1.973680853843689
1740006936099115800,0.38711572265625,1.3421461582183838,1.3393616676330566,1.9646828174591064
1740006936109097700,0.39709765625,1.3339606523513794,0.9803708791732788,1.922441005706787
1740006936119079000,0.407078857421875,1.5328176021575928,0.0973351001739502,1.7302316427230835
1740006936129060900,0.417060791015625,1.8954838514328003,-0.9907278418540955,1.35107421875
1740006936139042800,0.427042724609375,2.140909194946289,-1.5387579202651978,0.8118384480476379
1740006936149024800,0.437024658203125,2.196960210800171,-0.9494143724441528,0.11191198229789734
1740006936159006000,0.447005859375,2.1377146244049072,0.7502400279045105,-0.5405358672142029
1740006936168987600,0.456987548828125,2.1365790367126465,1.0670127868652344,-1.0029747486114502
1740006936178969900,0.466969970703125,1.9642696380615234,0.3653348386287689,-1.3687291145324707
1740006936188951800,0.476951904296875,1.5503225326538086,-0.19175438582897186,-1.6153076887130737
1740006936198933000,0.48693310546875,0.8614677786827087,-0.1931312382221222,-1.7513132095336914
1740006936208914700,0.496914794921875,0.01591341942548752,-0.025751886889338493,-1.786666750907898
1740006936218897000,0.50689697265625,-0.7764914631843567,-0.030273668467998505,-1.7733805179595947
1740006936228878800,0.51687890625,-1.3506824970245361,-0.08301485329866409,-1.751631736755371
1740006936238859800,0.52685986328125,-1.6639951467514038,-0.14129973948001862,-1.6667871475219727
1740006936248841700,0.536841796875,-1.704594373703003,-0.16717900335788727,-1.5035847425460815
1740006936258824000,0.546823974609375,-1.5186899900436401,-0.018009498715400696,-1.297700047492981
1740006936268805600,0.5568056640625,-1.1657088994979858,0.1382676661014557,-1.0444129705429077
1740006936278786800,0.566786865234375,-0.741125762462616,0.09221522510051727,-0.7840998768806458
1740006936288768800,0.576768798828125,-0.3581570088863373,0.14882886409759521,-0.49892663955688477
1740006936298751000,0.5867509765625,-0.07098913937807083,0.5150641202926636,-0.1640852838754654
1740006936308732700,0.596732666015625,0.07478658109903336,1.1436465978622437,0.20948833227157593
1740006936318715000,0.60671484375,0.07243234664201736,1.7576160430908203,0.5417682528495789
1740006936328695800,0.61669580078125,-0.04408854618668556,2.2360639572143555,0.8600607514381409
1740006936338677800,0.626677734375,-0.2382630854845047,2.559227466583252,1.1490176916122437
1740006936348659700,0.63665966796875,-0.4770062565803528,2.792457342147827,1.467063307762146
1740006936358642000,0.646641845703125,-0.6766346096992493,2.917357921600342,1.7526448965072632
1740006936368622800,0.656622802734375,-0.7824669480323792,2.8290727138519287,1.943696141242981
1740006936378604800,0.666604736328125,-0.8191248178482056,2.65201997756958,2.0216779708862305
1740006936388586800,0.676586669921875,-0.8054489493370056,2.5398426055908203,1.9837958812713623
1740006936398569000,0.68656884765625,-0.8233413696289062,2.704694986343384,1.7275769710540771
1740006936408550000,0.6965498046875,-0.9038033485412598,2.985950231552124,1.2505277395248413
1740006936418531800,0.70653173828125,-1.0730009078979492,3.2383368015289307,0.7336958646774292
1740006936428513800,0.716513671875,-1.3369724750518799,3.4574577808380127,0.30153483152389526
1740006936438496000,0.72649609375,-1.6442184448242188,3.7539501190185547,0.014074559323489666
1740006936448476700,0.7364765625,-1.9211149215698242,4.128393173217773,-0.10014407336711884
1740006936458459000,0.746458984375,-2.035790205001831,4.417818069458008,-0.01917199417948723
1740006936468440800,0.75644091796875,-2.101874828338623,4.655758857727051,0.14878104627132416
1740006936478422800,0.7664228515625,-2.234116554260254,4.774778366088867,0.31622782349586487
1740006936488404700,0.77640478515625,-2.4508719444274902,4.887695789337158,0.4429517090320587
1740006936498386000,0.786385986328125,-2.7462871074676514,4.963395595550537,0.48978686332702637
1740006936508368000,0.796367919921875,-3.084733009338379,4.967400074005127,0.42244240641593933
1740006936518349800,0.806349853515625,-3.4202218055725098,4.849434852600098,0.26569831371307373
1740006936528331800,0.816331787109375,-3.7030742168426514,4.557165622711182,0.04014747589826584
1740006936538313000,0.82631298828125,-3.89077091217041,4.136475086212158,-0.2265433371067047
1740006936548294700,0.836294677734375,-3.991089344024658,3.644605875015259,-0.5276424884796143
1740006936558276900,0.84627685546875,-4.018796920776367,3.0213446617126465,-0.8529505729675293
1740006936568258800,0.8562587890625,-4.024447441101074,2.3071236610412598,-1.1703790426254272
1740006936578240000,0.866239990234375,-4.0486531257629395,1.5517544746398926,-1.4389787912368774
1740006936588221700,0.8762216796875,-4.106533527374268,0.8803625106811523,-1.6517834663391113
1740006936598204000,0.886203857421875,-4.147486686706543,0.3768250048160553,-1.81746244430542
1740006936608185900,0.896185791015625,-4.088730812072754,0.03277171775698662,-1.9341404438018799
1740006936618167000,0.9061669921875,-3.896043539047241,-0.21577231585979462,-1.992356300354004
1740006936628148700,0.916148681640625,-3.576052188873291,-0.4596593379974365,-1.9361687898635864
1740006936638131000,0.926130859375,-3.167743444442749,-0.6872472167015076,-1.7717475891113281
1740006936648113000,0.93611279296875,-2.75142240524292,-0.8697395920753479,-1.4949190616607666
1740006936658094800,0.9460947265625,-2.401049852371216,-0.9365507960319519,-1.1518397331237793
1740006936668075800,0.95607568359375,-2.1449344158172607,-0.9071810841560364,-0.8004422187805176
1740006936678058000,0.96605810546875,-1.9733840227127075,-0.8512318134307861,-0.47532057762145996
1740006936688039700,0.976039794921875,-1.878150224685669,-0.797799289226532,-0.20480073988437653
1740006936698022000,0.98602197265625,-1.8424845933914185,-0.7503875494003296,-0.0037019832525402308
1740006936708002800,0.9960029296875,-1.8315818309783936,-0.6863589286804199,0.12436801940202713
1740006936717985000,1.005985107421875,-1.8379040956497192,-0.584516704082489,0.2066277414560318
1740006936727966700,1.015966796875,-1.8455232381820679,-0.46386033296585083,0.24296532571315765
1740006936737949000,1.025948974609375,-1.8093223571777344,-0.3646613359451294,0.2593267261981964
1740006936747929900,1.035929931640625,-1.6891270875930786,-0.31865864992141724,0.27334582805633545
1740006936757911800,1.045911865234375,-1.521229863166809,-0.3554496765136719,0.28967714309692383
1740006936767893800,1.055893798828125,-1.35490882396698,-0.46564361453056335,0.3000665605068207
1740006936777876000,1.0658759765625,-1.2622665166854858,-0.588696300983429,0.2869774103164673
1740006936787857000,1.07585693359375,-1.2573490142822266,-0.7029791474342346,0.21942563354969025
1740006936797838800,1.0858388671875,-1.3009891510009766,-0.7998055815696716,0.09706936031579971
1740006936807820800,1.09582080078125,-1.3445483446121216,-0.8438118100166321,-0.0442902110517025
1740006936817803000,1.105802978515625,-1.3686549663543701,-0.8449223637580872,-0.14076562225818634
1740006936827784700,1.11578466796875,-1.3923327922821045,-0.8771029114723206,-0.1984400749206543
1740006936837766000,1.125765869140625,-1.4000357389450073,-0.8005207777023315,-0.22034430503845215
1740006936847747800,1.135747802734375,-1.357509732246399,-0.6435478329658508,-0.1456403285264969
1740006936857729800,1.145729736328125,-1.3067522048950195,-0.4714154899120331,-0.011925136670470238
1740006936867711700,1.155711669921875,-1.3636616468429565,-0.3256894052028656,0.10791972279548645
1740006936877693000,1.16569287109375,-1.5125563144683838,-0.3095916509628296,0.23136363923549652
1740006936887675000,1.1756748046875,-1.536097764968872,-0.21716280281543732,0.36895111203193665
1740006936897656800,1.18565673828125,-1.4423819780349731,-0.24016453325748444,0.5670183897018433
1740006936907639000,1.19563916015625,-1.2504156827926636,-0.33141279220581055,0.7886449098587036
1740006936917620000,1.205619873046875,-1.0073378086090088,-0.4765699803829193,1.005523443222046
1740006936927602200,1.215602294921875,-0.7819535732269287,-0.5572829842567444,1.1865512132644653
1740006936937583900,1.225583984375,-0.5896030068397522,-0.47731173038482666,1.3044203519821167
1740006936947566000,1.235566162109375,-0.4074023962020874,-0.3353675901889801,1.3626832962036133
1740006936957547000,1.245547119140625,-0.21907776594161987,-0.1728798747062683,1.383407473564148
1740006936967529000,1.255529052734375,-0.030101127922534943,0.018315816298127174,1.3920139074325562
1740006936977511000,1.265510986328125,0.15113498270511627,0.1952674239873886,1.3866777420043945
1740006936987493000,1.2754931640625,0.30518674850463867,0.357927531003952,1.3295879364013672
1740006936997474800,1.285474853515625,0.4430735111236572,0.44214120507240295,1.2184875011444092
1740006937007456000,1.2954560546875,0.5730825066566467,0.5070444345474243,1.0679353475570679
1740006937017438000,1.30543798828125,0.6954036355018616,0.7805262804031372,0.8819820284843445
1740006937027420200,1.315420166015625,0.8236081600189209,1.0171241760253906,0.6946086883544922
1740006937037401900,1.32540185546875,0.9710042476654053,1.3067206144332886,0.5217593908309937
1740006937047383000,1.335383056640625,1.1236631870269775,1.5816092491149902,0.37720179557800293
1740006937057365000,1.345364990234375,1.2558904886245728,1.8210370540618896,0.2758706510066986
1740006937067347000,1.355346923828125,1.3915926218032837,2.0576655864715576,0.2080841362476349
1740006937077329000,1.365328857421875,1.5236326456069946,2.245623826980591,0.1319829672574997
1740006937087309800,1.375309814453125,1.6641534566879272,2.526015281677246,0.12397479265928268
1740006937097292000,1.3852919921875,1.7785592079162598,2.579638719558716,0.17003309726715088
1740006937107274000,1.39527392578125,1.8864479064941406,2.329373598098755,0.24305739998817444
1740006937117256000,1.405255859375,2.0099472999572754,1.9453134536743164,0.2573697865009308
1740006937127238100,1.415238037109375,2.1339244842529297,1.8064781427383423,0.1667860746383667
1740006937137219000,1.425218994140625,2.139235734939575,1.9439116716384888,0.010352524928748608
1740006937147201000,1.435200927734375,1.939430594444275,2.0848047733306885,-0.12666325271129608
1740006937157183000,1.445182861328125,1.6046701669692993,1.9329866170883179,-0.14415276050567627
1740006937167165000,1.4551650390625,1.283299446105957,1.4529014825820923,0.004864862188696861
1740006937177145900,1.465145751953125,1.1882520914077759,0.854678213596344,0.31147512793540955
1740006937187128000,1.475128173828125,1.4037144184112549,0.3755893111228943,0.6465200781822205
1740006937197110000,1.485110107421875,1.8633222579956055,0.0551748163998127,0.951176643371582
1740006937207092000,1.495092041015625,2.4234519004821777,0.06705603003501892,1.2479497194290161
1740006937217073000,1.505072998046875,2.9432008266448975,0.4300091862678528,1.520970344543457
1740006937227055000,1.51505517578125,3.3480026721954346,0.7954131364822388,1.801296353340149
1740006937237037000,1.525037109375,3.626884937286377,0.9253487586975098,2.1331145763397217
1740006937247019000,1.53501904296875,3.7340660095214844,0.9273044466972351,2.4667794704437256
1740006937257001000,1.5450009765625,3.7652652263641357,0.9518465399742126,2.761704444885254
1740006937266982000,1.55498193359375,3.659041166305542,1.17177414894104,2.8316051959991455
1740006937276963800,1.5649638671875,3.3903284072875977,1.437260389328003,2.6713342666625977
1740006937286946000,1.574946044921875,3.0644025802612305,1.681951880455017,2.351015329360962
1740006937296928000,1.584927978515625,2.7917330265045166,1.8230011463165283,1.8806062936782837
1740006937306909000,1.594908935546875,2.6236953735351562,1.8170881271362305,1.3317279815673828
1740006937316891000,1.604890869140625,2.549098491668701,1.7144043445587158,0.7984918355941772
1740006937326873000,1.614873046875,2.5425539016723633,1.5668226480484009,0.3573535680770874
1740006937336855000,1.62485498046875,2.569652557373047,1.4353469610214233,0.034198664128780365
1740006937346836000,1.6348359375,2.6057112216949463,1.3656456470489502,-0.1681395322084427
1740006937356818000,1.64481787109375,2.6339304447174072,1.3188799619674683,-0.2622359097003937
1740006937366800100,1.654800048828125,2.6338460445404053,1.2782258987426758,-0.2991121709346771
1740006937376781800,1.66478173828125,2.5670409202575684,1.2561224699020386,-0.2728579342365265
1740006937386764000,1.674763916015625,2.5198888778686523,1.2209452390670776,-0.17327894270420074
1740006937396745000,1.684744873046875,2.515836477279663,1.1206556558609009,-0.015519403852522373
1740006937406727000,1.694726806640625,2.5805768966674805,0.7458155751228333,0.17627258598804474
1740006937416708900,1.704708984375,2.6979660987854004,0.008888546377420425,0.37754443287849426
1740006937426691000,1.714691162109375,2.886516809463501,-0.9831910133361816,0.5619500875473022
1740006937436672000,1.724672119140625,3.087174654006958,-1.936107873916626,0.6939685344696045
1740006937446654000,1.734654052734375,3.068824052810669,-2.3158633708953857,0.7124220728874207
1740006937456636000,1.744635986328125,2.6310057640075684,-2.132378339767456,0.5205674171447754
1740006937466618000,1.7546181640625,1.8699532747268677,-1.5956846475601196,0.1958530694246292
1740006937476599000,1.76459912109375,1.1052582263946533,-1.016417384147644,-0.04815640673041344
1740006937486580700,1.774580810546875,0.6099709868431091,-0.5424913763999939,-0.11035149544477463
1740006937496563000,1.78456298828125,0.38596904277801514,-0.1732577234506607,-0.03002975508570671
1740006937506545200,1.794545166015625,0.309899240732193,0.1099313274025917,0.12584899365901947
1740006937516526800,1.80452685546875,0.30662938952445984,0.3638152778148651,0.3162548840045929
1740006937526507800,1.8145078125,0.32742229104042053,0.590605616569519,0.5095182657241821
1740006937536490000,1.824489990234375,0.4167846739292145,0.8189495801925659,0.739128828048706
1740006937546472200,1.83447216796875,0.5020462870597839,1.0789777040481567,0.9565516114234924
1740006937556454000,1.844453857421875,0.4994845688343048,1.3299285173416138,1.1047509908676147
1740006937566434800,1.854434814453125,0.4252803325653076,1.501904845237732,1.1782498359680176
1740006937576417000,1.8644169921875,0.3032982349395752,1.6201273202896118,1.1770540475845337
1740006937586398700,1.874398681640625,0.16789080202579498,1.6888493299484253,1.1153485774993896
1740006937596381000,1.884380859375,0.02624313160777092,1.6893497705459595,1.0168204307556152
1740006937606363100,1.894363037109375,-0.13867038488388062,1.6016578674316406,0.8916800618171692
1740006937616344000,1.904343994140625,-0.3240405023097992,1.4207736253738403,0.7584136128425598
1740006937626325800,1.91432568359375,-0.5436899662017822,1.1022040843963623,0.6458020210266113
1740006937636308000,1.924307861328125,-0.8126428723335266,0.6990233063697815,0.5635004639625549
1740006937646290200,1.934290283203125,-1.121781349182129,0.33076542615890503,0.49959859251976013
1740006937656271000,1.94427099609375,-1.4490610361099243,-0.01664552092552185,0.37667959928512573
1740006937666252800,1.954252685546875,-1.7863999605178833,-0.4134483337402344,0.11899441480636597
1740006937676235000,1.964235107421875,-2.136883020401001,-0.8354621529579163,-0.3138286769390106
1740006937686217000,1.974217041015625,-2.511672258377075,-1.1942832469940186,-0.8512660264968872
1740006937696198000,1.984197998046875,-2.789372205734253,-1.4719939231872559,-1.3968943357467651
1740006937706179800,1.994179931640625,-3.0350165367126465,-1.6770329475402832,-1.8841218948364258
1740006937716162000,2.004162109375,-3.309974193572998,-1.86370849609375,-2.3755602836608887
1740006937726143700,2.014143798828125,-3.5832302570343018,-1.9191288948059082,-2.800518035888672
1740006937736126000,2.0241259765625,-3.9420557022094727,-1.8621330261230469,-3.1320693492889404
1740006937746107000,2.03410693359375,-4.447039604187012,-1.72419273853302,-3.34220290184021
1740006937756089000,2.044089111328125,-5.078684329986572,-1.4964721202850342,-3.4133238792419434
1740006937766070800,2.05407080078125,-5.715210437774658,-1.1559021472930908,-3.3320651054382324
1740006937776053000,2.064052978515625,-6.177519798278809,-0.76081782579422,-3.108729362487793
1740006937786034000,2.074033935546875,-6.364510536193848,-0.39040303230285645,-2.7688019275665283
1740006937796015900,2.084015869140625,-6.261487007141113,-0.11973211914300919,-2.320572853088379
1740006937805997800,2.093997802734375,-5.942950248718262,0.08386638760566711,-1.7815940380096436
1740006937815980000,2.10397998046875,-5.413131237030029,0.12314401566982269,-1.2300267219543457
1740006937825961000,2.1139609375,-4.81007719039917,0.09197986125946045,-0.7506240010261536
1740006937835943000,2.12394287109375,-4.327690601348877,0.07129322737455368,-0.4002646207809448
1740006937845924900,2.1339248046875,-4.015807151794434,0.061431173235177994,-0.1500921994447708
1740006937855907000,2.143906982421875,-3.844839096069336,0.022252876311540604,0.043965425342321396
1740006937865889000,2.153888916015625,-3.762532949447632,-0.05804164335131645,0.21811708807945251
1740006937875870000,2.163869873046875,-3.68459153175354,-0.18573488295078278,0.4008224308490753
1740006937885852000,2.173851806640625,-3.5718700885772705,-0.3041905462741852,0.6030605435371399
1740006937895833300,2.183833251953125,-3.429260015487671,-0.4359144866466522,0.8082209229469299
1740006937905815300,2.193815185546875,-3.245421886444092,-0.5686891674995422,1.001054048538208
1740006937915796200,2.203796142578125,-3.0102968215942383,-0.7304226756095886,1.168810486793518
1740006937925778400,2.2137783203125,-2.7424328327178955,-0.8714116811752319,1.309346318244934
1740006937935760400,2.223760498046875,-2.48545241355896,-0.9263716340065002,1.4149701595306396
1740006937945742300,2.233742431640625,-2.2794933319091797,-0.8635079860687256,1.460652232170105
1740006937955724300,2.243724365234375,-2.127458333969116,-0.7291392087936401,1.4380710124969482
1740006937965705500,2.25370556640625,-2.0021800994873047,-0.5657738447189331,1.3500765562057495
1740006937975687200,2.263687255859375,-1.8580046892166138,-0.4127430021762848,1.1999725103378296
1740006937985669400,2.27366943359375,-1.7097947597503662,-0.26482081413269043,0.9856822490692139
1740006937995651300,2.2836513671875,-1.5811643600463867,-0.1688852310180664,0.7417300343513489
1740006938005632500,2.293632568359375,-1.4816855192184448,-0.10884581506252289,0.5082404017448425
1740006938015614200,2.3036142578125,-1.435953974723816,-0.051405418664216995,0.25621962547302246
1740006938025596400,2.313596435546875,-1.4114084243774414,-0.060896072536706924,0.0005514894146472216
1740006938035578400,2.323578369140625,-1.371105432510376,-0.09570492058992386,-0.2483118623495102
1740006938045559300,2.333559326171875,-1.326310396194458,-0.09059985727071762,-0.4896857738494873
1740006938055541200,2.343541259765625,-1.3440850973129272,-0.031112557277083397,-0.6954529881477356
1740006938065523500,2.3535234375,-1.3920774459838867,0.12635019421577454,-0.8212746381759644
1740006938075505200,2.363505126953125,-1.4544873237609863,0.36378830671310425,-0.8787893652915955
1740006938085487400,2.3734873046875,-1.468550682067871,0.5813809037208557,-0.8731675148010254
1740006938095468300,2.38346826171875,-1.4262160062789917,0.7090842723846436,-0.8038299679756165
1740006938105450500,2.393450439453125,-1.3194390535354614,0.7154197692871094,-0.7242535948753357
1740006938115432200,2.40343212890625,-1.1704612970352173,0.6908180117607117,-0.7164496779441833
1740006938125414400,2.413414306640625,-0.9527065753936768,0.7515742778778076,-0.8402809500694275
1740006938135395300,2.423395263671875,-0.6038431525230408,0.9072152972221375,-1.1028611660003662
1740006938145377300,2.433377197265625,-0.14286787807941437,0.9921656250953674,-1.4637224674224854
1740006938155359200,2.443359130859375,0.3663035035133362,0.9078217148780823,-1.827025055885315
1740006938165341400,2.453341552734375,0.8214553594589233,0.5764768123626709,-2.05973219871521
1740006938175323100,2.4633232421875,1.1555033922195435,0.06341719627380371,-2.0953288078308105
1740006938185304300,2.47330419921875,1.3560090065002441,-0.5091781616210938,-1.9563708305358887
1740006938195286300,2.483286376953125,1.4931596517562866,-1.0119723081588745,-1.6736739873886108
1740006938205268500,2.4932685546875,1.6279700994491577,-1.2631803750991821,-1.269837737083435
1740006938215250200,2.503250244140625,1.7872036695480347,-1.17807137966156,-0.7947063446044922
1740006938225231400,2.5132314453125,2.0241451263427734,-0.8951653838157654,-0.27909013628959656
1740006938235213300,2.52321337890625,2.3678221702575684,-0.5488168001174927,0.2822149991989136
1740006938245195300,2.5331953125,2.86147141456604,-0.21709899604320526,0.8942746520042419
1740006938255177200,2.54317724609375,3.4776527881622314,0.11349490284919739,1.5339175462722778
1740006938265159400,2.553159423828125,4.188273906707764,0.4676778018474579,2.126666784286499
1740006938275140400,2.563140380859375,4.923146724700928,0.7429714202880859,2.5902109146118164
1740006938285122300,2.573122314453125,5.584766387939453,0.9310823678970337,2.8627047538757324
1740006938295104300,2.583104248046875,6.0752177238464355,0.9399725794792175,2.89109468460083
1740006938305086500,2.59308642578125,6.327871322631836,0.8860353231430054,2.679442882537842
1740006938315067400,2.6030673828125,6.346553802490234,0.9194356203079224,2.2389719486236572
1740006938325049300,2.61304931640625,6.196600437164307,1.033582091331482,1.5370081663131714
1740006938335031300,2.62303125,5.893396377563477,1.1706733703613281,0.6591719388961792
1740006938345013500,2.633013427734375,5.4979071617126465,1.2885504961013794,-0.21234390139579773
1740006938354995200,2.6429951171875,5.126955509185791,1.26797354221344,-0.8969424962997437
1740006938364976400,2.652976318359375,4.865920066833496,1.0100607872009277,-1.3414881229400635
1740006938374958300,2.662958251953125,4.734988212585449,0.5396873950958252,-1.6078988313674927
1740006938384940300,2.672940185546875,4.678743362426758,0.001913195475935936,-1.7890522480010986
1740006938394922200,2.682922119140625,4.672170162200928,-0.4293425977230072,-1.9210598468780518
1740006938404903400,2.6929033203125,4.6878509521484375,-0.6991809606552124,-1.9900195598602295
1740006938414885400,2.702885498046875,4.7062907218933105,-0.8468835949897766,-1.9766485691070557
1740006938424867300,2.712867431640625,4.70349645614624,-0.8988044857978821,-1.8923248052597046
1740006938434849300,2.722849365234375,4.653836250305176,-0.918454110622406,-1.743903398513794
1740006938444831500,2.73283154296875,4.575397491455078,-0.9373224377632141,-1.516244649887085
1740006938454812400,2.7428125,4.497105598449707,-0.9757084250450134,-1.2441720962524414
1740006938464794400,2.75279443359375,4.4534478187561035,-0.9896150231361389,-0.9702305793762207
1740006938474776300,2.7627763671875,4.4487714767456055,-0.9499064683914185,-0.7363249063491821
1740006938484758300,2.77275830078125,4.43458890914917,-0.889779806137085,-0.5188506841659546
1740006938494739200,2.7827392578125,4.370153427124023,-0.8504305481910706,-0.29736247658729553
1740006938504721400,2.792721435546875,4.249538898468018,-0.8287367820739746,-0.05780632421374321
1740006938514703400,2.802703369140625,4.097927093505859,-0.7996175289154053,0.17478404939174652
1740006938524685300,2.812685302734375,3.9241979122161865,-0.7780942320823669,0.403309166431427
1740006938534666200,2.822666259765625,3.7203311920166016,-0.7716230154037476,0.62687748670578
1740006938544648400,2.8326484375,3.478496551513672,-0.7801132202148438,0.8378570079803467
1740006938554630400,2.84263037109375,3.208747625350952,-0.8082268834114075,1.0343858003616333
1740006938564612400,2.8526123046875,2.9244210720062256,-0.8568410277366638,1.2349976301193237
1740006938574594300,2.86259423828125,2.647966146469116,-0.8831408023834229,1.4571691751480103
1740006938584575500,2.872575439453125,2.3427975177764893,-0.8383086919784546,1.7179077863693237
1740006938594557200,2.88255712890625,1.924057126045227,-0.6886560916900635,2.0152552127838135
1740006938604539400,2.892539306640625,1.3613357543945312,-0.42977088689804077,2.319948673248291
1740006938614521300,2.902521240234375,0.733738899230957,-0.09974317252635956,2.568868637084961
1740006938624503300,2.91250341796875,0.15886253118515015,0.24708320200443268,2.6814687252044678
1740006938634484200,2.922484130859375,-0.2908383011817932,0.6279059052467346,2.605952501296997
1740006938644466400,2.932466552734375,-0.6181509494781494,1.1770539283752441,2.3056681156158447
1740006938654448400,2.942448486328125,-0.8534228801727295,1.9654624462127686,1.709110975265503
1740006938664430300,2.952430419921875,-1.0444177389144897,2.7216107845306396,0.9995682835578918
1740006938674411300,2.962411376953125,-1.261590838432312,3.203667640686035,0.44883933663368225
1740006938684393500,2.9723935546875,-1.5515344142913818,3.3403539657592773,0.1390507072210312
1740006938694375200,2.982375244140625,-1.9099903106689453,3.187307834625244,0.01331941969692707
1740006938704357400,2.992357421875,-2.3002097606658936,2.8052029609680176,0.0171121247112751
1740006938714339300,3.00233935546875,-2.7130393981933594,2.2476236820220947,0.11236914247274399
1740006938724320500,3.012320556640625,-3.177306652069092,1.5444586277008057,0.2620547413825989
1740006938734302200,3.02230224609375,-3.6985650062561035,0.7753511667251587,0.44568875432014465
1740006938744284400,3.032284423828125,-4.29572868347168,0.02430526725947857,0.617047131061554
1740006938754266400,3.042266357421875,-4.949956893920898,-0.6251065731048584,0.7282285094261169
1740006938764247300,3.052247314453125,-5.575925350189209,-1.1217323541641235,0.7747323513031006
1740006938774229200,3.062229248046875,-6.114012718200684,-1.504564642906189,0.7633654475212097
1740006938784211500,3.07221142578125,-6.4170331954956055,-1.7619359493255615,0.7181267142295837
1740006938794193200,3.082193115234375,-6.690535545349121,-1.8341015577316284,0.6332155466079712
1740006938804175400,3.09217529296875,-6.905592441558838,-1.8593732118606567,0.5363323092460632
1740006938814156300,3.10215625,-6.9648213386535645,-1.7882877588272095,0.45426487922668457
1740006938824138500,3.112138427734375,-6.904605388641357,-1.591955542564392,0.4174359440803528
1740006938834120200,3.1221201171875,-6.762918949127197,-1.2434266805648804,0.4606204330921173
1740006938844102400,3.132102294921875,-6.585599422454834,-0.801472544670105,0.6258833408355713
1740006938854083300,3.142083251953125,-6.36853551864624,-0.3572263717651367,0.9131622314453125
1740006938864065500,3.1520654296875,-6.102624416351318,0.015092488378286362,1.3034741878509521
1740006938874047200,3.162047119140625,-5.800850868225098,0.23702409863471985,1.7262967824935913
1740006938884029400,3.172029541015625,-5.470122814178467,0.26063355803489685,2.104037284851074
1740006938894011100,3.18201123046875,-5.134413242340088,0.1533515602350235,2.364711284637451
1740006938903992300,3.191992431640625,-4.805323600769043,0.06549376994371414,2.4695937633514404
1740006938913974500,3.201974609375,-4.494002819061279,0.07434771209955215,2.4465413093566895
1740006938923956500,3.21195654296875,-4.212680816650391,0.131842702627182,2.3558666706085205
1740006938933938400,3.2219384765625,-3.9763293266296387,0.14737051725387573,2.2405824661254883
1740006938943919400,3.23191943359375,-3.7752747535705566,0.03753536567091942,2.140712022781372
1740006938953901600,3.241901611328125,-3.6013386249542236,-0.1936453878879547,2.044679880142212
1740006938963883500,3.251883544921875,-3.426544189453125,-0.5114537477493286,1.9208062887191772
1740006938973865500,3.261865478515625,-3.262876510620117,-0.8470088839530945,1.7445980310440063
1740006938983847400,3.271847412109375,-3.1236228942871094,-1.1421175003051758,1.523874044418335
1740006938993828600,3.28182861328125,-3.0128543376922607,-1.3649252653121948,1.2820547819137573
1740006939003810300,3.291810302734375,-2.8967883586883545,-1.5300242900848389,1.0465948581695557
1740006939013792500,3.30179248046875,-2.7542519569396973,-1.6557177305221558,0.8333895802497864
1740006939023774500,3.3117744140625,-2.574092149734497,-1.742945909500122,0.6476050615310669
1740006939033755600,3.321755615234375,-2.364631414413452,-1.8012982606887817,0.4889589548110962
1740006939043737300,3.3317373046875,-2.148836374282837,-1.8392747640609741,0.35416093468666077
1740006939053719600,3.341719482421875,-1.9626134634017944,-1.8353862762451172,0.22029876708984375
1740006939063701500,3.351701416015625,-1.8014265298843384,-1.7843818664550781,0.05520668253302574
1740006939073683500,3.361683349609375,-1.687870979309082,-1.719835638999939,-0.14047734439373016
1740006939083664400,3.371664306640625,-1.624974250793457,-1.6284511089324951,-0.36038175225257874
1740006939093646600,3.381646484375,-1.608762502670288,-1.5190266370773315,-0.5848681330680847
1740006939103628300,3.391628173828125,-1.6190963983535767,-1.4299328327178955,-0.7941891551017761
1740006939113610500,3.401610595703125,-1.6322622299194336,-1.3303090333938599,-0.9676957130432129
1740006939123591400,3.41159130859375,-1.6445626020431519,-1.167627215385437,-1.1226905584335327
1740006939133573600,3.42157373046875,-1.646651029586792,-0.9364245533943176,-1.2554386854171753
1740006939143555300,3.431555419921875,-1.5976483821868896,-0.6625847220420837,-1.3646668195724487
1740006939153537500,3.44153759765625,-1.5152409076690674,-0.4381907284259796,-1.470328688621521
1740006939163519500,3.45151953125,-1.3399760723114014,-0.23660819232463837,-1.5292327404022217
1740006939173500400,3.46150048828125,-1.1364967823028564,-0.05130811408162117,-1.5272796154022217
1740006939183482400,3.471482421875,-0.9227431416511536,0.05721399188041687,-1.52288818359375
1740006939193464600,3.481464599609375,-0.6642497777938843,0.13600493967533112,-1.4871968030929565
1740006939203446300,3.4914462890625,-0.3632814586162567,0.18352289497852325,-1.4160393476486206
1740006939213428500,3.501428466796875,-0.026166025549173355,0.20923464000225067,-1.318557858467102
1740006939223409400,3.511409423828125,0.3307540714740753,0.1736706793308258,-1.1989634037017822
1740006939233391600,3.5213916015625,0.7077117562294006,0.09824994951486588,-1.058655858039856
1740006939243373300,3.531373291015625,1.134447455406189,-0.002019080799072981,-0.8876249194145203
1740006939253355500,3.54135546875,1.591211199760437,-0.09441611915826797,-0.6947694420814514
1740006939263336400,3.55133642578125,2.075812816619873,-0.12704432010650635,-0.48468953371047974
1740006939273318700,3.561318603515625,2.5899658203125,-0.0831919014453888,-0.2879170775413513
1740006939283300400,3.57130029296875,3.112600326538086,-0.02987542375922203,-0.1298455148935318
1740006939293282600,3.581282470703125,3.590894937515259,0.03582422807812691,-0.022963274270296097
1740006939303264300,3.59126416015625,4.016435146331787,0.1508100926876068,0.03836444765329361
1740006939313245400,3.601245361328125,4.408026218414307,0.35387611389160156,0.0748116746544838
1740006939323227400,3.611227294921875,4.776047229766846,0.6356595754623413,0.07760463654994965
1740006939333209600,3.621209716796875,5.1075520515441895,0.9392410516738892,0.06234446167945862
1740006939343191300,3.63119140625,5.387787342071533,1.2358098030090332,0.03369194269180298
1740006939353172500,3.64117236328125,5.590950965881348,1.498436689376831,-0.015360553748905659
1740006939363154400,3.651154541015625,5.679476261138916,1.6975727081298828,-0.0914471372961998
1740006939373136600,3.66113671875,5.638360023498535,1.8288545608520508,-0.2088075876235962
1740006939383118300,3.671118408203125,5.5045905113220215,1.8684568405151367,-0.3262852430343628
1740006939393100500,3.6811005859375,5.336421012878418,1.8395506143569946,-0.42131856083869934
1740006939403081500,3.69108154296875,5.132309436798096,1.7840440273284912,-0.5552678108215332
1740006939413063400,3.7010634765625,4.880080223083496,1.6584570407867432,-0.7811813950538635
1740006939423045400,3.71104541015625,4.62554407119751,1.4099645614624023,-1.028867244720459
1740006939433027600,3.721027587890625,4.419838905334473,1.0995899438858032,-1.2195048332214355
1740006939443009300,3.73100927734375,4.247371673583984,0.7185583114624023,-1.3068110942840576
1740006939452990500,3.740990478515625,4.056031703948975,0.2983818054199219,-1.3059903383255005
1740006939462972400,3.750972412109375,3.864284038543701,-0.14774852991104126,-1.2619996070861816
1740006939472954600,3.76095458984375,3.719202995300293,-0.6110314726829529,-1.2096737623214722
1740006939482936300,3.770936279296875,3.653479814529419,-0.9203387498855591,-1.189426302909851
1740006939492917500,3.78091748046875,3.683356523513794,-1.0175693035125732,-1.1579676866531372
1740006939502899500,3.7908994140625,3.7787270545959473,-0.9609229564666748,-1.0969487428665161
1740006939512881400,3.80088134765625,3.886505126953125,-0.7849886417388916,-1.0014022588729858
1740006939522863400,3.81086328125,3.9982428550720215,-0.529966413974762,-0.8748422861099243
1740006939532845600,3.820845458984375,4.109164714813232,-0.26059699058532715,-0.723800539970398
1740006939542826500,3.830826416015625,4.207693099975586,-0.009378397837281227,-0.5611791610717773
1740006939552808400,3.840808349609375,4.279670715332031,0.19997748732566833,-0.39136984944343567
1740006939562790400,3.850790283203125,4.3285393714904785,0.36263686418533325,-0.21353410184383392
1740006939572772600,3.860772705078125,4.3368377685546875,0.4666042625904083,-0.03232783079147339
1740006939582753500,3.87075341796875,4.303719997406006,0.5155646204948425,0.15760497748851776
1740006939592735500,3.880735595703125,4.248350620269775,0.5444703102111816,0.34440121054649353
1740006939602717400,3.890717529296875,4.16567850112915,0.5463252067565918,0.5198767781257629
1740006939612699400,3.900699462890625,4.054495811462402,0.5374361276626587,0.6702138185501099
1740006939622681300,3.910681396484375,3.921443462371826,0.5445629954338074,0.7972934246063232
1740006939632663600,3.92066357421875,3.7699694633483887,0.5818472504615784,0.8783110976219177
1740006939642645200,3.930645263671875,3.599558115005493,0.6525145769119263,0.9173642992973328
1740006939652626400,3.94062646484375,3.4206087589263916,0.7401312589645386,0.9209457039833069
1740006939662608400,3.9506083984375,3.2327756881713867,0.81947922706604,0.8999069929122925
1740006939672590600,3.960590576171875,3.0248942375183105,0.8634642958641052,0.8575131893157959
1740006939682572300,3.970572265625,2.778252124786377,0.8488180041313171,0.7921932339668274
1740006939692554500,3.980554443359375,2.489349842071533,0.7800219058990479,0.7077643871307373
1740006939702535400,3.990535400390625,2.1550395488739014,0.6646530032157898,0.6028985977172852
1740006939712517400,4.000517333984375,1.7715412378311157,0.5104479789733887,0.48865461349487305
1740006939722499300,4.010499267578125,1.3399930000305176,0.2981494069099426,0.3656802773475647
1740006939732481500,4.0204814453125,0.8629817366600037,0.03070840612053871,0.25780385732650757
1740006939742463200,4.030463134765625,0.3508353531360626,-0.25992336869239807,0.17507298290729523
1740006939752444400,4.0404443359375,-0.172744482755661,-0.5589550733566284,0.11026042699813843
1740006939762426400,4.05042626953125,-0.6855171322822571,-0.8369254469871521,0.07255399972200394
1740006939772408600,4.06040869140625,-1.198960781097412,-1.081092357635498,0.053657274693250656
1740006939782390300,4.070390380859375,-1.7523537874221802,-1.2845500707626343,0.08535124361515045
1740006939792371500,4.080371337890625,-2.361499309539795,-1.4383963346481323,0.18019892275333405
1740006939802353400,4.090353515625,-2.9725987911224365,-1.5565568208694458,0.32664576172828674
1740006939812335600,4.100335693359375,-3.566737651824951,-1.6125260591506958,0.5026194453239441
1740006939822317300,4.1103173828125,-4.1189680099487305,-1.59061861038208,0.6809271574020386
1740006939832299500,4.120299560546875,-4.60392951965332,-1.4961445331573486,0.8291781544685364
1740006939842280400,4.130280517578125,-4.984489917755127,-1.3050014972686768,0.9370446801185608
1740006939852262400,4.140262451171875,-5.220118045806885,-1.0311572551727295,1.0059449672698975
1740006939862244400,4.150244384765625,-5.317295074462891,-0.6953518986701965,1.040528416633606
1740006939872226600,4.1602265625,-5.265447616577148,-0.2976383864879608,1.029983639717102
1740006939882208300,4.170208251953125,-5.140718460083008,0.15846076607704163,0.9829509854316711
1740006939892189400,4.180189453125,-5.034540176391602,0.4950696527957916,0.9364064335823059
1740006939902172000,4.190171875,-4.94838285446167,0.7027038931846619,0.9151061177253723
1740006939912153900,4.20015380859375,-4.908012866973877,0.7915115356445312,0.9213754534721375
1740006939922135800,4.2101357421875,-4.918802738189697,0.7302974462509155,0.9697920083999634
1740006939932117000,4.220116943359375,-4.985800743103027,0.5857866406440735,1.053220272064209
1740006939942099000,4.230098876953125,-5.0612640380859375,0.4492032825946808,1.167172908782959
1740006939952081000,4.240080810546875,-5.083404541015625,0.37839436531066895,1.3075544834136963
1740006939962062800,4.250062744140625,-5.019948959350586,0.3881484270095825,1.4931836128234863
1740006939972045000,4.260045166015625,-4.881500244140625,0.45702284574508667,1.7247040271759033
1740006939982026000,4.27002587890625,-4.689172744750977,0.5113093256950378,2.001108169555664
1740006939992008000,4.280008056640625,-4.458078861236572,0.4606786370277405,2.3181259632110596
1740006940001988900,4.28998876953125,-4.206948757171631,0.262118935585022,2.6291773319244385
1740006940011970800,4.299970703125,-3.9534428119659424,-0.08879221230745316,2.9057199954986572
1740006940021952800,4.309952880859375,-3.716701030731201,-0.5187944769859314,3.07377028465271
1740006940031935000,4.31993505859375,-3.503124713897705,-0.9090557098388672,3.095320463180542
1740006940041917000,4.3299169921875,-3.313488483428955,-1.1988532543182373,2.9744796752929688
1740006940051897900,4.33989794921875,-3.13006591796875,-1.3783206939697266,2.7506911754608154
1740006940061879800,4.3498798828125,-2.9290130138397217,-1.4806475639343262,2.450622320175171
1740006940071862000,4.359862060546875,-2.69929838180542,-1.5859143733978271,2.1155755519866943
1740006940081844000,4.369843994140625,-2.510472536087036,-1.6930357217788696,1.7622393369674683
1740006940091826000,4.379825927734375,-2.3140320777893066,-1.7159652709960938,1.4512380361557007
1740006940101806800,4.389806884765625,-2.13140869140625,-1.833137035369873,1.1786562204360962
1740006940111789000,4.3997890625,-1.9770482778549194,-1.9233018159866333,0.9183427095413208
1740006940121770800,4.409770751953125,-1.7783026695251465,-2.00018572807312,0.6797847151756287
1740006940131753000,4.4197529296875,-1.5655715465545654,-2.064268112182617,0.4350159764289856
1740006940141734000,4.42973388671875,-1.332915186882019,-2.1270241737365723,0.18441660702228546
1740006940151715800,4.4397158203125,-1.128035306930542,-2.210087776184082,-0.08023102581501007
1740006940161697800,4.44969775390625,-0.9739416241645813,-2.3135550022125244,-0.36597731709480286
1740006940171680000,4.459679931640625,-0.9255946278572083,-2.38409161567688,-0.691770613193512
1740006940181662000,4.469661865234375,-0.9628694653511047,-2.3459010124206543,-1.064177393913269
1740006940191643000,4.479642822265625,-1.05002760887146,-2.1661484241485596,-1.4594533443450928
1740006940201624800,4.489624755859375,-1.1554402112960815,-1.858588695526123,-1.8453274965286255
1740006940211607000,4.49960693359375,-1.218589186668396,-1.4812896251678467,-2.1669018268585205
1740006940221588700,4.509588623046875,-1.2184416055679321,-1.1239707469940186,-2.3733386993408203
1740006940231571000,4.519571044921875,-1.1535435914993286,-0.8304843306541443,-2.4539496898651123
1740006940241552000,4.5295517578125,-1.0206972360610962,-0.5995742082595825,-2.4460201263427734
1740006940251534000,4.5395341796875,-0.82004714012146,-0.4287055432796478,-2.3842151165008545
1740006940261515800,4.549515869140625,-0.5501757264137268,-0.28402143716812134,-2.2781057357788086
1740006940271498000,4.559498046875,-0.2533695697784424,-0.19253598153591156,-2.151623010635376
1740006940281480000,4.56947998046875,0.027355626225471497,-0.13878263533115387,-1.9840481281280518
1740006940291460900,4.5794609375,0.28514641523361206,-0.19067539274692535,-1.7755910158157349
1740006940301442800,4.58944287109375,0.5329405665397644,-0.3418792188167572,-1.5451167821884155
1740006940311425000,4.599425048828125,0.7741036415100098,-0.5356247425079346,-1.3021241426467896
1740006940321406700,4.60940673828125,1.0269029140472412,-0.6556231379508972,-1.062238097190857
1740006940331387600,4.6193876953125,1.3131077289581299,-0.6404998898506165,-0.8223761320114136
1740006940341369900,4.629369873046875,1.6390583515167236,-0.46706002950668335,-0.5786018967628479
1740006940351352000,4.63935205078125,1.9997475147247314,-0.18178299069404602,-0.32408764958381653
1740006940361333800,4.649333740234375,2.3719980716705322,0.15742447972297668,-0.0658397525548935
1740006940371316000,4.65931591796875,2.720228672027588,0.5115516781806946,0.1931622475385666
1740006940381297000,4.669296875,3.030381679534912,0.8709760308265686,0.4328801929950714
1740006940391279000,4.679279052734375,3.302241802215576,1.1971131563186646,0.6248472332954407
1740006940401260800,4.6892607421875,3.518415689468384,1.4493937492370605,0.7504457235336304
1740006940411243000,4.699242919921875,3.669172763824463,1.5933057069778442,0.7979239821434021
1740006940421225000,4.709224853515625,3.7501635551452637,1.665329098701477,0.7714064717292786
1740006940431206000,4.719205810546875,3.7826616764068604,1.6612894535064697,0.6332187652587891
1740006940441187800,4.729187744140625,3.765583038330078,1.6322202682495117,0.38240668177604675
1740006940451170000,4.739170166015625,3.7140324115753174,1.569504976272583,0.034805312752723694
1740006940461151700,4.74915185546875,3.6578428745269775,1.4544401168823242,-0.3800238072872162
1740006940471134000,4.759134033203125,3.6143946647644043,1.2787692546844482,-0.8138689994812012
1740006940481115000,4.769114990234375,3.591705322265625,1.0505422353744507,-1.2227774858474731
1740006940491097000,4.77909716796875,3.5978569984436035,0.7664905786514282,-1.5557594299316406
1740006940501078800,4.789078857421875,3.62185001373291,0.42105892300605774,-1.8025614023208618
1740006940511061000,4.79906103515625,3.641813039779663,0.043292999267578125,-1.9542514085769653
1740006940521042000,4.8090419921875,3.655303478240967,-0.31440895795822144,-2.0374600887298584
1740006940531024000,4.81902392578125,3.653822183609009,-0.6198956370353699,-2.075510263442993
1740006940541005800,4.829005859375,3.6466588973999023,-0.8554341197013855,-2.078338861465454
1740006940550988000,4.838988037109375,3.64993953704834,-1.0014188289642334,-2.039506673812866
1740006940560969700,4.8489697265625,3.6841177940368652,-1.0541801452636719,-1.9324320554733276
1740006940570951000,4.858950927734375,3.7344839572906494,-0.9916616678237915,-1.7520716190338135
1740006940580932900,4.868932861328125,3.772467851638794,-0.8635621070861816,-1.5039138793945312
1740006940590915000,4.8789150390625,3.797999382019043,-0.7291102409362793,-1.2051423788070679
1740006940600896800,4.888896728515625,3.8128364086151123,-0.6118521094322205,-0.8758992552757263
1740006940610879000,4.89887890625,3.819538116455078,-0.5196483731269836,-0.5438595414161682
1740006940620860000,4.90885986328125,3.8156278133392334,-0.45406752824783325,-0.2453014850616455
1740006940630841900,4.918841796875,3.798340082168579,-0.382095068693161,-0.02236054092645645
1740006940640823800,4.92882373046875,3.7512764930725098,-0.29737749695777893,0.112317755818367
1740006940650806000,4.938805908203125,3.6741836071014404,-0.21505120396614075,0.17331479489803314
1740006940660787700,4.94878759765625,3.5669808387756348,-0.1366453468799591,0.19284594058990479
1740006940670769000,4.958768798828125,3.446188449859619,-0.08698458224534988,0.18353712558746338
1740006940680750800,4.968750732421875,3.3179726600646973,-0.0508013479411602,0.1479504406452179
1740006940690733000,4.978733154296875,3.1706924438476562,-0.04737439006567001,0.08972254395484924
1740006940700714800,4.98871484375,3.001936197280884,-0.09352371841669083,0.0026929357554763556
1740006940710697000,4.998697021484375,2.7988266944885254,-0.19050566852092743,-0.11683905124664307
1740006940720678000,5.008677978515625,2.555330514907837,-0.29330021142959595,-0.2730405330657959
1740006940730659800,5.018659912109375,2.283259391784668,-0.3899542987346649,-0.44846323132514954
1740006940740641800,5.028641845703125,1.975016474723816,-0.47902533411979675,-0.6353514790534973
1740006940750624000,5.0386240234375,1.6375420093536377,-0.5637742877006531,-0.8166568279266357
1740006940760605000,5.04860498046875,1.3031175136566162,-0.6416760087013245,-0.9713489413261414
1740006940770587000,5.0585869140625,1.0015089511871338,-0.6704829335212708,-1.0710811614990234
1740006940780568800,5.06856884765625,0.7328870892524719,-0.6548601984977722,-1.131584644317627
1740006940790551000,5.078551025390625,0.4920358657836914,-0.6283473968505859,-1.1752697229385376
1740006940800532700,5.08853271484375,0.2541796863079071,-0.617712140083313,-1.221436858177185
1740006940810514000,5.098513916015625,-0.004684892017394304,-0.6154087781906128,-1.2722440958023071
1740006940820496000,5.108495849609375,-0.2757357358932495,-0.5887936949729919,-1.2987303733825684
1740006940830478000,5.11847802734375,-0.5594156980514526,-0.5721441507339478,-1.2973922491073608
1740006940840459800,5.128459716796875,-0.8691028356552124,-0.5287811160087585,-1.2530949115753174
1740006940850442000,5.13844189453125,-1.1975585222244263,-0.416370689868927,-1.1499933004379272
1740006940860423000,5.1484228515625,-1.5219908952713013,-0.21333512663841248,-0.9944518208503723
1740006940870404900,5.15840478515625,-1.8189789056777954,0.05731767416000366,-0.7831521034240723
1740006940880386800,5.16838671875,-2.053868532180786,0.34079694747924805,-0.5160053968429565
1740006940890369000,5.178369140625,-2.180586814880371,0.5935801863670349,-0.2026200294494629
1740006940900350200,5.18835009765625,-2.2080976963043213,0.8508960604667664,0.14709922671318054
1740006940910331100,5.1983310546875,-2.165825605392456,1.1234018802642822,0.5287139415740967
1740006940920313300,5.208313232421875,-2.1002695560455322,1.4360584020614624,0.9303614497184753
1740006940930295300,5.21829541015625,-2.0524485111236572,1.7931549549102783,1.355002999305725
1740006940940277200,5.22827734375,-2.0183088779449463,2.1555800437927246,1.8105758428573608
1740006940950259500,5.238259521484375,-1.9696077108383179,2.444648027420044,2.2942142486572266
1740006940960240400,5.248240478515625,-1.925997018814087,2.6244614124298096,2.782790184020996
1740006940970222300,5.258222412109375,-1.883994221687317,2.625026226043701,3.2505879402160645
1740006940980204300,5.268204345703125,-1.8786119222640991,2.451857089996338,3.638479709625244
1740006940990186200,5.278186279296875,-1.923735499382019,2.15814208984375,3.8969709873199463
1740006941000168400,5.28816845703125,-2.0178475379943848,1.8111671209335327,3.996720790863037
1740006941010149000,5.298149169921875,-2.1460683345794678,1.5710210800170898,3.863668918609619
1740006941020131300,5.30813134765625,-2.289663314819336,1.3226350545883179,3.558677911758423
1740006941030113300,5.31811328125,-2.431281566619873,1.0411226749420166,3.1464157104492188
1740006941040095200,5.32809521484375,-2.5539205074310303,0.6897631287574768,2.6543188095092773
1740006941050076200,5.338076171875,-2.6781580448150635,0.22918835282325745,2.1169469356536865
1740006941060058400,5.348058349609375,-2.8226468563079834,-0.27804863452911377,1.5567740201950073
1740006941070040300,5.358040283203125,-2.972403049468994,-0.7601636052131653,1.033807396888733
1740006941080022300,5.368022216796875,-3.096456289291382,-1.1871309280395508,0.6158570051193237
1740006941090004500,5.37800439453125,-3.2093565464019775,-1.5649176836013794,0.319403737783432
1740006941099985400,5.3879853515625,-3.3232662677764893,-1.8341094255447388,0.12722384929656982
1740006941109967000,5.397967041015625,-3.421370029449463,-1.9697692394256592,0.011016017757356167
1740006941119949300,5.40794921875,-3.4951748847961426,-2.0083258152008057,-0.05782333388924599
1740006941129931500,5.417931640625,-3.5260324478149414,-1.9751399755477905,-0.11131586134433746
1740006941139913200,5.427913330078125,-3.5397157669067383,-1.8972111940383911,-0.1633930653333664
1740006941149894100,5.43789404296875,-3.5491225719451904,-1.7457993030548096,-0.21654044091701508
1740006941159876400,5.44787646484375,-3.5568113327026367,-1.5246014595031738,-0.2768629789352417
1740006941169858300,5.4578583984375,-3.5772879123687744,-1.271598219871521,-0.36735185980796814
1740006941179840300,5.46784033203125,-3.606748104095459,-1.0171470642089844,-0.48496872186660767
1740006941189822500,5.477822509765625,-3.61901593208313,-0.7544808387756348,-0.6050394773483276
1740006941199803400,5.487803466796875,-3.611267566680908,-0.530902087688446,-0.7058215737342834
1740006941209785300,5.497785400390625,-3.595449209213257,-0.37979036569595337,-0.7820127010345459
1740006941219767300,5.507767333984375,-3.5890071392059326,-0.3062702715396881,-0.814122200012207
1740006941229749500,5.51774951171875,-3.601240396499634,-0.2848110496997833,-0.8208016753196716
1740006941239731200,5.527731201171875,-3.6395156383514404,-0.3604004383087158,-0.81987464427948
1740006941249712000,5.537712158203125,-3.693650960922241,-0.4804416298866272,-0.8269312381744385
1740006941259694300,5.5476943359375,-3.739885091781616,-0.6627500653266907,-0.8480702042579651
1740006941269676500,5.557676513671875,-3.7439208030700684,-0.8823641538619995,-0.8873723745346069
1740006941279658200,5.567658203125,-3.6968226432800293,-0.9879168272018433,-0.9366129636764526
1740006941289640400,5.577640380859375,-3.5768744945526123,-0.9641188383102417,-0.9536281824111938
1740006941299621400,5.587621337890625,-3.3854095935821533,-0.8646783232688904,-0.9393383264541626
1740006941309603300,5.597603271484375,-3.111781358718872,-0.7293779850006104,-0.8759021162986755
1740006941319585300,5.607585205078125,-2.740215301513672,-0.6366440057754517,-0.7397024631500244
1740006941329567500,5.6175673828125,-2.2965612411499023,-0.6367467641830444,-0.5110589265823364
1740006941339549200,5.627549072265625,-1.8066096305847168,-0.7067338228225708,-0.2050950527191162
1740006941349530000,5.637530029296875,-1.3120625019073486,-0.8412242531776428,0.14682702720165253
1740006941359512300,5.64751220703125,-0.8248355388641357,-1.0241304636001587,0.5155326128005981
1740006941369494500,5.65749462890625,-0.3445166051387787,-1.2071350812911987,0.849906861782074
1740006941379476200,5.667476318359375,0.1281619817018509,-1.242254376411438,1.113608956336975
1740006941389458400,5.67745849609375,0.6461777091026306,-0.9985359907150269,1.2461928129196167
1740006941399439400,5.687439453125,1.1926066875457764,-0.588958203792572,1.259488821029663
1740006941409421600,5.697421630859375,1.735023856163025,-0.11045610904693604,1.2111650705337524
1740006941419403300,5.7074033203125,2.2210066318511963,0.3493715822696686,1.1606755256652832
1740006941429385500,5.717385498046875,2.6057443618774414,0.7254261374473572,1.16206693649292
1740006941439366400,5.727366455078125,2.885615110397339,0.9989996552467346,1.1836539506912231
1740006941449348400,5.737348388671875,3.083462715148926,1.1861331462860107,1.203181505203247
1740006941459330300,5.747330322265625,3.203174591064453,1.3118338584899902,1.1962658166885376
1740006941469312500,5.7573125,3.2152469158172607,1.4775346517562866,1.1536242961883545
1740006941479294200,5.767294189453125,3.127017021179199,1.662743330001831,1.0585641860961914
1740006941489275100,5.777275146484375,3.0075204372406006,1.8387866020202637,0.8927531242370605
1740006941499257300,5.78725732421875,2.9038612842559814,1.9819780588150024,0.6899046897888184
1740006941509239600,5.797239501953125,2.857003927230835,2.032487154006958,0.4557952284812927
1740006941519221200,5.80722119140625,2.865994453430176,1.958518624305725,0.19225242733955383
1740006941529203500,5.817203369140625,2.8931643962860107,1.769798755645752,-0.09795781970024109
1740006941539184400,5.827184326171875,2.93194580078125,1.521417260169983,-0.39703211188316345
1740006941549166300,5.837166259765625,2.990107297897339,1.2493867874145508,-0.7137237787246704
1740006941559148300,5.847148193359375,3.0867178440093994,0.969272255897522,-1.008491039276123
1740006941569130500,5.857130615234375,3.202868938446045,0.6849331855773926,-1.2555339336395264
1740006941579112200,5.8671123046875,3.3135602474212646,0.39533117413520813,-1.4498753547668457
1740006941589094400,5.877094482421875,3.432147979736328,0.07378458231687546,-1.6170880794525146
1740006941599075300,5.887075439453125,3.5455305576324463,-0.2345218062400818,-1.7563990354537964
1740006941609057500,5.8970576171875,3.6520233154296875,-0.5297952890396118,-1.8433603048324585
1740006941619039200,5.907039306640625,3.7125415802001953,-0.7920295596122742,-1.9125441312789917
1740006941629021400,5.917021484375,3.7629213333129883,-0.9918934106826782,-1.9574551582336426
1740006941639002400,5.92700244140625,3.817711353302002,-1.1396633386611938,-1.9750492572784424
1740006941648984300,5.936984375,3.878675699234009,-1.2313807010650635,-1.9419986009597778
1740006941658966300,5.94696630859375,3.955936908721924,-1.2921061515808105,-1.8392333984375
1740006941668948500,5.956948486328125,4.0669050216674805,-1.4278935194015503,-1.676991581916809
1740006941678930200,5.96693017578125,4.183495998382568,-1.7340883016586304,-1.5067722797393799
1740006941688911400,5.976911376953125,4.2455363273620605,-2.2607996463775635,-1.369728446006775
1740006941698893300,5.986893310546875,4.222702503204346,-2.933396816253662,-1.243423342704773
1740006941708875500,5.99687548828125,4.134398460388184,-3.613054037094116,-1.1137678623199463
1740006941718857200,6.006857177734375,4.008941650390625,-4.152333736419678,-0.9707546830177307
1740006941728839400,6.01683935546875,3.9091796875,-4.457667827606201,-0.8486372828483582
1740006941738820400,6.0268203125,3.8656227588653564,-4.492216110229492,-0.8072407841682434
1740006941748802300,6.03680224609375,3.8590657711029053,-4.32355260848999,-0.9021017551422119
1740006941758784300,6.0467841796875,3.8120977878570557,-4.185441493988037,-1.1214720010757446
1740006941768766500,6.056766357421875,3.601193904876709,-4.245867729187012,-1.3953107595443726
1740006941778748200,6.066748046875,3.1756441593170166,-4.5702290534973145,-1.6497063636779785
1740006941788729300,6.076729248046875,2.5884287357330322,-4.986429691314697,-1.827725887298584
1740006941798711300,6.086711181640625,1.9775941371917725,-5.239877700805664,-1.9282678365707397
1740006941808693500,6.096693603515625,1.4845319986343384,-5.1742424964904785,-1.937313437461853
1740006941818675200,6.10667529296875,1.1694247722625732,-4.80094575881958,-1.8696006536483765
1740006941828657400,6.116657470703125,1.0191247463226318,-4.2691545486450195,-1.72707200050354
1740006941838639400,6.126639404296875,0.9697659015655518,-3.7315735816955566,-1.532801628112793
1740006941848620300,6.136620361328125,0.9823274612426758,-3.2967512607574463,-1.2997359037399292
1740006941858602200,6.146602294921875,0.9512893557548523,-2.906933069229126,-1.1047916412353516
1740006941868584400,6.15658447265625,0.7671732902526855,-2.502938985824585,-1.0146766901016235
1740006941878566100,6.166566162109375,0.43753355741500854,-2.155480146408081,-1.015137791633606
1740006941888548400,6.17654833984375,0.06327127665281296,-1.9360703229904175,-1.0330419540405273
1740006941898529500,6.186529541015625,-0.26517072319984436,-1.8320521116256714,-1.0008732080459595
1740006941908511700,6.19651171875,-0.5022791624069214,-1.7872947454452515,-0.8957989811897278
1740006941918493400,6.206493408203125,-0.5981034636497498,-1.756980538368225,-0.7340723872184753
1740006941928475600,6.2164755859375,-0.6211898922920227,-1.5711361169815063,-0.5176218152046204
1740006941938457600,6.22645751953125,-0.6141699552536011,-1.238593578338623,-0.27619653940200806
1740006941948438500,6.2364384765625,-0.5609996914863586,-0.8409357070922852,-0.09027568250894547
1740006941958420500,6.24642041015625,-0.4664859473705292,-0.4387834072113037,0.01044419314712286
1740006941968402700,6.256402587890625,-0.40767163038253784,-0.10414418578147888,0.037877149879932404
1740006941978384600,6.266384521484375,-0.41541269421577454,0.18063081800937653,0.02101071923971176
1740006941988366600,6.27636669921875,-0.4388258755207062,0.41953927278518677,-0.03475933521986008
1740006941998347500,6.286347412109375,-0.45851120352745056,0.5529260039329529,-0.11677313596010208
1740006942008329700,6.296329833984375,-0.4647267460823059,0.5883931517601013,-0.2183905690908432
1740006942018311700,6.306311767578125,-0.46839234232902527,0.6175734996795654,-0.3223022222518921
1740006942028293600,6.316293701171875,-0.46388041973114014,0.6438969969749451,-0.42126262187957764
1740006942038275800,6.32627587890625,-0.42089352011680603,0.5422091484069824,-0.4757661819458008
1740006942048256500,6.336256591796875,-0.3424900472164154,0.3127720057964325,-0.48831844329833984
1740006942058238500,6.346238525390625,-0.2838900685310364,0.055058497935533524,-0.4989096522331238
1740006942068220700,6.356220703125,-0.2638756036758423,-0.1327982246875763,-0.5315568447113037
1740006942078202600,6.36620263671875,-0.2847995162010193,-0.24953848123550415,-0.5852142572402954
1740006942088184600,6.3761845703125,-0.31498217582702637,-0.3185631036758423,-0.6236921548843384
1740006942098165500,6.38616552734375,-0.36005234718322754,-0.36074206233024597,-0.6291993856430054
1740006942108147700,6.396147705078125,-0.4212493896484375,-0.3767079710960388,-0.6045867204666138
1740006942118129700,6.406129638671875,-0.49886277318000793,-0.33965933322906494,-0.549217939376831
1740006942128111600,6.416111572265625,-0.5492485165596008,-0.2556546926498413,-0.4800167381763458
1740006942138092500,6.426092529296875,-0.5371508598327637,-0.14436958730220795,-0.39794889092445374
1740006942148074800,6.43607470703125,-0.4701460003852844,-0.02038186602294445,-0.3194540739059448
1740006942158056700,6.446056640625,-0.38859957456588745,0.04947694018483162,-0.25641268491744995
1740006942168038700,6.45603857421875,-0.31652992963790894,0.05278751626610756,-0.2156924158334732
1740006942178020600,6.4660205078125,-0.25088217854499817,0.001995653845369816,-0.20353788137435913
1740006942188001500,6.47600146484375,-0.20332159101963043,-0.030431263148784637,-0.22693055868148804
1740006942197983500,6.4859833984375,-0.14639873802661896,-0.00734122097492218,-0.26093506813049316
1740006942207965700,6.495965576171875,-0.07338365167379379,0.04036877676844597,-0.2816067934036255
1740006942217947600,6.50594775390625,0.001805284176953137,0.0748521015048027,-0.28892359137535095
1740006942227929600,6.5159296875,0.04930596053600311,0.107118159532547,-0.2847898304462433
1740006942237911800,6.525911865234375,0.06458628922700882,0.12954282760620117,-0.2656875252723694
1740006942247892700,6.535892822265625,0.07367991656064987,0.13305553793907166,-0.2276325523853302
1740006942257874700,6.545874755859375,0.07931146025657654,0.11462054401636124,-0.1893949806690216
1740006942267856600,6.555856689453125,0.09041977673768997,0.06261912733316422,-0.17584455013275146
1740006942277838600,6.565838623046875,0.11438420414924622,-0.02768581360578537,-0.19338560104370117
1740006942287820500,6.575820556640625,0.13820138573646545,-0.11909375339746475,-0.28974464535713196
1740006942297801700,6.5858017578125,0.1383087933063507,-0.18315666913986206,-0.4576236605644226
1740006942307783700,6.59578369140625,0.10316040366888046,-0.20588435232639313,-0.673075258731842
1740006942317765600,6.605765625,0.049489326775074005,-0.2134111374616623,-0.922663152217865
1740006942327747600,6.61574755859375,0.009864688850939274,-0.18768100440502167,-1.1776540279388428
1740006942337729800,6.625729736328125,0.006300403270870447,-0.19719545543193817,-1.4352798461914062
1740006942347710700,6.635710693359375,-0.014987573958933353,-0.33791130781173706,-1.689475655555725
1740006942357692700,6.645692626953125,-0.11564894020557404,-0.6563148498535156,-1.9316147565841675
1740006942367674600,6.655674560546875,-0.31249117851257324,-0.9824484586715698,-2.1486012935638428
1740006942377656600,6.665656494140625,-0.5593829154968262,-1.1887236833572388,-2.287444829940796
1740006942387638500,6.675638427734375,-0.8172711730003357,-1.2853466272354126,-2.3011627197265625
1740006942397619700,6.68561962890625,-1.0786935091018677,-1.2768151760101318,-2.175210475921631
1740006942407601700,6.6956015625,-1.3475185632705688,-1.2135504484176636,-1.8886687755584717
1740006942417583600,6.70558349609375,-1.5834569931030273,-0.9794384241104126,-1.4814159870147705
1740006942427565600,6.715565673828125,-1.7477567195892334,-0.5550812482833862,-1.03757643699646
1740006942437547800,6.7255478515625,-1.8544079065322876,0.02240634337067604,-0.6280428171157837
1740006942447528700,6.73552880859375,-1.9599989652633667,0.6848421096801758,-0.3344692587852478
1740006942457510700,6.7455107421875,-2.1267778873443604,1.373960018157959,-0.17359967529773712
1740006942467492600,6.75549267578125,-2.385652542114258,2.0389952659606934,-0.10129832476377487
1740006942477474800,6.765474853515625,-2.7207465171813965,2.673356294631958,-0.05246773362159729
1740006942487456500,6.77545654296875,-3.0809237957000732,3.3515467643737793,0.04878778010606766
1740006942497437700,6.785437744140625,-3.428084373474121,4.203643798828125,0.23939990997314453
1740006942507419600,6.795419677734375,-3.7605738639831543,5.246922492980957,0.5242553353309631
1740006942517401600,6.805401611328125,-4.067776679992676,6.416482448577881,0.9014548063278198
1740006942527383600,6.815383544921875,-4.345137596130371,7.5980072021484375,1.3565112352371216
1740006942537365800,6.82536572265625,-4.558254241943359,8.717989921569824,1.8890873193740845
1740006942547346700,6.8353466796875,-4.691378116607666,9.691839218139648,2.503633737564087
1740006942557328600,6.84532861328125,-4.731409549713135,10.429591178894043,3.2126638889312744
1740006942567310600,6.855310546875,-4.647697448730469,10.855539321899414,3.9826436042785645
1740006942577292800,6.865292724609375,-4.4306721687316895,10.795740127563477,4.748266696929932
1740006942587274500,6.8752744140625,-4.154970169067383,10.179648399353027,5.4082159996032715
1740006942597256700,6.885256591796875,-3.8511979579925537,9.064252853393555,5.881830215454102
1740006942607237600,6.895237548828125,-3.4855175018310547,7.603736877441406,6.1062445640563965
1740006942617219600,6.905219482421875,-3.1165931224823,6.131640911102295,6.071725845336914
1740006942627201500,6.915201416015625,-2.7594761848449707,4.865040302276611,5.791579723358154
1740006942637183700,6.925183837890625,-2.3949832916259766,3.920097589492798,5.358638763427734
1740006942647165400,6.93516552734375,-1.930585265159607,3.196458101272583,4.9042487144470215
1740006942657146600,6.945146728515625,-1.3765119314193726,2.5494749546051025,4.471312522888184
1740006942667128600,6.955128662109375,-0.8431394696235657,1.944372296333313,4.03123140335083
1740006942677110800,6.96511083984375,-0.3786773979663849,1.4411648511886597,3.544761896133423
1740006942687092500,6.975092529296875,0.04585766792297363,1.0092358589172363,2.986898422241211
1740006942697074700,6.98507470703125,0.43275734782218933,0.5944145917892456,2.370657205581665
1740006942707055600,6.9950556640625,0.7442774176597595,0.20839202404022217,1.7155439853668213
1740006942717037600,7.00503759765625,0.9519393444061279,-0.1685114949941635,1.0422213077545166
1740006942727019500,7.01501953125,1.038295865058899,-0.48338207602500916,0.3640982210636139
1740006942737001700,7.025001708984375,1.000200629234314,-0.7215486764907837,-0.32359376549720764
1740006942746983400,7.0349833984375,0.8764384388923645,-0.878442645072937,-0.9941428303718567
1740006942756964600,7.044964599609375,0.6850045919418335,-0.9313207864761353,-1.6309795379638672
1740006942766946600,7.054946533203125,0.47122228145599365,-0.8659719228744507,-2.2201199531555176
1740006942776928800,7.0649287109375,0.25511783361434937,-0.6933201551437378,-2.7443416118621826
1740006942786910500,7.074910400390625,0.03338383510708809,-0.4376026391983032,-3.2032241821289062
1740006942796892700,7.084892578125,-0.21019025146961212,-0.14714771509170532,-3.592971086502075
1740006942806873600,7.09487353515625,-0.4475466012954712,0.02971254661679268,-3.9197280406951904
1740006942816855600,7.10485546875,-0.6203155517578125,0.028376882895827293,-4.180396556854248
1740006942826837500,7.11483740234375,-0.7362205386161804,-0.14100894331932068,-4.377934455871582
1740006942836819700,7.12481982421875,-0.795147716999054,-0.42962899804115295,-4.528542995452881
1740006942846801400,7.134801513671875,-0.8020673990249634,-0.6745205521583557,-4.655189037322998
1740006942856782600,7.144782470703125,-0.7496953010559082,-0.8246905207633972,-4.791690826416016
1740006942866764500,7.1547646484375,-0.6419160962104797,-0.9384519457817078,-4.952334880828857
1740006942876746800,7.164746826171875,-0.5623629093170166,-1.1073777675628662,-5.095936298370361
1740006942886728400,7.174728515625,-0.5799866318702698,-1.3537094593048096,-5.146059989929199
1740006942896710700,7.184710693359375,-0.7508524060249329,-1.6035900115966797,-5.05763578414917
1740006942906692900,7.19469287109375,-1.0097479820251465,-1.8303714990615845,-4.825951099395752
1740006942916673800,7.204673828125,-1.2935850620269775,-2.0157434940338135,-4.466094493865967
1740006942926656000,7.214656005859375,-1.565498948097229,-2.1519200801849365,-4.022213935852051
1740006942936638000,7.224637939453125,-1.810567855834961,-2.213850975036621,-3.507038116455078
1740006942946620000,7.234619873046875,-1.9803792238235474,-2.2762389183044434,-2.884817361831665
1740006942956602000,7.24460205078125,-2.007078170776367,-2.225389003753662,-2.248237133026123
1740006942966583000,7.2545830078125,-1.8905338048934937,-2.155316114425659,-1.5754238367080688
1740006942976565000,7.26456494140625,-1.65915048122406,-2.04609751701355,-0.8818972110748291
1740006942986547000,7.274546875,-1.3559013605117798,-1.8777344226837158,-0.21725155413150787
1740006942996529200,7.284529052734375,-1.0030739307403564,-1.6199430227279663,0.38122451305389404
1740006943006510800,7.2945107421875,-0.6554147005081177,-1.2455377578735352,0.8727441430091858
1740006943016491800,7.30449169921875,-0.36035674810409546,-0.7770615220069885,1.2235456705093384
1740006943026474000,7.314473876953125,-0.10631994903087616,-0.30525246262550354,1.4575542211532593
1740006943036456200,7.324456298828125,0.12341812252998352,0.05206599831581116,1.5977333784103394
1740006943046438000,7.33443798828125,0.3244292736053467,0.22785459458827972,1.6861785650253296
1740006943056420000,7.344420166015625,0.45993345975875854,0.22907809913158417,1.738685965538025
1740006943066401000,7.354401123046875,0.5250999927520752,0.0733468234539032,1.7202682495117188
1740006943076383200,7.36438330078125,0.5223178863525391,-0.19417177140712738,1.6010998487472534
1740006943086365000,7.374364990234375,0.4595823884010315,-0.5293571949005127,1.3748900890350342
1740006943096347100,7.38434716796875,0.33290159702301025,-0.8247252702713013,1.0721317529678345
1740006943106329000,7.3943291015625,0.13902054727077484,-1.0443929433822632,0.7648932933807373
1740006943116311000,7.40431103515625,-0.10244584828615189,-1.1680843830108643,0.5032482743263245
1740006943126292000,7.4142919921875,-0.3449285328388214,-1.2395961284637451,0.3454533517360687
1740006943136274200,7.424274169921875,-0.5615230798721313,-1.255399465560913,0.295444518327713
1740006943146256000,7.434255859375,-0.7442010045051575,-1.2299457788467407,0.3271539807319641
1740006943156238000,7.444238037109375,-0.89643394947052,-1.1528419256210327,0.4090384542942047
1740006943166220000,7.454219970703125,-0.9824207425117493,-1.0357041358947754,0.5191615223884583
1740006943176201200,7.464201171875,-0.9907238483428955,-0.8832650780677795,0.6565418243408203
1740006943186183000,7.474182861328125,-0.9247767925262451,-0.7066347002983093,0.8048242330551147
1740006943196165000,7.4841650390625,-0.8018348217010498,-0.5214822888374329,0.949970006942749
1740006943206147000,7.49414697265625,-0.6271825432777405,-0.32288292050361633,1.077587366104126
1740006943216129000,7.50412890625,-0.43319955468177795,-0.10819177329540253,1.1526899337768555
1740006943226110000,7.51410986328125,-0.22549855709075928,0.1088838130235672,1.1718679666519165
1740006943236092200,7.524092041015625,-0.023586567491292953,0.2979041039943695,1.1248645782470703
1740006943246073900,7.534073974609375,0.15543298423290253,0.44790932536125183,1.0101406574249268
1740006943256056000,7.54405615234375,0.295803040266037,0.5649269223213196,0.8378633856773376
1740006943266038000,7.5540380859375,0.40018749237060547,0.6614340543746948,0.6220141649246216
1740006943276019200,7.564019287109375,0.466968834400177,0.7338473200798035,0.3747919797897339
1740006943286001000,7.5740009765625,0.507028341293335,0.7759218215942383,0.10250185430049896
1740006943295983000,7.583983154296875,0.5367149114608765,0.8004677891731262,-0.19216884672641754
1740006943305965000,7.593965087890625,0.5520336627960205,0.8287699818611145,-0.5165996551513672
1740006943315947000,7.603947021484375,0.5494816303253174,0.8623197674751282,-0.8682624101638794
1740006943325928000,7.613927978515625,0.5411233305931091,0.8808867931365967,-1.2357746362686157
1740006943335910100,7.62391015625,0.5264207720756531,0.8803201913833618,-1.5918817520141602
1740006943345891800,7.633891845703125,0.5018386840820312,0.8589139580726624,-1.8917862176895142
1740006943355874000,7.6438740234375,0.45714855194091797,0.815460205078125,-2.1091113090515137
1740006943365856000,7.65385595703125,0.39516159892082214,0.7824087738990784,-2.2403976917266846
1740006943375838000,7.663837890625,0.33915379643440247,0.7907136678695679,-2.2859363555908203
1740006943385819000,7.67381884765625,0.3266521394252777,0.8206688761711121,-2.278050422668457
1740006943395801000,7.683801025390625,0.3794029951095581,0.807942271232605,-2.2535037994384766
1740006943405783000,7.693782958984375,0.46186938881874084,0.7224918007850647,-2.1561338901519775
1740006943415765000,7.703764892578125,0.5431737899780273,0.577637255191803,-1.9763578176498413
1740006943425747000,7.713746826171875,0.6162168383598328,0.39998123049736023,-1.7170337438583374
1740006943435728100,7.72372802734375,0.691957414150238,0.21327126026153564,-1.3996683359146118
1740006943445709800,7.733709716796875,0.7870514392852783,0.06713694334030151,-1.033156394958496
1740006943455692000,7.743692138671875,0.9134452939033508,0.017744816839694977,-0.6067506670951843
1740006943465674000,7.753674072265625,1.1113590002059937,0.057799555361270905,-0.16321851313114166
1740006943475656000,7.763656005859375,1.381350040435791,0.21258755028247833,0.26626530289649963
1740006943485636900,7.773636962890625,1.7018954753875732,0.45193514227867126,0.6671943664550781
1740006943495619000,7.783619140625,2.0104639530181885,0.6484386324882507,1.021523356437683
1740006943505601000,7.79360107421875,2.2734897136688232,0.7956113219261169,1.314286231994629
1740006943515583000,7.8035830078125,2.461909294128418,0.947523832321167,1.551884412765503
1740006943525565000,7.81356494140625,2.5924365520477295,1.0988397598266602,1.7468879222869873
1740006943535547100,7.823547119140625,2.6857097148895264,1.2658311128616333,1.8858386278152466
1740006943545527800,7.83352783203125,2.7562131881713867,1.4017287492752075,1.9466830492019653
1740006943555510000,7.843510009765625,2.8166568279266357,1.4703662395477295,1.9262874126434326
1740006943565492000,7.853491943359375,2.841344118118286,1.4733220338821411,1.804166555404663
1740006943575474000,7.863473876953125,2.8392858505249023,1.363071084022522,1.5884250402450562
1740006943585455900,7.873455810546875,2.7960851192474365,1.137710452079773,1.2686004638671875
1740006943595437000,7.88343701171875,2.7005794048309326,0.8123338222503662,0.8896626830101013
1740006943605419000,7.8934189453125,2.5783751010894775,0.46936872601509094,0.5001442432403564
1740006943615401000,7.90340087890625,2.462597608566284,0.14820998907089233,0.12921059131622314
1740006943625383000,7.9133828125,2.3892300128936768,-0.15328887104988098,-0.21261385083198547
1740006943635365000,7.923365234375,2.414186954498291,-0.4125947952270508,-0.4784836769104004
1740006943645346800,7.933346923828125,2.547853708267212,-0.5785080790519714,-0.601574718952179
1740006943655329000,7.9433291015625,2.7349162101745605,-0.6913455724716187,-0.5756320953369141
1740006943665311000,7.95331103515625,2.9287774562835693,-0.7577325701713562,-0.4195980131626129
1740006943675292000,7.9632919921875,3.104024887084961,-0.7893417477607727,-0.1799800992012024
1740006943685273900,7.97327392578125,3.284193992614746,-0.8118569254875183,0.11078009754419327
1740006943695256000,7.983256103515625,3.4592533111572266,-0.8100541234016418,0.4169692397117615
1740006943705238000,7.993238037109375,3.6271486282348633,-0.7794964909553528,0.7232133150100708
1740006943715220000,8.003219970703125,3.7870264053344727,-0.7171270251274109,0.9975529909133911
1740006943725201000,8.013200927734376,3.9374849796295166,-0.6017676591873169,1.226280689239502
1740006943735183000,8.02318310546875,4.0670647621154785,-0.42145824432373047,1.3916441202163696
1740006943745165000,8.0331650390625,4.146159648895264,-0.18068239092826843,1.516631007194519
1740006943755147000,8.04314697265625,4.156966686248779,0.11907367408275604,1.6133174896240234
1740006943765129200,8.053129150390625,4.0917463302612305,0.4607146382331848,1.6895861625671387
1740006943775111000,8.06311083984375,3.944556951522827,0.8069421648979187,1.7503858804702759
1740006943785092000,8.073092041015625,3.725797414779663,1.119917392730713,1.7897000312805176
1740006943795074000,8.083073974609375,3.4422943592071533,1.384596824645996,1.7974997758865356
1740006943805056000,8.093055908203125,3.101553440093994,1.5903114080429077,1.783043622970581
1740006943815038000,8.103037841796874,2.706223487854004,1.748489499092102,1.7539855241775513
1740006943825020200,8.113020263671874,2.274352550506592,1.8410913944244385,1.7056840658187866
1740006943835001000,8.1230009765625,1.8071751594543457,1.8325514793395996,1.638944149017334
1740006943844983000,8.132983154296875,1.299986481666565,1.713582992553711,1.54424250125885
1740006943854965000,8.142965087890625,0.7606698274612427,1.4877374172210693,1.4124068021774292
1740006943864947200,8.152947265625,0.20432749390602112,1.178951382637024,1.2364308834075928
1740006943874929000,8.162928955078126,-0.3516596555709839,0.8482603430747986,0.9876208305358887
1740006943884910000,8.17291015625,-0.8653365969657898,0.528217613697052,0.6716316938400269
1740006943894892000,8.18289208984375,-1.2960339784622192,0.2381412237882614,0.3198986053466797
1740006943904873500,8.19287353515625,-1.6680914163589478,-0.04410511255264282,-0.03474230691790581
1740006943914855200,8.202855224609374,-2.044036865234375,-0.36918482184410095,-0.3518577218055725
1740006943924837400,8.21283740234375,-2.4716951847076416,-0.7056832313537598,-0.6105329394340515
1740006943934819300,8.2228193359375,-2.9271509647369385,-0.9645137786865234,-0.8284286260604858
1740006943944800300,8.23280029296875,-3.367232322692871,-1.0838141441345215,-1.0058684349060059
1740006943954782200,8.2427822265625,-3.7577085494995117,-1.0906307697296143,-1.1480416059494019
1740006943964764400,8.252764404296874,-4.105208396911621,-1.0596935749053955,-1.2480754852294922
1740006943974746000,8.26274609375,-4.462107181549072,-1.0307705402374268,-1.3224364519119263
1740006943984728300,8.272728271484375,-4.797364234924316,-0.9995471239089966,-1.3619399070739746
1740006943994709200,8.282709228515625,-5.074184894561768,-0.9198331832885742,-1.356263518333435
1740006944004691500,8.29269140625,-5.260152339935303,-0.7967724800109863,-1.312028408050537
1740006944014673200,8.302673095703126,-5.344396591186523,-0.6741034388542175,-1.2212162017822266
1740006944024655400,8.3126552734375,-5.354497909545898,-0.5872125029563904,-1.1048139333724976
1740006944034637300,8.32263720703125,-5.2862868309021,-0.552072286605835,-0.9637317061424255
1740006944044619300,8.332619384765625,-5.164432525634766,-0.549534797668457,-0.804479718208313
1740006944054600200,8.34260009765625,-5.005568504333496,-0.5160371661186218,-0.6604854464530945
1740006944064582400,8.35258251953125,-4.83281135559082,-0.4110774099826813,-0.5796076655387878
1740006944074564000,8.362564208984375,-4.661620140075684,-0.26264554262161255,-0.5630782842636108
1740006944084546300,8.37254638671875,-4.503467082977295,-0.13443295657634735,-0.5791605710983276
1740006944094528500,8.382528564453125,-4.365436553955078,-0.10594520717859268,-0.6069669127464294
1740006944104509400,8.392509521484374,-4.257997512817383,-0.18712235987186432,-0.616703450679779
1740006944114491100,8.4024912109375,-4.1733293533325195,-0.3505870997905731,-0.575611412525177
1740006944124473300,8.412473388671875,-4.103590488433838,-0.5607855916023254,-0.47247621417045593
1740006944134455600,8.42245556640625,-4.031984806060791,-0.7586661577224731,-0.293836772441864
1740006944144437200,8.432437255859375,-3.920323133468628,-0.8800056576728821,-0.04897192120552063
1740006944154418200,8.442418212890624,-3.726590156555176,-0.9266079068183899,0.24669833481311798
1740006944164400400,8.452400390625,-3.488281726837158,-0.8989272713661194,0.5781175494194031
1740006944174382300,8.46238232421875,-3.221524238586426,-0.8801876902580261,0.9509047269821167
1740006944184364300,8.4723642578125,-2.951054096221924,-0.8607796430587769,1.3418508768081665
1740006944194346500,8.482346435546875,-2.678144931793213,-0.8123723268508911,1.7415876388549805
1740006944204328200,8.492328125,-2.403686285018921,-0.7413319945335388,2.103393793106079
1740006944214309000,8.50230908203125,-2.1284070014953613,-0.6652047038078308,2.4052159786224365
1740006944224291300,8.512291259765625,-1.8719253540039062,-0.6334022879600525,2.622495651245117
1740006944234273500,8.5222734375,-1.6187316179275513,-0.5722217559814453,2.669159412384033
1740006944244255200,8.532255126953125,-1.395880937576294,-0.48816922307014465,2.548595666885376
1740006944254237400,8.542237548828124,-1.2071707248687744,-0.36855509877204895,2.2995591163635254
1740006944264218400,8.55221826171875,-1.034758448600769,-0.23494616150856018,1.9476532936096191
1740006944274200300,8.562200439453125,-0.874828577041626,-0.12102173268795013,1.5226746797561646
1740006944284182300,8.572182373046875,-0.753867506980896,-0.04325796291232109,1.0503990650177002
1740006944294164500,8.58216455078125,-0.6850195527076721,-0.006916630547493696,0.5481046438217163
1740006944304146200,8.592146240234374,-0.6719508767127991,-0.010231999680399895,0.05935383960604668
1740006944314128400,8.60212841796875,-0.7296071648597717,-0.07076023519039154,-0.40800562500953674
1740006944324109300,8.612109375,-0.8302232623100281,-0.222420334815979,-0.8278074264526367
1740006944334091500,8.622091552734375,-0.939975380897522,-0.4086249768733978,-1.1592141389846802
1740006944344073200,8.6320732421875,-0.9817371964454651,-0.5915313959121704,-1.4230873584747314
1740006944354055400,8.642055419921874,-0.9477939009666443,-0.727029025554657,-1.652366042137146
1740006944364037400,8.652037353515626,-0.8691083788871765,-0.7943007349967957,-1.8428003787994385
1740006944374018300,8.662018310546875,-0.7672238945960999,-0.776837170124054,-1.968863606452942
1740006944384000300,8.672000244140625,-0.6658850312232971,-0.7085700035095215,-2.0283310413360596
1740006944393982500,8.681982421875,-0.5579778552055359,-0.6020375490188599,-2.0273969173431396
1740006944403964200,8.691964111328126,-0.4462689161300659,-0.4782637059688568,-1.9790135622024536
1740006944413946400,8.7019462890625,-0.33515655994415283,-0.3754562437534332,-1.8903844356536865
1740006944423927300,8.71192724609375,-0.23164613544940948,-0.3053032457828522,-1.7539325952529907
1740006944433909500,8.721909423828125,-0.13453027606010437,-0.27784690260887146,-1.5587705373764038
1740006944443891200,8.73189111328125,-0.03191521763801575,-0.28857865929603577,-1.3320633172988892
1740006944453873400,8.741873291015626,0.12108039855957031,-0.3439050316810608,-1.068529486656189
1740006944463855400,8.75185546875,0.3780384361743927,-0.41499465703964233,-0.791327714920044
1740006944473837300,8.76183740234375,0.7649558782577515,-0.4782693088054657,-0.5295427441596985
1740006944483818200,8.771818359375,1.2928423881530762,-0.5061664581298828,-0.2972426414489746
1740006944493800400,8.781800537109374,1.9488375186920166,-0.4440461993217468,-0.1168053075671196
1740006944503782400,8.791782470703126,2.697366237640381,-0.2752936780452728,0.01917889155447483
1740006944513764400,8.801764404296875,3.424370050430298,-0.002117263153195381,0.08706295490264893
1740006944523746300,8.811746337890625,4.034575939178467,0.23906579613685608,0.09578827023506165
1740006944533727500,8.8217275390625,4.5160980224609375,0.3444325029850006,0.0959177017211914
1740006944543709200,8.831709228515624,4.898035049438477,0.28057417273521423,0.10062430799007416
1740006944553691400,8.84169140625,5.1503753662109375,0.1344107687473297,0.08243261277675629
1740006944563673300,8.85167333984375,5.230374813079834,0.04750889539718628,0.01746346801519394
1740006944573655300,8.8616552734375,5.1212663650512695,0.07508794218301773,-0.10417766124010086
1740006944583637200,8.87163720703125,4.875673770904541,0.1813661754131317,-0.2993926703929901
1740006944593618400,8.881618408203124,4.553821563720703,0.35474249720573425,-0.560136079788208
1740006944603600400,8.891600341796876,4.22950553894043,0.5563480257987976,-0.839211106300354
1740006944613582300,8.901582275390625,3.92284893989563,0.7407558560371399,-1.065875768661499
1740006944623564300,8.911564208984375,3.645195960998535,0.7657898664474487,-1.1951406002044678
1740006944633546200,8.921546142578125,3.3906683921813965,0.6644254922866821,-1.233744502067566
1740006944643527200,8.931527099609376,3.1786510944366455,0.4308373034000397,-1.1867873668670654
1740006944653509400,8.94150927734375,3.024068593978882,0.12163340300321579,-1.0986319780349731
1740006944663491300,8.9514912109375,2.9604451656341553,-0.22065043449401855,-1.041420578956604
1740006944673473300,8.961473388671875,2.989304542541504,-0.5350559949874878,-1.0300085544586182
1740006944683455200,8.971455322265625,3.0678274631500244,-0.817253828048706,-1.0376096963882446
1740006944693437400,8.9814375,3.150780439376831,-1.1092984676361084,-1.0766887664794922
1740006944703418400,8.99141845703125,3.230862617492676,-1.341436743736267,-1.1039835214614868
1740006944713400300,9.001400390625,3.328744888305664,-1.4800500869750977,-1.0337655544281006
1740006944723382300,9.01138232421875,3.425755739212036,-1.5375282764434814,-0.8883604407310486
1740006944733364200,9.0213642578125,3.5400521755218506,-1.5482556819915771,-0.7106208205223083
1740006944743346200,9.03134619140625,3.6438214778900146,-1.5019012689590454,-0.5069068074226379
1740006944753328400,9.041328369140626,3.7425522804260254,-1.4093831777572632,-0.2909320294857025
1740006944763309300,9.051309326171875,3.8226704597473145,-1.297985315322876,-0.060427963733673096
1740006944773291300,9.061291259765625,3.861976146697998,-1.2128183841705322,0.15879635512828827
1740006944783273200,9.071273193359374,3.843266487121582,-1.2088316679000854,0.34091076254844666
1740006944793255400,9.08125537109375,3.754347324371338,-1.2853167057037354,0.46466466784477234
1740006944803237400,9.0912373046875,3.593097448348999,-1.394728422164917,0.5202597379684448
1740006944813218300,9.10121826171875,3.368093729019165,-1.496248722076416,0.50617516040802
1740006944823200300,9.1112001953125,3.0866260528564453,-1.559175968170166,0.4290276765823364
1740006944833182200,9.12118212890625,2.775942087173462,-1.5719194412231445,0.3044787049293518
1740006944843164400,9.131164306640626,2.4583537578582764,-1.506311297416687,0.1477080136537552
1740006944853146400,9.141146484375,2.146648406982422,-1.3431659936904907,-0.039979685097932816
1740006944863128300,9.15112841796875,1.846791386604309,-1.0997275114059448,-0.2362554520368576
1740006944873109200,9.161109130859375,1.5497016906738281,-0.7910510301589966,-0.4290291666984558
1740006944883091500,9.171091552734374,1.230578899383545,-0.43223637342453003,-0.5968219041824341
1740006944893073400,9.181073486328126,0.8868668079376221,-0.031237823888659477,-0.7171684503555298
1740006944903055400,9.191055419921875,0.5167614221572876,0.3800320029258728,-0.7725459933280945
1740006944913037600,9.20103759765625,0.1450156718492508,0.7438238263130188,-0.7445352673530579
1740006944923018500,9.2110185546875,-0.22553123533725739,1.0524884462356567,-0.6320270895957947
1740006944933000400,9.22100048828125,-0.6059753894805908,1.2978105545043945,-0.42684730887413025
1740006944942982400,9.230982421875,-0.9791239500045776,1.439592957496643,-0.15916047990322113
1740006944952964600,9.240964599609375,-1.3485486507415771,1.4429069757461548,0.15193934738636017
1740006944962946300,9.2509462890625,-1.7321093082427979,1.3497101068496704,0.46265894174575806
1740006944972928500,9.260928466796875,-2.148101568222046,1.2040923833847046,0.7589958906173706
1740006944982909400,9.270909423828124,-2.5901079177856445,1.0444188117980957,1.0173070430755615
1740006944992891600,9.2808916015625,-3.0410335063934326,0.9292563796043396,1.2320986986160278
1740006945002873300,9.290873291015625,-3.4599897861480713,0.9151139259338379,1.3864948749542236
1740006945012855600,9.30085546875,-3.818009614944458,0.9599904417991638,1.5185381174087524
1740006945022837500,9.31083740234375,-4.093413352966309,1.0077319145202637,1.6560136079788208
1740006945032818400,9.320818359375,-4.284048080444336,1.061799168586731,1.7835993766784668
1740006945042800400,9.33080029296875,-4.399402618408203,1.0782617330551147,1.8919471502304077
1740006945052782600,9.340782470703125,-4.438954830169678,1.0406016111373901,1.9255201816558838
1740006945062764300,9.350764404296875,-4.430459976196289,0.9332969188690186,1.8679308891296387
1740006945072746500,9.36074658203125,-4.405696392059326,0.8059643507003784,1.73136568069458
1740006945082728400,9.370728515625,-4.398024082183838,0.7006016969680786,1.5263056755065918
1740006945092709600,9.380709716796876,-4.4114556312561035,0.6615698337554932,1.286171555519104
1740006945102691300,9.39069140625,-4.423057556152344,0.6605620980262756,1.024816632270813
1740006945112673500,9.400673583984375,-4.418222427368164,0.6136747598648071,0.7412948608398438
1740006945122655500,9.410655517578125,-4.377893924713135,0.459208220243454,0.4304216504096985
1740006945132637400,9.420637451171874,-4.293820858001709,0.18948151171207428,0.09587064385414124
1740006945142618400,9.430618408203125,-4.181694984436035,-0.11899803578853607,-0.23108510673046112
1740006945152600600,9.4406005859375,-4.055235862731934,-0.39579203724861145,-0.5252912640571594
1740006945162582300,9.450582275390625,-3.9219839572906494,-0.6072075963020325,-0.752769947052002
1740006945172564500,9.460564453125,-3.7977511882781982,-0.7826944589614868,-0.8803867697715759
1740006945182546400,9.47054638671875,-3.69523549079895,-0.9597027897834778,-0.9242884516716003
1740006945192528400,9.4805283203125,-3.616304397583008,-1.1107505559921265,-0.9344977736473083
1740006945202509300,9.49050927734375,-3.567899703979492,-1.2274965047836304,-0.9328793287277222
1740006945212491500,9.500491455078125,-3.510727643966675,-1.2568745613098145,-0.9319283366203308
1740006945222473500,9.510473388671874,-3.420764923095703,-1.2609286308288574,-0.9329714775085449
1740006945232455400,9.520455322265626,-3.2952518463134766,-1.289603590965271,-0.9365032315254211
1740006945242437400,9.530437255859376,-3.1246695518493652,-1.331387996673584,-0.9235519766807556
1740006945252418600,9.54041845703125,-2.9145710468292236,-1.3443831205368042,-0.8899652361869812
1740006945262400500,9.550400390625,-2.686006784439087,-1.3923102617263794,-0.8480210304260254
1740006945272382500,9.560382568359374,-2.4285056591033936,-1.3983745574951172,-0.8369656205177307
1740006945282364400,9.570364501953126,-2.204253673553467,-1.415804147720337,-0.8786011934280396
1740006945292346400,9.580346435546875,-2.024354934692383,-1.4921942949295044,-0.9762609004974365
1740006945302328300,9.590328369140625,-1.8524433374404907,-1.5594348907470703,-1.0853887796401978
1740006945312309500,9.6003095703125,-1.6929265260696411,-1.6381826400756836,-1.1889684200286865
1740006945322291500,9.61029150390625,-1.5983859300613403,-1.7739393711090088,-1.281803011894226
1740006945332273400,9.6202734375,-1.5639939308166504,-1.916268229484558,-1.372970700263977
1740006945342255400,9.63025537109375,-1.5225231647491455,-2.03796648979187,-1.478488564491272
1740006945352237600,9.640237548828125,-1.433543086051941,-2.1123578548431396,-1.6119298934936523
1740006945362218500,9.650218505859375,-1.2758232355117798,-2.061004400253296,-1.704023003578186
1740006945372200400,9.660200439453124,-1.045257329940796,-1.9422231912612915,-1.7529655694961548
1740006945382182400,9.670182373046876,-0.777317225933075,-1.6533043384552002,-1.7094870805740356
1740006945392164400,9.680164306640625,-0.5327014923095703,-1.4538494348526,-1.5812915563583374
1740006945402146300,9.690146240234375,-0.31504109501838684,-1.3120288848876953,-1.41849684715271
1740006945412128500,9.70012841796875,-0.11507363617420197,-1.1104440689086914,-1.2605189085006714
1740006945422109400,9.710109375,0.07321930676698685,-0.8644832372665405,-1.138310432434082
1740006945432091400,9.72009130859375,0.27036136388778687,-0.5360633134841919,-1.0514849424362183
1740006945442073300,9.7300732421875,0.4553333520889282,-0.29725077748298645,-1.009584903717041
1740006945452055600,9.7400556640625,0.6472201347351074,-0.2483031451702118,-0.975533127784729
1740006945462037500,9.75003759765625,0.8178113102912903,-0.40287965536117554,-0.9163315892219543
1740006945472019500,9.76001953125,0.9523717164993286,-0.6523332595825195,-0.8154113292694092
1740006945482000400,9.77000048828125,1.0760829448699951,-0.9404025673866272,-0.69648677110672
1740006945491982300,9.779982421875,1.1851831674575806,-1.2686842679977417,-0.5864159464836121
1740006945501964500,9.789964599609375,1.264999270439148,-1.5932461023330688,-0.4795350432395935
1740006945511946500,9.799946533203125,1.3371714353561401,-1.8388563394546509,-0.3687102496623993
1740006945521928400,9.809928466796874,1.4117915630340576,-1.9351693391799927,-0.20518922805786133
1740006945531910400,9.819910400390626,1.5325851440429688,-1.8798764944076538,0.02230694890022278
1740006945541891600,9.8298916015625,1.721775770187378,-1.6977958679199219,0.27926817536354065
1740006945551873500,9.83987353515625,1.9857122898101807,-1.416174054145813,0.5808223485946655
1740006945561855500,9.84985546875,2.2686002254486084,-1.1138434410095215,0.9408993124961853
1740006945571837400,9.85983740234375,2.5442070960998535,-0.9017630815505981,1.3449780941009521
1740006945581819600,9.869819580078126,2.813755750656128,-0.8137786388397217,1.74660062789917
1740006945591800600,9.879800537109375,3.0567917823791504,-0.9011510014533997,2.075427770614624
1740006945601782500,9.889782470703125,3.2588891983032227,-0.9870752692222595,2.2556984424591064
1740006945611764500,9.899764404296874,3.4697165489196777,-1.0981907844543457,2.222083330154419
1740006945621746400,9.909746337890626,3.678006410598755,-1.2455823421478271,2.011383295059204
1740006945631728400,9.919728271484376,3.8402459621429443,-1.3734910488128662,1.7202692031860352
1740006945641710600,9.929710693359375,3.8985846042633057,-1.5658631324768066,1.49568772315979
1740006945651691500,9.93969140625,3.858252763748169,-1.7072755098342896,1.361854076385498
1740006945661673500,9.949673583984374,3.7507588863372803,-1.7908604145050049,1.2976082563400269
1740006945671655400,9.959655517578126,3.610015392303467,-1.8263365030288696,1.282375693321228
1740006945681637600,9.9696376953125,3.508578300476074,-1.8122308254241943,1.3140034675598145
1740006945691619300,9.979619384765625,3.453599452972412,-1.7355668544769287,1.3763765096664429
1740006945701600500,9.9896005859375,3.4076662063598633,-1.6336153745651245,1.4031258821487427
1740006945711582500,9.99958251953125,3.3673341274261475,-1.6041457653045654,1.3651854991912842
1740006945721564400,10.009564453125,3.3421452045440674,-1.6303656101226807,1.3646225929260254
1740006945731546400,10.01954638671875,3.3003127574920654,-1.575844168663025,1.431606411933899
1740006945741528600,10.029528564453125,3.2331135272979736,-1.4722964763641357,1.5730820894241333
1740006945751510300,10.03951025390625,3.133100986480713,-1.345897912979126,1.7527259588241577
1740006945761491500,10.049491455078124,3.0323286056518555,-1.1986783742904663,1.9250447750091553
1740006945771473400,10.059473388671876,2.9644899368286133,-1.034381628036499,2.04374623298645
1740006945781455600,10.06945556640625,2.934593677520752,-0.8512396812438965,2.0808379650115967
1740006945791437300,10.079437255859375,2.9419407844543457,-0.6509472131729126,2.067715644836426
1740006945801419500,10.08941943359375,2.98186993598938,-0.4240413308143616,2.037545680999756
1740006945811401500,10.0994013671875,3.024686574935913,-0.1881745159626007,1.9978152513504028
1740006945821382400,10.10938232421875,3.043731927871704,0.025730300694704056,1.9484378099441528
1740006945831364400,10.1193642578125,3.0018820762634277,0.20709365606307983,1.8831026554107666
1740006945841346600,10.1293466796875,2.8759758472442627,0.33036527037620544,1.8201942443847656
1740006945851328300,10.139328369140625,2.6660616397857666,0.35387635231018066,1.7602566480636597
1740006945861310500,10.149310546875,2.4044525623321533,0.29169315099716187,1.664886474609375
1740006945871292400,10.15929248046875,2.120760202407837,0.19055777788162231,1.523273229598999
1740006945881273600,10.169273681640625,1.833580732345581,0.06114412471652031,1.3297686576843262
1740006945891255300,10.17925537109375,1.541936993598938,-0.024561569094657898,1.0989738702774048
1740006945901237500,10.189237548828125,1.2665181159973145,-0.02920372597873211,0.8366037607192993
1740006945911219500,10.199219482421874,0.9969339966773987,0.07727301865816116,0.5668314695358276
1740006945921201400,10.209201416015626,0.7142554521560669,0.25661134719848633,0.31413426995277405
1740006945931182300,10.219182373046875,0.4047043025493622,0.5095035433769226,0.08838006854057312
1740006945941164500,10.22916455078125,0.06768422573804855,0.7695984840393066,-0.07969735562801361
1740006945951146200,10.239146240234374,-0.25792717933654785,0.9834986329078674,-0.16943594813346863
1740006945961128400,10.24912841796875,-0.5544928312301636,1.1517856121063232,-0.20235393941402435
1740006945971110400,10.2591103515625,-0.8497792482376099,1.2889231443405151,-0.20031972229480743
1740006945981092400,10.26909228515625,-1.167702078819275,1.391968846321106,-0.19270974397659302
1740006945991073300,10.2790732421875,-1.508192777633667,1.4116156101226807,-0.1772594153881073
1740006946001055500,10.289055419921874,-1.8635584115982056,1.4049673080444336,-0.14842510223388672
1740006946011037400,10.299037353515626,-2.2147560119628906,1.4447673559188843,-0.09915769845247269
1740006946021019400,10.309019287109376,-2.5536770820617676,1.5814343690872192,-0.027764206752181053
1740006946031001600,10.319001708984375,-2.8810722827911377,1.8051481246948242,0.051105841994285583
1740006946040983600,10.328983642578125,-3.220369338989258,2.0197088718414307,0.13292694091796875
1740006946050964500,10.338964599609374,-3.5467846393585205,2.163578748703003,0.2245953381061554
1740006946060946400,10.348946533203126,-3.848633289337158,2.250446081161499,0.345521479845047
1740006946070928600,10.3589287109375,-4.113112449645996,2.317298650741577,0.4929720461368561
1740006946080910300,10.368910400390625,-4.317600727081299,2.3787388801574707,0.6478673219680786
1740006946090892500,10.378892578125,-4.473740577697754,2.448603868484497,0.7940000891685486
1740006946100873500,10.38887353515625,-4.561305522918701,2.5052316188812256,0.914103627204895
1740006946110855400,10.39885546875,-4.542158603668213,2.5026769638061523,0.9746281504631042
1740006946120837400,10.40883740234375,-4.423794746398926,2.4666311740875244,0.8889414668083191
1740006946130819600,10.418819580078125,-4.251913070678711,2.3164479732513428,0.6510557532310486
1740006946140801500,10.428801513671875,-4.079884052276611,1.9865940809249878,0.24897409975528717
1740006946150783500,10.438783447265624,-3.93076753616333,1.5149136781692505,-0.3101608157157898
1740006946160764400,10.448764404296876,-3.8436005115509033,0.9950392842292786,-0.979524552822113
1740006946170746600,10.45874658203125,-3.819042205810547,0.4801112413406372,-1.6877515316009521
1740006946180728300,10.468728271484375,-3.8060836791992188,-0.003677553730085492,-2.3245046138763428
1740006946190710500,10.47871044921875,-3.767939805984497,-0.45311635732650757,-2.831899881362915
1740006946200692500,10.4886923828125,-3.6953558921813965,-0.8207263350486755,-3.1599647998809814
1740006946210674400,10.49867431640625,-3.5988075733184814,-1.0803909301757812,-3.287001609802246
1740006946220655400,10.5086552734375,-3.51692533493042,-1.2070465087890625,-3.2421531677246094
1740006946230637600,10.518637451171875,-3.4180400371551514,-1.2064950466156006,-3.0391533374786377
1740006946240619500,10.52861962890625,-3.2828707695007324,-1.101841688156128,-2.7024574279785156
1740006946250601500,10.5386015625,-3.1158156394958496,-0.9465188384056091,-2.2637970447540283
1740006946260583400,10.54858349609375,-2.8629989624023438,-0.7889057993888855,-1.7391704320907593
1740006946270565600,10.558565673828125,-2.532283306121826,-0.6633157730102539,-1.1766345500946045
1740006946280546300,10.56854638671875,-2.175213575363159,-0.601808488368988,-0.6464519500732422
1740006946290528500,10.578528564453125,-1.845704436302185,-0.5315535068511963,-0.23365992307662964
1740006946300510500,10.588510498046874,-1.5991731882095337,-0.5036633014678955,0.027715222910046577
1740006946310492400,10.598492431640626,-1.4209388494491577,-0.5214444994926453,0.14051277935504913
1740006946320474400,10.608474365234375,-1.3018784523010254,-0.6702161431312561,0.13416166603565216
1740006946330456600,10.61845654296875,-1.2350448369979858,-0.918721616268158,0.026754526421427727
1740006946340437500,10.6284375,-1.2018312215805054,-1.2024683952331543,-0.1925935447216034
1740006946350419500,10.63841943359375,-1.2313177585601807,-1.449837565422058,-0.48349273204803467
1740006946360401400,10.6484013671875,-1.2669018507003784,-1.8453696966171265,-0.8323476910591125
1740006946370383600,10.658383544921875,-1.2697033882141113,-2.275811195373535,-1.1744849681854248
1740006946380365300,10.668365234375,-1.2588869333267212,-2.6449060440063477,-1.4279403686523438
1740006946390346500,10.678346435546874,-1.1519709825515747,-2.6179158687591553,-1.54287588596344
1740006946400328400,10.688328369140624,-0.9766767024993896,-2.5072944164276123,-1.5077290534973145
1740006946410310400,10.698310302734376,-0.82286137342453,-2.3984668254852295,-1.3862059116363525
1740006946420292400,10.708292236328125,-0.6350650787353516,-2.2749838829040527,-1.2381290197372437
1740006946430274600,10.718274658203125,-0.39078187942504883,-2.1166391372680664,-1.1150286197662354
1740006946440256300,10.72825634765625,-0.1405898928642273,-1.9555137157440186,-1.0433675050735474
1740006946450237400,10.738237548828126,0.06997549533843994,-1.7910041809082031,-1.0127736330032349
1740006946460219400,10.748219482421876,0.2421552538871765,-1.6112536191940308,-0.9961056113243103
1740006946470201600,10.75820166015625,0.4088676869869232,-1.3341413736343384,-0.9833090901374817
1740006946480183300,10.768183349609375,0.5543053150177002,-0.9455882906913757,-0.9778333306312561
1740006946490165500,10.77816552734375,0.688841700553894,-0.7891846299171448,-0.944938600063324
1740006946500147500,10.7881474609375,0.8191868662834167,-0.6829535365104675,-0.8577107787132263
1740006946510128400,10.79812841796875,0.968035876750946,-1.026884913444519,-0.7401378750801086
1740006946520110300,10.8081103515625,1.0668655633926392,-1.9364616870880127,-0.6095156669616699
1740006946530092500,10.818092529296875,1.1771645545959473,-1.99019193649292,-0.4796391427516937
1740006946540074200,10.82807421875,1.3716626167297363,-1.2475390434265137,-0.3219909369945526
1740006946550056400,10.838056396484374,1.5740699768066406,-0.8551774621009827,0.023038620129227638
1740006946560038700,10.84803857421875,1.693097472190857,-1.1845817565917969,0.48368051648139954
1740006946570019600,10.85801953125,1.7478083372116089,-1.5233254432678223,0.9732386469841003
1740006946580001300,10.868001220703125,1.8328602313995361,-1.5728663206100464,1.4259848594665527
1740006946589983500,10.8779833984375,1.9899537563323975,-1.3180805444717407,1.8182345628738403
1740006946599965700,10.887965576171876,2.1590495109558105,-0.9707736968994141,2.189697742462158
1740006946609947400,10.897947509765626,2.282355785369873,-0.7493782043457031,2.526228427886963
1740006946619929600,10.9079296875,2.358675718307495,-0.6697044372558594,2.809921979904175
1740006946629910500,10.91791064453125,2.451087236404419,-0.5773579478263855,3.0049805641174316
1740006946639892200,10.927892333984374,2.5800390243530273,-0.427742600440979,3.0855607986450195
1740006946649874400,10.93787451171875,2.691056966781616,-0.24991682171821594,3.0185720920562744
1740006946659856600,10.947856689453126,2.7367453575134277,-0.09659090638160706,2.8247005939483643
1740006946669838300,10.95783837890625,2.7374417781829834,0.002196820918470621,2.5954623222351074
1740006946679819300,10.9678193359375,2.707740545272827,0.008861914277076721,2.346005439758301
1740006946689801500,10.977801513671874,2.646857976913452,-0.06731854379177094,2.0295815467834473
1740006946699783700,10.98778369140625,2.5591847896575928,-0.2221057265996933,1.7241805791854858
1740006946709765400,10.997765380859375,2.454806327819824,-0.45389324426651,1.5178824663162231
1740006946719747600,11.00774755859375,2.332883596420288,-0.7699292302131653,1.4893001317977905
1740006946729729500,11.0177294921875,2.1821722984313965,-1.0506647825241089,1.6078519821166992
1740006946739710500,11.02771044921875,2.019019365310669,-1.2089886665344238,1.7861963510513306
1740006946749692400,11.0376923828125,1.9006983041763306,-1.2040226459503174,2.0197718143463135
1740006946759674600,11.047674560546875,1.832905650138855,-1.0355702638626099,2.2578678131103516
1740006946769656300,11.05765625,1.7887276411056519,-0.8319821357727051,2.453084707260132
1740006946779638500,11.067638427734375,1.7405182123184204,-0.6829378008842468,2.625906467437744
1740006946789620500,11.077620361328124,1.693856954574585,-0.659460723400116,2.804202079772949
1740006946799601700,11.0876015625,1.6541484594345093,-0.7190311551094055,2.9169723987579346
1740006946809583400,11.097583251953125,1.6497738361358643,-0.7778061628341675,2.9131124019622803
1740006946819565600,11.107565673828125,1.703048825263977,-0.8240615129470825,2.835599660873413
1740006946829547500,11.117547607421875,1.7289515733718872,-0.972357451915741,2.758023500442505
1740006946839529500,11.127529541015624,1.763405203819275,-1.2195978164672852,2.633518934249878
1740006946849511400,11.137511474609376,1.7723699808120728,-1.553629994392395,2.44756817817688
1740006946859492600,11.14749267578125,1.7686196565628052,-1.757692575454712,2.195012331008911
1740006946869474300,11.157474365234375,1.729052186012268,-1.8269177675247192,1.901119589805603
1740006946879456500,11.16745654296875,1.664422631263733,-1.833038568496704,1.6346911191940308
1740006946889438500,11.1774384765625,1.6029478311538696,-1.737025260925293,1.4194300174713135
1740006946899420400,11.18742041015625,1.5442720651626587,-1.5500000715255737,1.2528958320617676
1740006946909402600,11.197402587890625,1.4978845119476318,-1.3132750988006592,1.1133874654769897
1740006946919383800,11.2073837890625,1.4650895595550537,-1.0660943984985352,1.012040376663208
1740006946929365800,11.21736572265625,1.4457988739013672,-0.8182238340377808,0.959639310836792
1740006946939347700,11.22734765625,1.4268276691436768,-0.6007533073425293,0.9372484683990479
1740006946949329700,11.23732958984375,1.3707923889160156,-0.4405066668987274,0.8833119869232178
1740006946959311600,11.2473115234375,1.2805413007736206,-0.30980750918388367,0.7576538920402527
1740006946969293600,11.25729345703125,1.1663609743118286,-0.15165887773036957,0.5762689113616943
1740006946979274800,11.267274658203124,1.0093261003494263,0.0376223549246788,0.37004148960113525
1740006946989256700,11.277256591796874,0.788093626499176,0.28197231888771057,0.17172768712043762
1740006946999238700,11.28723876953125,0.5188093781471252,0.6112476587295532,0.0061280811205506325
1740006947009220600,11.297220703125,0.26111388206481934,1.0048753023147583,-0.14155539870262146
1740006947019202800,11.307202880859375,0.05381342023611069,1.3872565031051636,-0.25112342834472656
1740006947029184800,11.317184814453125,-0.12938278913497925,1.68717360496521,-0.3082641363143921
1740006947039165700,11.327165771484376,-0.34909117221832275,1.9054639339447021,-0.29125744104385376
1740006947049147600,11.337147705078126,-0.6299006342887878,2.1072299480438232,-0.2223437875509262
1740006947059129600,11.347129638671875,-0.9782551527023315,2.288987636566162,-0.1382550150156021
1740006947069111800,11.35711181640625,-1.3419101238250732,2.422445058822632,-0.09573515504598618
1740006947079093800,11.36709375,-1.6935653686523438,2.543328046798706,-0.1250765323638916
1740006947089075700,11.37707568359375,-2.017890691757202,2.6363301277160645,-0.23531150817871094
1740006947099056600,11.387056640625,-2.317746877670288,2.7101523876190186,-0.43746140599250793
1740006947109038600,11.39703857421875,-2.601166009902954,2.7703123092651367,-0.6477782130241394
1740006947119020800,11.407020751953125,-2.863535165786743,2.796766519546509,-0.7867603302001953
1740006947129002800,11.417002685546874,-3.1497995853424072,2.8312559127807617,-0.8292098045349121
1740006947138984700,11.426984619140624,-3.4333372116088867,2.866407871246338,-0.7851046919822693
1740006947148967000,11.436966796875,-3.6661388874053955,2.879011392593384,-0.675743579864502
1740006947158947600,11.446947509765625,-3.8256113529205322,2.831876277923584,-0.5276997685432434
1740006947168929800,11.4569296875,-3.907550096511841,2.753182888031006,-0.34651535749435425
1740006947178911700,11.466911865234374,-3.9136745929718018,2.645078659057617,-0.15938036143779755
1740006947188893700,11.476893798828126,-3.847388744354248,2.520191192626953,0.0005195586709305644
1740006947198875600,11.486875732421876,-3.769036293029785,2.3758468627929688,0.09981844574213028
1740006947208857900,11.49685791015625,-3.7219226360321045,2.1936116218566895,0.13331061601638794
1740006947218838800,11.5068388671875,-3.7287003993988037,1.9618890285491943,0.0993497222661972
1740006947228820700,11.51682080078125,-3.8005008697509766,1.688072919845581,-0.012808692641556263
1740006947238802700,11.526802734375,-3.932575225830078,1.3976013660430908,-0.17172536253929138
1740006947248785000,11.536784912109376,-4.102836608886719,1.1069470643997192,-0.3280758261680603
1740006947258766600,11.5467666015625,-4.273716926574707,0.879012405872345,-0.41084766387939453
1740006947268748800,11.556748779296875,-4.42558479309082,0.7230454683303833,-0.3718477189540863
1740006947278729700,11.566729736328124,-4.513402462005615,0.6727884411811829,-0.19802799820899963
1740006947288711700,11.576711669921876,-4.5317230224609375,0.6936807036399841,0.09976367652416229
1740006947298693600,11.586693603515625,-4.504188060760498,0.7252519130706787,0.4881814420223236
1740006947308675800,11.59667578125,-4.4397807121276855,0.7285557389259338,0.9365646839141846
1740006947318657500,11.606657470703125,-4.315759658813477,0.6747153997421265,1.3988219499588013
1740006947328639700,11.6166396484375,-4.133157253265381,0.5842189192771912,1.8290735483169556
1740006947338620700,11.62662060546875,-3.9150049686431885,0.4922088086605072,2.1760947704315186
1740006947348603000,11.636602783203125,-3.6805574893951416,0.4353964924812317,2.3739500045776367
1740006947358584600,11.64658447265625,-3.4433929920196533,0.41821086406707764,2.387176275253296
1740006947368566800,11.65656689453125,-3.2000420093536377,0.3753141164779663,2.2477340698242188
1740006947378548700,11.666548828125,-2.9501757621765137,0.25242918729782104,1.9653369188308716
1740006947388530700,11.67653076171875,-2.7105844020843506,0.1119367703795433,1.5755226612091064
1740006947398511600,11.68651171875,-2.497943878173828,-0.010322028771042824,1.0986658334732056
1740006947408493800,11.696493896484375,-2.3040597438812256,-0.11846106499433517,0.5606569647789001
1740006947418475500,11.7064755859375,-2.1460657119750977,-0.22585701942443848,-0.011501877568662167
1740006947428457700,11.716457763671874,-2.015641212463379,-0.35934263467788696,-0.5708941221237183
1740006947438439700,11.726439697265626,-1.8935034275054932,-0.5091899037361145,-1.081972599029541
1740006947448421600,11.736421630859375,-1.7306736707687378,-0.648384153842926,-1.5053951740264893
1740006947458402600,11.746402587890625,-1.5329698324203491,-0.7438099980354309,-1.8259124755859375
1740006947468384800,11.756384765625,-1.3363016843795776,-0.7733365297317505,-2.0398499965667725
1740006947478366700,11.76636669921875,-1.157715082168579,-0.7608494758605957,-2.132964611053467
1740006947488348700,11.7763486328125,-0.987533450126648,-0.7262089848518372,-2.1156094074249268
1740006947498330600,11.78633056640625,-0.8278063535690308,-0.6596581935882568,-2.0037219524383545
1740006947508312600,11.7963125,-0.6756480932235718,-0.5485621094703674,-1.8169758319854736
1740006947518293500,11.80629345703125,-0.5397040843963623,-0.37826547026634216,-1.5993857383728027
1740006947528275700,11.816275634765624,-0.37721961736679077,-0.16828200221061707,-1.3765647411346436
1740006947538257700,11.826257568359376,-0.2055852711200714,-0.002942575141787529,-1.1489238739013672
1740006947548239600,11.836239501953125,-0.011001495644450188,0.13279905915260315,-0.8778289556503296
1740006947558221800,11.846221923828125,0.20938493311405182,0.18628278374671936,-0.5618331432342529
1740006947568203800,11.856203857421875,0.46045368909835815,0.1305520087480545,-0.23499664664268494
1740006947578184700,11.866184814453124,0.7858312726020813,0.0021370449103415012,0.0640164241194725
1740006947588166700,11.876166748046876,1.1705906391143799,-0.11593344807624817,0.3320482075214386
1740006947598148900,11.88614892578125,1.579798698425293,-0.20052583515644073,0.5411633849143982
1740006947608130800,11.896130859375,2.011094331741333,-0.17087258398532867,0.7056816816329956
1740006947618112800,11.90611279296875,2.444978952407837,0.011278310790657997,0.8642473220825195
1740006947628094700,11.9160947265625,2.8686130046844482,0.2815918028354645,1.0286062955856323
1740006947638075600,11.92607568359375,3.2739920616149902,0.534345805644989,1.1924102306365967
1740006947648057600,11.9360576171875,3.65765380859375,0.7255238890647888,1.3624777793884277
1740006947658039800,11.946039794921875,4.0068182945251465,0.8302745223045349,1.5353124141693115
1740006947668021800,11.956021728515625,4.316287517547607,0.8832844495773315,1.69114351272583
1740006947678003700,11.966003662109374,4.545104026794434,0.8847082257270813,1.7673174142837524
1740006947687984600,11.975984619140625,4.680253505706787,0.8273643851280212,1.7457102537155151
1740006947697966800,11.985966796875,4.672942638397217,0.7386276125907898,1.6281119585037231
1740006947707948800,11.99594873046875,4.474654197692871,0.6365270614624023,1.4090039730072021
1740006947717930800,12.0059306640625,4.199056148529053,0.4564201235771179,1.1436498165130615
1740006947727912700,12.01591259765625,3.9415395259857178,0.38592347502708435,0.8690565228462219
1740006947737894700,12.025894775390626,3.6926612854003906,0.4376300573348999,0.5250115394592285
1740006947747876600,12.035876708984375,3.4672493934631348,0.507180392742157,0.10079725831747055
1740006947757857800,12.04585791015625,3.3775618076324463,0.5374115109443665,-0.277408629655838
1740006947767839700,12.05583984375,3.412731170654297,0.5483224391937256,-0.5383265018463135
1740006947777821700,12.06582177734375,3.5058882236480713,0.5199595093727112,-0.68735671043396
1740006947787803600,12.0758037109375,3.601654529571533,0.4781443476676941,-0.7160144448280334
1740006947797785900,12.085785888671875,3.660688877105713,0.42764630913734436,-0.6934726238250732
1740006947807767600,12.095767578125,3.747375011444092,0.3361579179763794,-0.6189284920692444
1740006947817748700,12.105748779296874,3.865443706512451,0.25530141592025757,-0.5172165036201477
1740006947827730700,12.115730712890626,3.994250774383545,0.19669164717197418,-0.40663108229637146
1740006947837712600,12.125712646484375,4.107999801635742,0.12307146936655045,-0.32152870297431946
1740006947847694600,12.135694580078125,4.182293891906738,0.012883766554296017,-0.26467302441596985
1740006947857676800,12.1456767578125,4.203054904937744,-0.07215415686368942,-0.22791527211666107
1740006947867658500,12.155658447265624,4.177576065063477,-0.14287610352039337,-0.1919011026620865
1740006947877639700,12.1656396484375,4.102493762969971,-0.2147550880908966,-0.1693534404039383
1740006947887621600,12.17562158203125,3.9905383586883545,-0.28976598381996155,-0.1851298213005066
1740006947897603800,12.185603759765625,3.8580880165100098,-0.3913858234882355,-0.23139531910419464
1740006947907585000,12.1955849609375,3.735154867172241,-0.4938194155693054,-0.30528348684310913
1740006947917567200,12.205567138671874,3.6196818351745605,-0.5818328857421875,-0.38898903131484985
1740006947927549200,12.215549072265626,3.489744186401367,-0.6937230825424194,-0.4803670644760132
1740006947937530400,12.2255302734375,3.325512170791626,-0.8288894295692444,-0.5669882297515869
1740006947947512000,12.235511962890625,3.1343040466308594,-0.968561589717865,-0.6235211491584778
1740006947957494300,12.245494384765625,2.9455413818359375,-1.061468243598938,-0.638148307800293
1740006947967476200,12.255476318359374,2.7448248863220215,-1.100549578666687,-0.6300593614578247
1740006947977458200,12.265458251953126,2.515336036682129,-1.0958714485168457,-0.6041502356529236
1740006947987440000,12.275440185546875,2.269681215286255,-1.0462363958358765,-0.5496335029602051
1740006947997421300,12.28542138671875,2.0078938007354736,-0.9665117859840393,-0.44645145535469055
1740006948007403000,12.295403076171874,1.7339088916778564,-0.8602568507194519,-0.29816922545433044
1740006948017385200,12.30538525390625,1.4358971118927002,-0.71440589427948,-0.11639462411403656
1740006948027367200,12.3153671875,1.1206530332565308,-0.5511897802352905,0.0875716283917427
1740006948037349000,12.32534912109375,0.8130329847335815,-0.4286830723285675,0.297985315322876
1740006948047331000,12.3353310546875,0.5066317319869995,-0.3514648973941803,0.4925414025783539
1740006948057312300,12.345312255859374,0.18811742961406708,-0.301092267036438,0.6348345875740051
1740006948067294200,12.355294189453126,-0.14987576007843018,-0.26218757033348083,0.7072805166244507
1740006948077276200,12.365276123046876,-0.5177794694900513,-0.2158174216747284,0.7049225568771362
1740006948087258000,12.375258056640625,-0.9423329830169678,-0.12532763183116913,0.6196935176849365
1740006948097240300,12.385240234375,-1.4348630905151367,0.008778504095971584,0.48146429657936096
1740006948107222300,12.39522216796875,-1.9857103824615479,0.17707853019237518,0.3458169400691986
1740006948117203200,12.405203125,-2.5469014644622803,0.33409583568573,0.2560601532459259
1740006948127185200,12.41518505859375,-3.0465452671051025,0.4441108703613281,0.22502005100250244
1740006948137167000,12.4251669921875,-3.4246935844421387,0.4947143793106079,0.24301184713840485
1740006948147149300,12.4351494140625,-3.667335033416748,0.4933263659477234,0.28469938039779663
1740006948157131300,12.44513134765625,-3.765460252761841,0.4658212661743164,0.32661888003349304
1740006948167113200,12.45511328125,-3.7526257038116455,0.4161148965358734,0.3483865261077881
1740006948177094100,12.46509423828125,-3.683712959289551,0.34325799345970154,0.30245739221572876
1740006948187076000,12.475076171875,-3.6157257556915283,0.3421657681465149,0.13484402000904083
1740006948197058300,12.485058349609375,-3.6380603313446045,0.38567331433296204,-0.11010555922985077
1740006948207040300,12.495040283203124,-3.745725393295288,0.40486645698547363,-0.35876497626304626
1740006948217022200,12.505022216796876,-3.934022903442383,0.46019628643989563,-0.6026186347007751
1740006948227004400,12.51500439453125,-4.17006778717041,0.49184197187423706,-0.8385608792304993
1740006948236986000,12.524986083984375,-4.3979315757751465,0.4991193115711212,-1.0806143283843994
1740006948246967300,12.53496728515625,-4.549418926239014,0.4658089578151703,-1.326501727104187
1740006948256949200,12.54494921875,-4.59679651260376,0.38110578060150146,-1.5519739389419556
1740006948266931200,12.55493115234375,-4.566258430480957,0.263012558221817,-1.7255457639694214
1740006948276913200,12.5649130859375,-4.495546340942383,0.17453278601169586,-1.8455175161361694
