time,seconds_elapsed,z,y,x
1740006935733533200,0.021533203125,-1.652144432067871,0.3961326777935028,0.298345685005188
1740006935743514400,0.031514404296875,-1.4783848524093628,0.35554051399230957,0.17404982447624207
1740006935753496000,0.04149609375,-0.9792081117630005,0.5655598044395447,-0.18163664638996124
1740006935763478300,0.051478271484375,-0.27844706177711487,0.6574809551239014,-0.5365811586380005
1740006935773460200,0.061460205078125,0.1829349249601364,0.7824146151542664,-0.7858421206474304
1740006935783441400,0.07144140625,0.3095482587814331,0.6691426634788513,-0.9882476925849915
1740006935793423000,0.081423095703125,0.23763439059257507,0.3811127245426178,-1.1540586948394775
1740006935803405300,0.0914052734375,0.047694552689790726,0.30155080556869507,-1.2438045740127563
1740006935813387300,0.10138720703125,-0.13706783950328827,0.6463425159454346,-1.1516331434249878
1740006935823368200,0.1113681640625,-0.3452109098434448,1.1166841983795166,-1.051055908203125
1740006935833350100,0.12135009765625,-0.41805291175842285,1.4430197477340698,-0.9485580325126648
1740006935843332400,0.131332275390625,-0.37277278304100037,1.7726165056228638,-0.8194059133529663
1740006935853314000,0.14131396484375,-0.23149234056472778,1.7497327327728271,-0.7288070321083069
1740006935863295200,0.151295166015625,-0.1279214769601822,0.8904633522033691,-0.9136562347412109
1740006935873277200,0.161277099609375,0.06833937764167786,0.8508525490760803,-0.9264860153198242
1740006935883259400,0.17125927734375,0.27137291431427,0.6015729308128357,-0.9538417458534241
1740006935893241900,0.181241943359375,0.39023858308792114,0.6498318314552307,-0.8945280909538269
1740006935903222800,0.191222900390625,0.4427039325237274,0.6852068305015564,-0.7509980797767639
1740006935913205000,0.201205078125,0.4719177484512329,0.7722269892692566,-0.5019994974136353
1740006935923186700,0.211186767578125,0.49267175793647766,0.9159204959869385,-0.2010367065668106
1740006935933169000,0.2211689453125,0.5288965702056885,1.1187607049942017,0.13917440176010132
1740006935943149800,0.23114990234375,0.6145995259284973,1.2635674476623535,0.5203704833984375
1740006935953132000,0.241132080078125,0.7430256605148315,1.2738008499145508,0.9561150670051575
1740006935963113700,0.25111376953125,0.892195999622345,1.1739944219589233,1.451752781867981
1740006935973096000,0.261095947265625,1.0385446548461914,1.0194913148880005,1.9671159982681274
1740006935983078000,0.271077880859375,1.0375055074691772,1.1260734796524048,2.3976902961730957
1740006935993058800,0.281058837890625,1.013846755027771,1.2109739780426025,2.7125980854034424
1740006936003040800,0.291040771484375,1.0075044631958008,1.2134469747543335,2.9290857315063477
1740006936013023000,0.30102294921875,0.9354521036148071,1.1908037662506104,3.0402724742889404
1740006936023004700,0.311004638671875,0.8179707527160645,1.3540887832641602,2.9524085521698
1740006936032985900,0.32098583984375,0.765555202960968,1.8532003164291382,2.6914522647857666
1740006936042967800,0.3309677734375,0.8478612899780273,2.3590216636657715,2.407118082046509
1740006936052950000,0.340949951171875,1.0805044174194336,2.6854991912841797,2.1961669921875
1740006936062931700,0.350931640625,1.3049678802490234,2.624119997024536,2.0666699409484863
1740006936072913000,0.360912841796875,1.4282370805740356,2.263397455215454,1.9930123090744019
1740006936082894800,0.370894775390625,1.4312440156936646,1.8377989530563354,1.9741935729980469
1740006936092876800,0.380876708984375,1.3730486631393433,1.513686180114746,1.9708664417266846
1740006936102858800,0.390858642578125,1.3279879093170166,1.2427257299423218,1.9582873582839966
1740006936112840000,0.40083984375,1.3862725496292114,0.6982938647270203,1.8675217628479004
1740006936122822000,0.41082177734375,1.6564531326293945,-0.30780309438705444,1.6081188917160034
1740006936132803800,0.420803955078125,2.0102522373199463,-1.2826875448226929,1.1642147302627563
1740006936142785800,0.430785888671875,2.1823644638061523,-1.525301218032837,0.5675300359725952
1740006936152767000,0.44076708984375,2.1590218544006348,-0.21871183812618256,-0.1547946333885193
1740006936162749000,0.4507490234375,2.1450328826904297,1.0600920915603638,-0.7333320379257202
1740006936172731000,0.46073095703125,2.095337390899658,0.8683961033821106,-1.1509846448898315
1740006936182712800,0.470712890625,1.8355786800384521,0.10095910727977753,-1.4754493236541748
1740006936192694000,0.480694091796875,1.3229622840881348,-0.24003922939300537,-1.6783208847045898
1740006936202675700,0.49067578125,0.5516719222068787,-0.12205693125724792,-1.7741973400115967
1740006936212658000,0.500657958984375,-0.3011406660079956,0.008887235075235367,-1.7839365005493164
1740006936222639900,0.510639892578125,-1.0220810174942017,-0.05517829954624176,-1.7686896324157715
1740006936232621800,0.520621826171875,-1.502794861793518,-0.09605222940444946,-1.7321242094039917
1740006936242602800,0.530602783203125,-1.707811713218689,-0.14666827023029327,-1.6129333972930908
1740006936252585000,0.5405849609375,-1.652964472770691,-0.1439337432384491,-1.425846815109253
1740006936262567000,0.55056689453125,-1.4047380685806274,0.04742584004998207,-1.2112770080566406
1740006936272548900,0.560548828125,-1.00698721408844,0.13637275993824005,-0.9466477632522583
1740006936282529800,0.57052978515625,-0.5908308029174805,0.07846977561712265,-0.6801137924194336
1740006936292512000,0.580511962890625,-0.2376279979944229,0.2759903073310852,-0.38247600197792053
1740006936302493700,0.59049365234375,0.002186455298215151,0.7194976806640625,-0.02293221279978752
1740006936312476000,0.600475830078125,0.08644115179777145,1.3995816707611084,0.3471488952636719
1740006936322456800,0.610456787109375,0.04207954183220863,1.9459326267242432,0.6635758280754089
1740006936332439000,0.62043896484375,-0.11273853480815887,2.398331642150879,0.9682183265686035
1740006936342420700,0.630420654296875,-0.32775363326072693,2.649921417236328,1.2663179636001587
1740006936352403000,0.64040283203125,-0.5644364953041077,2.8714163303375244,1.5819493532180786
1740006936362384000,0.6503837890625,-0.7257657051086426,2.9106979370117188,1.838281512260437
1740006936372365800,0.66036572265625,-0.8051031231880188,2.7743780612945557,1.9885400533676147
1740006936382347800,0.67034765625,-0.820536732673645,2.593421220779419,2.0246362686157227
1740006936392330000,0.680330078125,-0.8058863878250122,2.5772507190704346,1.921647071838379
1740006936402311700,0.690311767578125,-0.8498293161392212,2.8174667358398438,1.5649288892745972
1740006936412292600,0.700292724609375,-0.9593611359596252,3.099442481994629,1.0534250736236572
1740006936422274800,0.71027490234375,-1.1647982597351074,3.3224470615386963,0.5586118698120117
1740006936432257000,0.720257080078125,-1.4520806074142456,3.5681867599487305,0.174054354429245
1740006936442238700,0.73023876953125,-1.7621604204177856,3.900736093521118,-0.051356397569179535
1740006936452219600,0.7402197265625,-1.9927518367767334,4.259156703948975,-0.09319945424795151
1740006936462201900,0.750201904296875,-2.0572476387023926,4.5310444831848145,0.04187501221895218
1740006936472184000,0.76018408203125,-2.145832061767578,4.715888023376465,0.21171331405639648
1740006936482165800,0.770165771484375,-2.3096420764923096,4.825591564178467,0.3707714080810547
1740006936492146700,0.780146728515625,-2.554325580596924,4.931285381317139,0.47467464208602905
1740006936502129000,0.79012890625,-2.871161460876465,4.979247093200684,0.47735804319381714
1740006936512110800,0.80011083984375,-3.2157938480377197,4.946660995483398,0.37398025393486023
1740006936522092800,0.8100927734375,-3.536968231201172,4.764226913452148,0.18545374274253845
1740006936532073700,0.82007373046875,-3.7917351722717285,4.4180684089660645,-0.057493384927511215
1740006936542056000,0.830055908203125,-3.9354963302612305,3.967984914779663,-0.3321363925933838
1740006936552037600,0.84003759765625,-4.0099310874938965,3.432391881942749,-0.6494576334953308
1740006936562019800,0.850019775390625,-4.022742748260498,2.7724087238311768,-0.9757018089294434
1740006936572002000,0.860001953125,-4.0303449630737305,2.026156425476074,-1.2771276235580444
1740006936581983000,0.86998291015625,-4.067534446716309,1.2913236618041992,-1.5237406492233276
1740006936591964700,0.879964599609375,-4.1321797370910645,0.6738335490226746,-1.7197988033294678
1740006936601947000,0.88994677734375,-4.14215087890625,0.24259932339191437,-1.867119550704956
1740006936611928800,0.8999287109375,-4.03318452835083,-0.060020193457603455,-1.966401219367981
1740006936621909800,0.90990966796875,-3.7943735122680664,-0.29798269271850586,-1.9868457317352295
1740006936631891700,0.9198916015625,-3.429715156555176,-0.5426382422447205,-1.890869140625
1740006936641874000,0.9298740234375,-3.009044647216797,-0.7567942142486572,-1.6795613765716553
1740006936651856000,0.93985595703125,-2.6113440990448,-0.905944287776947,-1.372571349143982
1740006936661836800,0.9498369140625,-2.2975945472717285,-0.9220420122146606,-1.0198931694030762
1740006936671818800,0.95981884765625,-2.071262836456299,-0.8819918036460876,-0.6689756512641907
1740006936681801000,0.969801025390625,-1.9301131963729858,-0.8232792019844055,-0.3642277419567108
1740006936691782700,0.97978271484375,-1.8631032705307007,-0.775948166847229,-0.1233895793557167
1740006936701763800,0.989763916015625,-1.8385766744613647,-0.726774275302887,0.05699537694454193
1740006936711745800,0.999745849609375,-1.8334846496582031,-0.6484999656677246,0.1615084707736969
1740006936721727700,1.009727783203125,-1.8463685512542725,-0.5339574217796326,0.22219552099704742
1740006936731709700,1.019709716796875,-1.8426501750946045,-0.4119420051574707,0.2504865527153015
1740006936741692000,1.02969189453125,-1.7777020931243896,-0.3312394320964813,0.26103639602661133
1740006936751672800,1.0396728515625,-1.6322327852249146,-0.3124806582927704,0.27872830629348755
1740006936761654800,1.04965478515625,-1.4565528631210327,-0.38532212376594543,0.2958654761314392
1740006936771636700,1.05963671875,-1.3108558654785156,-0.5101863145828247,0.30109140276908875
1740006936781619000,1.069618896484375,-1.2529277801513672,-0.6217969655990601,0.2705475986003876
1740006936791599900,1.079599853515625,-1.2748162746429443,-0.7360031604766846,0.17926110327243805
1740006936801581800,1.089581787109375,-1.3191640377044678,-0.8185454607009888,0.04194372147321701
1740006936811563800,1.099563720703125,-1.3531785011291504,-0.8415290713310242,-0.08701799064874649
1740006936821545700,1.109545654296875,-1.378082036972046,-0.8338778018951416,-0.16100913286209106
1740006936831526700,1.119526611328125,-1.4019510746002197,-0.8627331852912903,-0.21346966922283173
1740006936841508900,1.1295087890625,-1.3933261632919312,-0.7369523048400879,-0.20543918013572693
1740006936851490800,1.13949072265625,-1.3347086906433105,-0.5762233734130859,-0.0984533354640007
1740006936861472800,1.14947265625,-1.3041393756866455,-0.38289597630500793,0.03401442617177963
1740006936871454700,1.159454833984375,-1.430482029914856,-0.31755879521369934,0.15712623298168182
1740006936881436000,1.169435791015625,-1.5422229766845703,-0.267192006111145,0.276378870010376
1740006936891417900,1.17941796875,-1.516098976135254,-0.20405831933021545,0.43490856885910034
1740006936901399800,1.18939990234375,-1.3834762573242188,-0.26095569133758545,0.6512256860733032
1740006936911382000,1.199382080078125,-1.1622066497802734,-0.3742508292198181,0.8718590140342712
1740006936921363000,1.209363037109375,-0.9190188050270081,-0.5178191661834717,1.080267310142517
1740006936931345000,1.219344970703125,-0.7107950448989868,-0.535950243473053,1.2411938905715942
1740006936941326800,1.229326904296875,-0.5216363072395325,-0.4187285602092743,1.3335291147232056
1740006936951309000,1.23930908203125,-0.34005558490753174,-0.27045464515686035,1.3738446235656738
1740006936961290000,1.2492900390625,-0.14750316739082336,-0.09647887200117111,1.3869705200195312
1740006936971272000,1.25927197265625,0.03815218061208725,0.09128543734550476,1.394594669342041
1740006936981254000,1.26925390625,0.21149812638759613,0.26151204109191895,1.3699337244033813
1740006936991236000,1.279236083984375,0.3581232726573944,0.42590442299842834,1.2957417964935303
1740006937001216800,1.289216796875,0.4871310293674469,0.43995100259780884,1.1689010858535767
1740006937011199000,1.299198974609375,0.6172578930854797,0.6109011769294739,0.9997929930686951
1740006937021181000,1.309180908203125,0.7422259449958801,0.8767195343971252,0.8062555193901062
1740006937031163000,1.319162841796875,0.8774273991584778,1.1273599863052368,0.6271160840988159
1740006937041143800,1.329143798828125,1.0262624025344849,1.4229943752288818,0.4644499719142914
1740006937051126000,1.3391259765625,1.1734322309494019,1.6800074577331543,0.33720651268959045
1740006937061108000,1.34910791015625,1.302776575088501,1.9196381568908691,0.2488473653793335
1740006937071090000,1.35908984375,1.437490463256836,2.126267194747925,0.18362203240394592
1740006937081071900,1.36907177734375,1.5797176361083984,2.370770215988159,0.12084545940160751
1740006937091053000,1.379052978515625,1.709092378616333,2.5848636627197266,0.134940505027771
1740006937101034800,1.38903466796875,1.815413475036621,2.528028726577759,0.19927501678466797
1740006937111017000,1.399016845703125,1.9294929504394531,2.1873979568481445,0.2610379755496979
1740006937120999000,1.4089990234375,2.058645248413086,1.8635717630386353,0.23617897927761078
1740006937130980000,1.41897998046875,2.1597211360931396,1.8392112255096436,0.11565949022769928
1740006937140961800,1.4289619140625,2.0841190814971924,2.0267553329467773,-0.047328099608421326
1740006937150944000,1.438944091796875,1.8199951648712158,2.073312997817993,-0.15442179143428802
1740006937160926000,1.448926025390625,1.471921682357788,1.7961721420288086,-0.1067272424697876
1740006937170908000,1.458907958984375,1.2084293365478516,1.2316962480545044,0.10873766243457794
1740006937180888800,1.468888916015625,1.2332571744918823,0.6664422154426575,0.4404045343399048
1740006937190871000,1.47887109375,1.5524088144302368,0.23751987516880035,0.762112557888031
1740006937200853000,1.48885302734375,2.067905902862549,0.015586149878799915,1.0621192455291748
1740006937210835000,1.4988349609375,2.626682758331299,0.18053728342056274,1.3526251316070557
1740006937220816000,1.50881591796875,3.1089794635772705,0.591826856136322,1.6209479570388794
1740006937230798000,1.518798095703125,3.4684481620788574,0.8777821660041809,1.9219988584518433
1740006937240779800,1.52877978515625,3.6920807361602783,0.940327525138855,2.2672367095947266
1740006937250762000,1.538761962890625,3.7512547969818115,0.916038453578949,2.5836384296417236
1740006937260743000,1.548742919921875,3.743621826171875,1.033492088317871,2.8247711658477783
1740006937270725000,1.55872509765625,3.5717649459838867,1.2702902555465698,2.7926361560821533
1740006937280706800,1.568706787109375,3.2671427726745605,1.5441974401474,2.570690631866455
1740006937290689000,1.57868896484375,2.950697183609009,1.756750464439392,2.1896121501922607
1740006937300671000,1.5886708984375,2.7124671936035156,1.8397306203842163,1.6812490224838257
1740006937310652000,1.59865185546875,2.5854990482330322,1.7954387664794922,1.1249064207077026
1740006937320633900,1.6086337890625,2.5359082221984863,1.6680186986923218,0.6217943429946899
1740006937330616000,1.618615966796875,2.5471174716949463,1.517957329750061,0.2224099040031433
1740006937340597800,1.62859765625,2.58355975151062,1.411033034324646,-0.05110073462128639
1740006937350579000,1.638578857421875,2.616441249847412,1.352541446685791,-0.21084831655025482
1740006937360561000,1.648560791015625,2.6410927772521973,1.308292031288147,-0.281832754611969
1740006937370543000,1.658543212890625,2.6110424995422363,1.2730607986450195,-0.2979946732521057
1740006937380524800,1.66852490234375,2.5425190925598145,1.2490075826644897,-0.2430049180984497
1740006937390506000,1.678506103515625,2.5101518630981445,1.2055124044418335,-0.11610743403434753
1740006937400488000,1.688488037109375,2.532043218612671,1.0319077968597412,0.05813467502593994
1740006937410470000,1.698469970703125,2.6163461208343506,0.5154505372047424,0.2553803622722626
1740006937420451800,1.708451904296875,2.758863687515259,-0.33027830719947815,0.4512350857257843
1740006937430434000,1.71843408203125,2.9663941860198975,-1.369348168373108,0.6216105818748474
1740006937440415000,1.7284150390625,3.122220754623413,-2.1575772762298584,0.7209046483039856
1740006937450397000,1.73839697265625,2.9556472301483154,-2.2960057258605957,0.6675511598587036
1740006937460379000,1.74837890625,2.3690197467803955,-1.950046181678772,0.40479329228401184
1740006937470361000,1.758361083984375,1.5610294342041016,-1.3641915321350098,0.08521982282400131
1740006937480342000,1.768342041015625,0.883152425289154,-0.8261820673942566,-0.0917525589466095
1740006937490324000,1.778323974609375,0.498921662569046,-0.38447657227516174,-0.09415153414011002
1740006937500306000,1.788305908203125,0.345451682806015,-0.05321075767278671,0.02004667930305004
1740006937510288100,1.7982880859375,0.30118459463119507,0.21584707498550415,0.19449731707572937
1740006937520268800,1.808268798828125,0.30543234944343567,0.4684383273124695,0.384945809841156
1740006937530251000,1.8182509765625,0.35345181822776794,0.680081307888031,0.593410074710846
1740006937540233000,1.82823291015625,0.4555661976337433,0.9184374213218689,0.8264572024345398
1740006937550215000,1.83821484375,0.5114023089408875,1.1845670938491821,1.021094799041748
1740006937560196900,1.84819677734375,0.47673138976097107,1.408811092376709,1.1410859823226929
1740006937570178000,1.858177978515625,0.3810035288333893,1.5611377954483032,1.1848392486572266
1740006937580160000,1.868159912109375,0.25195926427841187,1.6589967012405396,1.16215980052948
1740006937590142000,1.878141845703125,0.11316277086734772,1.7075954675674438,1.0814481973648071
1740006937600124000,1.8881240234375,-0.03568369522690773,1.671727180480957,0.9733126759529114
1740006937610105000,1.89810498046875,-0.2064027041196823,1.5541595220565796,0.841909646987915
1740006937620086800,1.908086669921875,-0.403772234916687,1.320193886756897,0.7146638035774231
1740006937630069000,1.918069091796875,-0.6395349502563477,0.9629154205322266,0.6136341094970703
1740006937640051000,1.928051025390625,-0.9251683354377747,0.558890163898468,0.5397034287452698
1740006937650032000,1.9380322265625,-1.2437609434127808,0.21127521991729736,0.4663804769515991
1740006937660013800,1.948013916015625,-1.5739407539367676,-0.15212801098823547,0.30440863966941833
1740006937669996000,1.95799609375,-1.916559100151062,-0.5646452903747559,-0.023572703823447227
1740006937679978000,1.96797802734375,-2.278369426727295,-0.9753484129905701,-0.5035566091537476
1740006937689960000,1.9779599609375,-2.6365251541137695,-1.306494116783142,-1.0617536306381226
1740006937699940900,1.98794091796875,-2.8774478435516357,-1.5523818731307983,-1.5827912092208862
1740006937709923000,1.997923095703125,-3.140995502471924,-1.7458136081695557,-2.069746494293213
1740006937719905000,2.007905029296875,-3.411135673522949,-1.8944926261901855,-2.543236494064331
1740006937729887000,2.017886962890625,-3.701981544494629,-1.9017266035079956,-2.937113046646118
1740006937739868000,2.027867919921875,-4.114063262939453,-1.815775752067566,-3.225569725036621
1740006937749850000,2.03785009765625,-4.677055358886719,-1.642820119857788,-3.3871233463287354
1740006937759831800,2.047831787109375,-5.326643943786621,-1.3739922046661377,-3.3996598720550537
1740006937769814000,2.05781396484375,-5.917904853820801,-1.0068451166152954,-3.263314723968506
1740006937779796000,2.0677958984375,-6.284224987030029,-0.6051074862480164,-2.993400812149048
1740006937789777200,2.077777099609375,-6.352800369262695,-0.27673545479774475,-2.6127419471740723
1740006937799758800,2.0877587890625,-6.174664497375488,-0.013430321589112282,-2.1230742931365967
1740006937809741000,2.097740966796875,-5.763911247253418,0.11794368177652359,-1.5708277225494385
1740006937819723000,2.107722900390625,-5.18438196182251,0.11760705709457397,-1.0376296043395996
1740006937829704000,2.117703857421875,-4.611220836639404,0.08941776305437088,-0.6083839535713196
1740006937839686000,2.127685791015625,-4.193057060241699,0.07330111414194107,-0.2986268997192383
1740006937849668000,2.137668212890625,-3.9394826889038086,0.05723665654659271,-0.07339219003915787
1740006937859649800,2.14764990234375,-3.8064029216766357,0.006786266807466745,0.11063916236162186
1740006937869631000,2.157630859375,-3.739469051361084,-0.09634917229413986,0.28490763902664185
1740006937879613000,2.167613037109375,-3.6459383964538574,-0.22344321012496948,0.4785868227481842
1740006937889595100,2.17759521484375,-3.5236942768096924,-0.34466975927352905,0.6828230619430542
1740006937899576300,2.187576416015625,-3.3685073852539062,-0.47874554991722107,0.879122257232666
1740006937909558300,2.197558349609375,-3.1686439514160156,-0.6185609698295593,1.0661712884902954
1740006937919539200,2.207539306640625,-2.914016008377075,-0.7805839776992798,1.2250010967254639
1740006937929521400,2.217521484375,-2.6437015533447266,-0.8951494097709656,1.3550310134887695
1740006937939503400,2.22750341796875,-2.4044554233551025,-0.910293459892273,1.440245509147644
1740006937949485300,2.2374853515625,-2.2170932292938232,-0.8103349208831787,1.4639841318130493
1740006937959466200,2.24746630859375,-2.0802969932556152,-0.6620448231697083,1.4120678901672363
1740006937969448400,2.257448486328125,-1.9529417753219604,-0.5040999054908752,1.3022551536560059
1740006937979430400,2.267430419921875,-1.8022433519363403,-0.3458458185195923,1.1279847621917725
1740006937989412400,2.277412353515625,-1.6612143516540527,-0.21323691308498383,0.8966314792633057
1740006937999394300,2.287394287109375,-1.53725004196167,-0.14941638708114624,0.6570343375205994
1740006938009375200,2.297375244140625,-1.4634360074996948,-0.07607266306877136,0.4168427586555481
1740006938019357400,2.307357421875,-1.4256287813186646,-0.04173945635557175,0.15810494124889374
1740006938029339400,2.31733935546875,-1.3978615999221802,-0.07084967195987701,-0.09390226006507874
1740006938039321300,2.3273212890625,-1.3534154891967773,-0.09027476608753204,-0.33980125188827515
1740006938049302300,2.33730224609375,-1.3256419897079468,-0.07180122286081314,-0.5731452703475952
1740006938059284500,2.347284423828125,-1.362907886505127,0.01750735379755497,-0.7516465783119202
1740006938069266400,2.357266357421875,-1.4187690019607544,0.22500674426555634,-0.8524661660194397
1740006938079248400,2.367248291015625,-1.466925859451294,0.4574786126613617,-0.8854387402534485
1740006938089229300,2.377229248046875,-1.4603209495544434,0.6489197015762329,-0.8497068285942078
1740006938099211300,2.387211181640625,-1.3934460878372192,0.7312968373298645,-0.7728224396705627
1740006938109193200,2.397193115234375,-1.2672580480575562,0.7075539827346802,-0.7052772045135498
1740006938119175400,2.407175537109375,-1.102092981338501,0.7058447599411011,-0.742698609828949
1740006938129157400,2.417157470703125,-0.8388784527778625,0.8112425208091736,-0.9259803295135498
1740006938139138300,2.42713818359375,-0.44589492678642273,0.9599228501319885,-1.2321317195892334
1740006938149120300,2.437120361328125,0.047028496861457825,0.992243766784668,-1.6060000658035278
1740006938159102500,2.4471025390625,0.546490490436554,0.8166471719741821,-1.9324601888656616
1740006938169084400,2.45708447265625,0.9607579708099365,0.4047512114048004,-2.097816228866577
1740006938179065300,2.4670654296875,1.2407366037368774,-0.13959863781929016,-2.0642318725585938
1740006938189047300,2.47704736328125,1.4085919857025146,-0.7086024284362793,-1.866884708404541
1740006938199029500,2.487029541015625,1.5413793325424194,-1.1397149562835693,-1.5336822271347046
1740006938209011200,2.49701123046875,1.682273030281067,-1.256665587425232,-1.097508430480957
1740006938218993400,2.506993408203125,1.863303303718567,-1.0793466567993164,-0.6066007018089294
1740006938228974300,2.516974365234375,2.138526439666748,-0.760395884513855,-0.07276688516139984
1740006938238956300,2.526956298828125,2.5347349643707275,-0.4206146001815796,0.5075849294662476
1740006938248938200,2.536938232421875,3.077714204788208,-0.08826221525669098,1.1327431201934814
1740006938258920400,2.54692041015625,3.7321369647979736,0.2523811161518097,1.7684558629989624
1740006938268901400,2.5569013671875,4.46747350692749,0.5970959067344666,2.3224053382873535
1740006938278883300,2.56688330078125,5.186783313751221,0.8335571885108948,2.7176473140716553
1740006938288865300,2.576865234375,5.792661666870117,0.9650803208351135,2.9060959815979004
1740006938298847500,2.586847412109375,6.1989336013793945,0.9207024574279785,2.835946798324585
1740006938308829200,2.5968291015625,6.355884075164795,0.8919872045516968,2.545397996902466
1740006938318810000,2.60681005859375,6.306670188903809,0.9656070470809937,2.005068063735962
1740006938328792300,2.616792236328125,6.099551677703857,1.086022138595581,1.219451904296875
1740006938338774500,2.6267744140625,5.745202541351318,1.229555606842041,0.3217223882675171
1740006938348756200,2.636756103515625,5.350221157073975,1.3070526123046875,-0.49362462759017944
1740006938358737200,2.646737060546875,5.010818958282471,1.2103965282440186,-1.09205961227417
1740006938368719400,2.65671923828125,4.804873943328857,0.8583826422691345,-1.4534473419189453
1740006938378701600,2.66670166015625,4.705367565155029,0.33935198187828064,-1.6822565793991089
1740006938388683300,2.676683349609375,4.671005725860596,-0.16545793414115906,-1.8467680215835571
1740006938398665500,2.68666552734375,4.674948215484619,-0.5428779125213623,-1.9577789306640625
1740006938408646400,2.696646484375,4.6948137283325195,-0.762343168258667,-1.992181420326233
1740006938418628000,2.706628173828125,4.708824634552002,-0.866055428981781,-1.9536720514297485
1740006938428610300,2.7166103515625,4.69005012512207,-0.8997745513916016,-1.8495243787765503
1740006938438592500,2.726592529296875,4.625196933746338,-0.9162179827690125,-1.6658679246902466
1740006938448573400,2.736573486328125,4.544957160949707,-0.9430290460586548,-1.4192339181900024
1740006938458555100,2.74655517578125,4.474035263061523,-0.9794453978538513,-1.1379599571228027
1740006938468537300,2.756537353515625,4.448668003082275,-0.9732974767684937,-0.8791784644126892
1740006938478519600,2.76651953125,4.443948745727539,-0.9228383302688599,-0.6556077003479004
1740006938488501200,2.776501220703125,4.418955326080322,-0.8633919954299927,-0.4398215711116791
1740006938498482200,2.786482177734375,4.326590538024902,-0.8352408409118652,-0.2100440412759781
1740006938508464400,2.79646435546875,4.195364475250244,-0.8112499713897705,0.028653748333454132
1740006938518446300,2.8064462890625,4.0355424880981445,-0.7829744219779968,0.2606686055660248
1740006938528428300,2.81642822265625,3.850316047668457,-0.766901433467865,0.48854464292526245
1740006938538409200,2.8264091796875,3.636244773864746,-0.7681387662887573,0.7121713757514954
1740006938548391400,2.836391357421875,3.380704641342163,-0.7807639837265015,0.9136368036270142
1740006938558373000,2.846373046875,3.102565050125122,-0.8197894096374512,1.107455849647522
1740006938568355300,2.856355224609375,2.8212597370147705,-0.8641204237937927,1.3169225454330444
1740006938578337500,2.866337646484375,2.541059732437134,-0.867768406867981,1.5503216981887817
1740006938588318500,2.876318359375,2.206144332885742,-0.7901817560195923,1.8279820680618286
1740006938598300200,2.886300048828125,1.728070616722107,-0.5962575078010559,2.132545232772827
1740006938608282400,2.896282470703125,1.125265121459961,-0.30307093262672424,2.422574281692505
1740006938618264300,2.906264404296875,0.504875123500824,0.03804325684905052,2.629059314727783
1740006938628245200,2.916245361328125,-0.03015657141804695,0.3916897475719452,2.6782729625701904
1740006938638227200,2.926227294921875,-0.42749592661857605,0.8089764714241028,2.5261642932891846
1740006938648209400,2.93620947265625,-0.7167407870292664,1.4639239311218262,2.110280990600586
1740006938658191400,2.94619140625,-0.9273598194122314,2.2740859985351562,1.44271719455719
1740006938668173300,2.95617333984375,-1.1182421445846558,2.950258731842041,0.7654441595077515
1740006938678154200,2.966154296875,-1.359097957611084,3.3032031059265137,0.30943748354911804
1740006938688136400,2.976136474609375,-1.6802647113800049,3.321726083755493,0.0751352310180664
1740006938698118400,2.986118408203125,-2.054852247238159,3.0728812217712402,0.005401423200964928
1740006938708100400,2.996100341796875,-2.4559926986694336,2.6231226921081543,0.047210920602083206
1740006938718081300,3.006081298828125,-2.8794519901275635,2.002047061920166,0.16501133143901825
1740006938728063200,3.016063232421875,-3.3727598190307617,1.2655290365219116,0.32896164059638977
1740006938738045200,3.026045166015625,-3.9142873287200928,0.4964340031147003,0.5154910683631897
1740006938748027400,3.03602734375,-4.539309978485107,-0.23129820823669434,0.664537787437439
1740006938758009300,3.04600927734375,-5.19312047958374,-0.8185015320777893,0.7538620829582214
1740006938767990300,3.055990234375,-5.793493270874023,-1.2711960077285767,0.7756496667861938
1740006938777972200,3.06597216796875,-6.252662658691406,-1.6180839538574219,0.7496042251586914
1740006938787954400,3.075954345703125,-6.516159534454346,-1.7940888404846191,0.6892257928848267
1740006938797936400,3.085936279296875,-6.788436412811279,-1.8418861627578735,0.5969417095184326
1740006938807917300,3.095917236328125,-6.947229862213135,-1.8406541347503662,0.49895042181015015
1740006938817899300,3.105899169921875,-6.9565019607543945,-1.7240170240402222,0.4342643618583679
1740006938827881200,3.115881103515625,-6.862228870391846,-1.471098780632019,0.41968807578086853
1740006938837863400,3.125863525390625,-6.700817584991455,-1.0770790576934814,0.5097047686576843
1740006938847845400,3.135845458984375,-6.512754917144775,-0.6233572959899902,0.7186588048934937
1740006938857826300,3.145826416015625,-6.274510860443115,-0.2004188448190689,1.051194190979004
1740006938867808300,3.155808349609375,-5.995461463928223,0.12421755492687225,1.4640109539031982
1740006938877790200,3.165790283203125,-5.680444717407227,0.27569523453712463,1.8805480003356934
1740006938887772400,3.1757724609375,-5.344115257263184,0.23754970729351044,2.216888427734375
1740006938897753600,3.185753662109375,-5.011346817016602,0.11656735837459564,2.41967511177063
1740006938907735300,3.1957353515625,-4.687488555908203,0.06740700453519821,2.4727580547332764
1740006938917717500,3.205717529296875,-4.386436462402344,0.10015030205249786,2.417036771774292
1740006938927699500,3.215699462890625,-4.121391773223877,0.157800555229187,2.310884952545166
1740006938937681400,3.225681396484375,-3.9002017974853516,0.1263430267572403,2.1997499465942383
1740006938947662300,3.235662353515625,-3.7112514972686768,-0.03069133311510086,2.103834390640259
1740006938957644500,3.24564453125,-3.5361521244049072,-0.3004423975944519,2.006579637527466
1740006938967626500,3.25562646484375,-3.365233898162842,-0.6321015357971191,1.8609447479248047
1740006938977608400,3.2656083984375,-3.20711350440979,-0.9611870050430298,1.6615262031555176
1740006938987589400,3.27558935546875,-3.08046555519104,-1.2254663705825806,1.4327481985092163
1740006938997571600,3.285571533203125,-2.97097110748291,-1.423815369606018,1.1918985843658447
1740006939007553300,3.29555322265625,-2.8487906455993652,-1.5710922479629517,0.9638946652412415
1740006939017535500,3.305535400390625,-2.693521738052368,-1.688818335533142,0.7618616819381714
1740006939027517400,3.315517333984375,-2.502112865447998,-1.761318564414978,0.5840826034545898
1740006939037498400,3.325498291015625,-2.2849440574645996,-1.809802770614624,0.43556666374206543
1740006939047480300,3.335480224609375,-2.076709032058716,-1.8360447883605957,0.3048054277896881
1740006939057462500,3.345462646484375,-1.9012701511383057,-1.8164148330688477,0.16185733675956726
1740006939067444500,3.355444580078125,-1.754350185394287,-1.7526118755340576,-0.009841445833444595
1740006939077425400,3.36542529296875,-1.659329891204834,-1.6840949058532715,-0.21896563470363617
1740006939087407400,3.375407470703125,-1.6163177490234375,-1.577722430229187,-0.44325387477874756
1740006939097389600,3.3853896484375,-1.6122510433197021,-1.4778133630752563,-0.6666555404663086
1740006939107371500,3.39537158203125,-1.6266076564788818,-1.3906395435333252,-0.8624919056892395
1740006939117353500,3.405353515625,-1.6374549865722656,-1.2714722156524658,-1.0280640125274658
1740006939127334400,3.41533447265625,-1.6529710292816162,-1.0773380994796753,-1.173445224761963
1740006939137316400,3.42531640625,-1.6337864398956299,-0.8298519253730774,-1.297976016998291
1740006939147298600,3.435298583984375,-1.5702236890792847,-0.567171573638916,-1.405288577079773
1740006939157280500,3.445280517578125,-1.4638246297836304,-0.3542371690273285,-1.499882698059082
1740006939167261400,3.455261474609375,-1.261613130569458,-0.1517234891653061,-1.5332657098770142
1740006939177243400,3.465243408203125,-1.0590007305145264,0.002746251644566655,-1.5282390117645264
1740006939187225300,3.475225341796875,-0.8358626365661621,0.097739078104496,-1.512865424156189
1740006939197207600,3.48520751953125,-0.5567306280136108,0.16337187588214874,-1.462964653968811
1740006939207189500,3.495189453125,-0.2435503453016281,0.20640936493873596,-1.3829686641693115
1740006939217170400,3.50517041015625,0.10745242238044739,0.20832310616970062,-1.2757558822631836
1740006939227152400,3.51515234375,0.4664374887943268,0.15072506666183472,-1.1473544836044312
1740006939237134300,3.52513427734375,0.8593876957893372,0.06952261924743652,-0.9970999956130981
1740006939247116500,3.535116455078125,1.3004602193832397,-0.035302598029375076,-0.8149139881134033
1740006939257098500,3.545098388671875,1.7688933610916138,-0.10948467999696732,-0.6164528131484985
1740006939267079400,3.555079345703125,2.2637579441070557,-0.11104796081781387,-0.40948763489723206
1740006939277061400,3.565061279296875,2.7851369380950928,-0.05295376107096672,-0.21984954178333282
1740006939287043600,3.575043701171875,3.2966041564941406,-0.0009835053933784366,-0.08329382538795471
1740006939297025500,3.585025634765625,3.7547080516815186,0.07975102216005325,0.0025712819769978523
1740006939307006500,3.59500634765625,4.165698528289795,0.22284825146198273,0.05608271062374115
1740006939316988400,3.604988525390625,4.548058032989502,0.46096521615982056,0.07904022186994553
1740006939326970400,3.614970458984375,4.902142524719238,0.7544652819633484,0.07377409189939499
1740006939336952300,3.624952392578125,5.217988014221191,1.0579404830932617,0.05294151231646538
1740006939346934500,3.6349345703125,5.471107006072998,1.3429995775222778,0.016534235328435898
1740006939356915500,3.64491552734375,5.635471820831299,1.5881338119506836,-0.04180896654725075
1740006939366897400,3.6548974609375,5.675755500793457,1.7655445337295532,-0.13500522077083588
1740006939376879400,3.66487939453125,5.593958854675293,1.8601479530334473,-0.25369590520858765
1740006939386861600,3.674861572265625,5.444544315338135,1.8708431720733643,-0.36445918679237366
1740006939396842500,3.684842529296875,5.266511917114258,1.827422022819519,-0.45982325077056885
1740006939406824400,3.694824462890625,5.041269302368164,1.7562860250473022,-0.6305934190750122
1740006939416806400,3.704806396484375,4.778615474700928,1.5872431993484497,-0.8793302178382874
1740006939426788600,3.71478857421875,4.541682243347168,1.3043646812438965,-1.1093056201934814
1740006939436770600,3.7247705078125,4.355550289154053,0.974465012550354,-1.2639721632003784
1740006939446751200,3.734751220703125,4.175766468048096,0.5715276598930359,-1.3151048421859741
1740006939456733400,3.7447333984375,3.9793083667755127,0.13997069001197815,-1.2901926040649414
1740006939466715600,3.754715576171875,3.8028078079223633,-0.3133837580680847,-1.2386447191238403
1740006939476697300,3.764697265625,3.6826703548431396,-0.7495285868644714,-1.1967694759368896
1740006939486679600,3.774679443359375,3.6534957885742188,-0.969455361366272,-1.1828211545944214
1740006939496660500,3.784660400390625,3.7129969596862793,-1.003320574760437,-1.1385983228683472
1740006939506642400,3.794642333984375,3.818103075027466,-0.9031444787979126,-1.0667980909347534
1740006939516624400,3.804624267578125,3.928041458129883,-0.6884601712226868,-0.9577280879020691
1740006939526606600,3.814606689453125,4.039495468139648,-0.42059463262557983,-0.8199992775917053
1740006939536587500,3.82458740234375,4.149782180786133,-0.15466547012329102,-0.6665199995040894
1740006939546569500,3.834569580078125,4.236022472381592,0.0801110789179802,-0.4964725971221924
1740006939556551400,3.844551513671875,4.296485900878906,0.27580681443214417,-0.3250020444393158
1740006939566533600,3.85453369140625,4.333085060119629,0.41912803053855896,-0.14970560371875763
1740006939576515300,3.864515380859375,4.326696395874023,0.49670031666755676,0.039078958332538605
1740006939586496300,3.874496337890625,4.28386926651001,0.5386693477630615,0.22820015251636505
1740006939596478500,3.884478515625,4.216017723083496,0.5564624667167664,0.4117553234100342
1740006939606460700,3.894460693359375,4.126290321350098,0.5495981574058533,0.5814162492752075
1740006939616442400,3.9044423828125,4.008244514465332,0.5427181124687195,0.7240453362464905
1740006939626424600,3.914424560546875,3.867140054702759,0.559029221534729,0.8337052464485168
1740006939636406500,3.924406494140625,3.706773281097412,0.6103507280349731,0.8953640460968018
1740006939646388500,3.934388427734375,3.5326766967773438,0.692556619644165,0.9204691648483276
1740006939656370400,3.944370361328125,3.3479092121124268,0.780577540397644,0.9158245921134949
1740006939666351600,3.9543515625,3.1578543186187744,0.8479520678520203,0.8870723247528076
1740006939676333300,3.964333251953125,2.9389374256134033,0.8716866970062256,0.8396153450012207
1740006939686315500,3.9743154296875,2.6762595176696777,0.8362520337104797,0.7645682692527771
1740006939696297500,3.98429736328125,2.37020206451416,0.7517877221107483,0.6722872853279114
1740006939706279400,3.994279541015625,2.011824607849121,0.6206116080284119,0.559937059879303
1740006939716260400,4.00426025390625,1.6116713285446167,0.4456099569797516,0.4407411813735962
1740006939726242600,4.01424267578125,1.1681751012802124,0.21203182637691498,0.3229599595069885
1740006939736224500,4.024224609375,0.6714063286781311,-0.06903392821550369,0.22362136840820312
1740006939746206500,4.03420654296875,0.151940256357193,-0.3681652545928955,0.14834606647491455
1740006939756188400,4.0441884765625,-0.36624830961227417,-0.661702036857605,0.09480533748865128
1740006939766169600,4.054169677734375,-0.8770084977149963,-0.9261864423751831,0.06389642506837845
1740006939776151300,4.0641513671875,-1.4010727405548096,-1.1585997343063354,0.06082233786582947
1740006939786133500,4.074133544921875,-1.9813833236694336,-1.337742805480957,0.1152067482471466
1740006939796115500,4.084115478515625,-2.593353033065796,-1.4817324876785278,0.22820813953876495
1740006939806096600,4.0940966796875,-3.2011492252349854,-1.5808100700378418,0.3904401957988739
1740006939816078300,4.104078369140625,-3.7793211936950684,-1.6058759689331055,0.5709745287895203
1740006939826060500,4.114060546875,-4.312501430511475,-1.5593966245651245,0.741572380065918
1740006939836042500,4.12404248046875,-4.763082981109619,-1.4311708211898804,0.8767530918121338
1740006939846024400,4.1340244140625,-5.091046333312988,-1.2085965871810913,0.9686340093612671
1740006939856005400,4.14400537109375,-5.275045871734619,-0.9047005772590637,1.022728443145752
1740006939865987600,4.153987548828125,-5.321229457855225,-0.5483776330947876,1.042741060256958
1740006939875969500,4.163969482421875,-5.21798038482666,-0.11772450059652328,1.0123391151428223
1740006939885951500,4.173951416015625,-5.099340438842773,0.3103125989437103,0.9614267349243164
1740006939895933400,4.183933349609375,-5.000636577606201,0.5926673412322998,0.9234164953231812
1740006939905915000,4.193914794921875,-4.9316325187683105,0.758150041103363,0.9151649475097656
1740006939915896800,4.203896728515625,-4.907655239105225,0.791549801826477,0.9365621209144592
1740006939925878800,4.213878662109375,-4.941677570343018,0.6859219074249268,0.996882975101471
1740006939935861000,4.223861083984375,-5.0182294845581055,0.5376937985420227,1.0932039022445679
1740006939945841700,4.233841552734375,-5.079362869262695,0.4167708456516266,1.2151354551315308
1740006939955823900,4.243823974609375,-5.072947025299072,0.3774016201496124,1.3724148273468018
1740006939965805800,4.253805908203125,-4.978288173675537,0.4187815487384796,1.5736639499664307
1740006939975787800,4.263787841796875,-4.814323902130127,0.49262353777885437,1.826161503791809
1740006939985770000,4.27377001953125,-4.607800006866455,0.5134872794151306,2.1167237758636475
1740006939995751000,4.2837509765625,-4.36747407913208,0.4102109670639038,2.4380836486816406
1740006940005731800,4.29373193359375,-4.1096038818359375,0.15474644303321838,2.741899251937866
1740006940015714000,4.303714111328125,-3.8627781867980957,-0.24406273663043976,2.9848220348358154
1740006940025695700,4.31369580078125,-3.6344993114471436,-0.6682089567184448,3.098470687866211
1740006940035678000,4.323677978515625,-3.4306704998016357,-1.0245848894119263,3.0634658336639404
1740006940045660000,4.333659912109375,-3.246519088745117,-1.2705848217010498,2.9026520252227783
1740006940055640800,4.343640869140625,-3.056581974029541,-1.4167380332946777,2.6461422443389893
1740006940065622800,4.353622802734375,-2.8464314937591553,-1.5010976791381836,2.3266918659210205
1740006940075605000,4.36360498046875,-2.6209757328033447,-1.6361942291259766,1.9799984693527222
1740006940085586700,4.373586669921875,-2.4410319328308105,-1.6818541288375854,1.6372400522232056
1740006940095568000,4.38356787109375,-2.245722770690918,-1.7504960298538208,1.3457237482070923
1740006940105549800,4.3935498046875,-2.0777840614318848,-1.865633249282837,1.0786519050598145
1740006940115532000,4.403531982421875,-1.9079951047897339,-1.9425547122955322,0.8260465264320374
1740006940125513700,4.413513671875,-1.7011418342590332,-2.021336317062378,0.590559720993042
1740006940135496000,4.423495849609375,-1.4778341054916382,-2.0784237384796143,0.3427349925041199
1740006940145476900,4.433476806640625,-1.2542977333068848,-2.1502604484558105,0.08517854660749435
1740006940155458800,4.443458740234375,-1.0648796558380127,-2.240530252456665,-0.18239590525627136
1740006940165440800,4.453440673828125,-0.9441009759902954,-2.338150978088379,-0.4806846082210541
1740006940175423000,4.463423095703125,-0.9328760504722595,-2.3792080879211426,-0.8283781409263611
1740006940185404700,4.47340478515625,-0.9945364594459534,-2.2854158878326416,-1.2116492986679077
1740006940195385900,4.4833857421875,-1.0897636413574219,-2.055490493774414,-1.607775330543518
1740006940205367800,4.493367919921875,-1.188065767288208,-1.7149907350540161,-1.9741195440292358
1740006940215350000,4.50335009765625,-1.2280893325805664,-1.3342500925064087,-2.259429931640625
1740006940225331700,4.513331787109375,-1.2029874324798584,-1.0018543004989624,-2.4156765937805176
1740006940235313000,4.52331298828125,-1.1102471351623535,-0.7293548583984375,-2.4591777324676514
1740006940245294800,4.533294921875,-0.9577251672744751,-0.5210450887680054,-2.4301934242248535
1740006940255276800,4.54327685546875,-0.7251728773117065,-0.3634309470653534,-2.347874164581299
1740006940265258800,4.5532587890625,-0.438851922750473,-0.23810391128063202,-2.2356438636779785
1740006940275241000,4.563240966796875,-0.14599396288394928,-0.1565009206533432,-2.094083309173584
1740006940285222000,4.573221923828125,0.12415283918380737,-0.13816745579242706,-1.9118716716766357
1740006940295203800,4.583203857421875,0.37801307439804077,-0.23360556364059448,-1.6936495304107666
1740006940305185800,4.593185791015625,0.6200670003890991,-0.4078226387500763,-1.4557619094848633
1740006940315168000,4.60316796875,0.8634634017944336,-0.5857992768287659,-1.2137128114700317
1740006940325149700,4.613149658203125,1.1272317171096802,-0.6631734371185303,-0.9695951342582703
1740006940335131000,4.623130859375,1.431589961051941,-0.5855518579483032,-0.731104850769043
1740006940345112800,4.63311279296875,1.7706007957458496,-0.36169934272766113,-0.4851488471031189
1740006940355094800,4.6430947265625,2.139411449432373,-0.05582971125841141,-0.22808615863323212
1740006940365076700,4.65307666015625,2.505274772644043,0.29239723086357117,0.03050358034670353
1740006940375058000,4.663057861328125,2.84233021736145,0.6561517715454102,0.28886136412620544
1740006940385040000,4.673039794921875,3.1363420486450195,1.0026623010635376,0.5137461423873901
1740006940395021800,4.683021728515625,3.391842842102051,1.3092964887619019,0.6800459027290344
1740006940405003800,4.693003662109375,3.5830202102661133,1.5218138694763184,0.7788640856742859
1740006940414986000,4.702986083984375,3.7043514251708984,1.634275197982788,0.7972955703735352
1740006940424967000,4.712966796875,3.7686450481414795,1.6772377490997314,0.7339320182800293
1740006940434948900,4.722948974609375,3.7829909324645996,1.6555367708206177,0.5537894368171692
1740006940444930800,4.732930908203125,3.7495079040527344,1.618520975112915,0.2643272578716278
1740006940454913000,4.7429130859375,3.693422317504883,1.537758469581604,-0.11447837203741074
1740006940464894700,4.752894775390625,3.6379263401031494,1.4009497165679932,-0.5460167527198792
1740006940474876000,4.7628759765625,3.6002161502838135,1.2075533866882324,-0.9757907390594482
1740006940484857900,4.77285791015625,3.589334726333618,0.960041880607605,-1.3571714162826538
1740006940494839800,4.78283984375,3.6047346591949463,0.6494610905647278,-1.6597765684127808
1740006940504821800,4.79282177734375,3.628506898880005,0.2884749472141266,-1.8717141151428223
1740006940514804000,4.802803955078125,3.644378423690796,-0.09083563089370728,-1.992723822593689
1740006940524785000,4.812784912109375,3.653287649154663,-0.4288850426673889,-2.0552358627319336
1740006940534766800,4.822766845703125,3.652728796005249,-0.7147751450538635,-2.07804012298584
1740006940544748800,4.832748779296875,3.6399688720703125,-0.9099105000495911,-2.0711586475372314
1740006940554731000,4.84273095703125,3.657284736633301,-1.0281388759613037,-2.0094211101531982
1740006940564712700,4.852712646484375,3.701265335083008,-1.0346473455429077,-1.8732315301895142
1740006940574694000,4.86269384765625,3.7467050552368164,-0.9415363669395447,-1.6699044704437256
1740006940584675800,4.87267578125,3.78051495552063,-0.8071551322937012,-1.3959417343139648
1740006940594657800,4.88265771484375,3.803433418273926,-0.6754588484764099,-1.0867226123809814
1740006940604639700,4.8926396484375,3.8153274059295654,-0.565691351890564,-0.7511006593704224
1740006940614621000,4.902620849609375,3.8172264099121094,-0.4867749810218811,-0.42458510398864746
1740006940624603000,4.912602783203125,3.8115181922912598,-0.41908833384513855,-0.15388649702072144
1740006940634584800,4.922584716796875,3.7839419841766357,-0.3487185835838318,0.04129683971405029
1740006940644566800,4.93256689453125,3.7239630222320557,-0.2587551176548004,0.14439259469509125
1740006940654549000,4.942549072265625,3.63716983795166,-0.1744157373905182,0.18456877768039703
1740006940664530000,4.952530029296875,3.5234482288360596,-0.1081690788269043,0.19042746722698212
1740006940674512000,4.962511962890625,3.396188974380493,-0.06141702085733414,0.17156483232975006
1740006940684493800,4.972493896484375,3.2640771865844727,-0.03719983249902725,0.1304839700460434
1740006940694475800,4.982475830078125,3.1083149909973145,-0.04904583841562271,0.0605379119515419
1740006940704457700,4.992457763671875,2.92934513092041,-0.12071363627910614,-0.03687599301338196
1740006940714439000,5.00243896484375,2.7099101543426514,-0.22080720961093903,-0.17276059091091156
1740006940724420900,5.0124208984375,2.4555740356445312,-0.32429978251457214,-0.33654579520225525
1740006940734402800,5.02240283203125,2.1695895195007324,-0.415841668844223,-0.5162450075149536
1740006940744384800,5.032384765625,1.850394368171692,-0.5041672587394714,-0.7058879137039185
1740006940754367000,5.042366943359375,1.5112472772598267,-0.5937014222145081,-0.8797332048416138
1740006940764348000,5.052347900390625,1.184736728668213,-0.6514083743095398,-1.015279769897461
1740006940774329900,5.062329833984375,0.8944772481918335,-0.6627086997032166,-1.0983800888061523
1740006940784311800,5.072311767578125,0.6387251019477844,-0.6373740434646606,-1.1494637727737427
1740006940794293800,5.082293701171875,0.4032718241214752,-0.6188927888870239,-1.190643072128296
1740006940804276000,5.09227587890625,0.1588599532842636,-0.6120966672897339,-1.2409275770187378
1740006940814257000,5.1022568359375,-0.10336713492870331,-0.6028717756271362,-1.2835583686828613
1740006940824238800,5.11223876953125,-0.38195136189460754,-0.5755290985107422,-1.3038897514343262
1740006940834220800,5.122220703125,-0.6740806698799133,-0.5525984764099121,-1.2861539125442505
1740006940844202800,5.13220263671875,-0.991644024848938,-0.48742371797561646,-1.220274567604065
1740006940854185000,5.14218505859375,-1.3221909999847412,-0.34401729702949524,-1.0990524291992188
1740006940864166000,5.152165771484375,-1.6415290832519531,-0.10657890886068344,-0.9215458631515503
1740006940874147800,5.16214794921875,-1.9169303178787231,0.1731046736240387,-0.6914117336273193
1740006940884129800,5.1721298828125,-2.1156558990478516,0.44347304105758667,-0.4023442566394806
1740006940894111700,5.18211181640625,-2.2005455493927,0.695540726184845,-0.07749026268720627
1740006940904092400,5.192092529296875,-2.1996688842773438,0.9591023325920105,0.28478753566741943
1740006940914074400,5.202074462890625,-2.145970106124878,1.2419496774673462,0.6770117878913879
1740006940924056300,5.212056396484375,-2.083580255508423,1.5728267431259155,1.085267424583435
1740006940934038500,5.22203857421875,-2.0417256355285645,1.9423691034317017,1.519667387008667
1740006940944020200,5.232020263671875,-1.9969491958618164,2.2691094875335693,1.9931765794754028
1740006940954001400,5.24200146484375,-1.9526076316833496,2.5347533226013184,2.475496530532837
1740006940963983400,5.2519833984375,-1.9110910892486572,2.653055429458618,2.961277723312378
1740006940973965300,5.26196533203125,-1.8811198472976685,2.58562970161438,3.408904552459717
1740006940983947300,5.271947265625,-1.892159104347229,2.360257863998413,3.752368450164795
1740006940993929500,5.281929443359375,-1.956331729888916,2.035895347595215,3.954653739929199
1740006941003910400,5.291910400390625,-2.063728094100952,1.7215861082077026,3.9730753898620605
1740006941013892400,5.301892333984375,-2.202364444732666,1.4879131317138672,3.7679522037506104
1740006941023874300,5.311874267578125,-2.3453071117401123,1.2266285419464111,3.4146523475646973
1740006941033856500,5.3218564453125,-2.480785369873047,0.9263912439346313,2.9718430042266846
1740006941043838200,5.331838134765625,-2.6002190113067627,0.5363500118255615,2.4585189819335938
1740006941053819400,5.3418193359375,-2.730637550354004,0.04765007644891739,1.9071053266525269
1740006941063801300,5.35180126953125,-2.8805673122406006,-0.4526825249195099,1.3547521829605103
1740006941073783300,5.361783203125,-3.020514726638794,-0.9211578369140625,0.8609392642974854
1740006941083765200,5.37176513671875,-3.140850782394409,-1.3304513692855835,0.49391812086105347
1740006941093747500,5.38174755859375,-3.25587797164917,-1.6762913465499878,0.23712199926376343
1740006941103728400,5.391728271484375,-3.3643696308135986,-1.8922315835952759,0.07466438412666321
1740006941113710300,5.40171044921875,-3.4531662464141846,-1.988904356956482,-0.017071926966309547
1740006941123692300,5.4116923828125,-3.5119693279266357,-1.994874358177185,-0.07903489470481873
1740006941133674500,5.421674560546875,-3.5346059799194336,-1.9460489749908447,-0.13065920770168304
1740006941143656200,5.43165625,-3.5449893474578857,-1.8423646688461304,-0.1831493079662323
1740006941153637400,5.441637451171875,-3.554513692855835,-1.6640453338623047,-0.23407241702079773
1740006941163619300,5.451619384765625,-3.562650203704834,-1.4258902072906494,-0.30377107858657837
1740006941173601300,5.461601318359375,-3.589293956756592,-1.1713125705718994,-0.4066665470600128
1740006941183583200,5.471583251953125,-3.6148171424865723,-0.910054087638855,-0.529516875743866
1740006941193565400,5.4815654296875,-3.6170012950897217,-0.6536321640014648,-0.6428127884864807
1740006941203546400,5.49154638671875,-3.6110711097717285,-0.46291598677635193,-0.7376015782356262
1740006941213528300,5.5015283203125,-3.5953457355499268,-0.3382350504398346,-0.7969773411750793
1740006941223510300,5.51151025390625,-3.5897655487060547,-0.284148633480072,-0.817107081413269
1740006941233492500,5.521492431640625,-3.6156086921691895,-0.29293519258499146,-0.8211851716041565
1740006941243473400,5.531473388671875,-3.6608588695526123,-0.3948136270046234,-0.8214626908302307
1740006941253455400,5.541455322265625,-3.7151684761047363,-0.5295754671096802,-0.8303576707839966
1740006941263437300,5.551437255859375,-3.7487547397613525,-0.7391728758811951,-0.8624095916748047
1740006941273419300,5.561419189453125,-3.734116315841675,-0.9344278573989868,-0.9076500535011292
1740006941283401200,5.571401123046875,-3.6622023582458496,-0.9844779968261719,-0.9468259215354919
1740006941293382400,5.58138232421875,-3.5167911052703857,-0.9278271794319153,-0.9564988017082214
1740006941303364400,5.5913642578125,-3.2954578399658203,-0.8068097233772278,-0.9241728186607361
1740006941313346300,5.60134619140625,-2.982357978820801,-0.6788671612739563,-0.8346152305603027
1740006941323328300,5.611328369140625,-2.5838351249694824,-0.6193247437477112,-0.6649865508079529
1740006941333310500,5.621310546875,-2.1168699264526367,-0.6487311124801636,-0.4019615650177002
1740006941343291400,5.63129150390625,-1.6215559244155884,-0.7423838376998901,-0.077285997569561
1740006941353273300,5.6412734375,-1.1303597688674927,-0.9009276628494263,0.28594067692756653
1740006941363255300,5.65125537109375,-0.6424726843833923,-1.089086651802063,0.6451473236083984
1740006941373237200,5.6612373046875,-0.1682870090007782,-1.2424561977386475,0.957721471786499
1740006941383219200,5.67121923828125,0.31611934304237366,-1.1698925495147705,1.1814475059509277
1740006941393200400,5.681200439453125,0.850364625453949,-0.8542683124542236,1.2657711505889893
1740006941403182300,5.691182373046875,1.3957598209381104,-0.40569743514060974,1.2427856922149658
1740006941413164300,5.701164306640625,1.925478458404541,0.07570941001176834,1.1868054866790771
1740006941423146200,5.711146240234375,2.3764073848724365,0.5117338299751282,1.1559219360351562
1740006941433128400,5.72112841796875,2.721276044845581,0.8453030586242676,1.171343445777893
1740006941443109400,5.731109375,2.969419479370117,1.0883785486221313,1.1949363946914673
1740006941453091300,5.74109130859375,3.132443904876709,1.2410846948623657,1.2045975923538208
1740006941463073300,5.7510732421875,3.219606637954712,1.3755717277526855,1.1846579313278198
1740006941473055500,5.761055419921875,3.187673568725586,1.5562434196472168,1.1260085105895996
1740006941483037200,5.771037109375,3.0807907581329346,1.734700083732605,1.0036410093307495
1740006941493018400,5.781018310546875,2.964221477508545,1.907106637954712,0.8224368691444397
1740006941503000300,5.791000244140625,2.8767776489257812,2.021388530731201,0.602067232131958
1740006941512982300,5.800982177734375,2.8521323204040527,2.026468276977539,0.360768586397171
1740006941522964200,5.810964111328125,2.8730666637420654,1.9064280986785889,0.08692345023155212
1740006941532946400,5.820946533203125,2.905099868774414,1.6871730089187622,-0.20920461416244507
1740006941542927400,5.83092724609375,2.9492015838623047,1.429656982421875,-0.5132958292961121
1740006941552909300,5.840909423828125,3.0219037532806396,1.1508909463882446,-0.8280001878738403
1740006941562891300,5.850891357421875,3.1295132637023926,0.8683995604515076,-1.1072810888290405
1740006941572873500,5.86087353515625,3.2437942028045654,0.5813925862312317,-1.3344026803970337
1740006941582855200,5.870855224609375,3.3553466796875,0.2817946672439575,-1.51219642162323
1740006941592836400,5.88083642578125,3.4725959300994873,-0.03725895658135414,-1.6752632856369019
1740006941602818300,5.890818359375,3.591035842895508,-0.34215840697288513,-1.7911689281463623
1740006941612800300,5.90080029296875,3.676499366760254,-0.627692699432373,-1.8725547790527344
1740006941622782200,5.9107822265625,3.729952335357666,-0.8675247430801392,-1.928513765335083
1740006941632764400,5.920764404296875,3.7820584774017334,-1.047168493270874,-1.9675474166870117
1740006941642745300,5.930745361328125,3.836139678955078,-1.1746612787246704,-1.972252368927002
1740006941652727300,5.940727294921875,3.903066396713257,-1.248542070388794,-1.911565899848938
1740006941662709200,5.950709228515625,3.991746187210083,-1.3185795545578003,-1.7763057947158813
1740006941672691500,5.96069140625,4.114770412445068,-1.516920804977417,-1.608299970626831
1740006941682673200,5.970673095703125,4.217674732208252,-1.898628830909729,-1.452122449874878
1740006941692654300,5.980654296875,4.248935699462891,-2.4956538677215576,-1.3223865032196045
1740006941702636300,5.99063623046875,4.194676399230957,-3.1907074451446533,-1.1940854787826538
1740006941712618200,6.0006181640625,4.088320255279541,-3.8332457542419434,-1.0590744018554688
1740006941722600200,6.01060009765625,3.9637279510498047,-4.294628143310547,-0.9227959513664246
1740006941732582400,6.02058251953125,3.886143445968628,-4.495726585388184,-0.8180423974990845
1740006941742563300,6.030563232421875,3.85844349861145,-4.433417797088623,-0.8257554173469543
1740006941752545300,6.040545166015625,3.849472999572754,-4.250522613525391,-0.972143828868866
1740006941762527200,6.05052734375,3.7580182552337646,-4.171352386474609,-1.2222455739974976
1740006941772509400,6.060509521484375,3.464332342147827,-4.331605434417725,-1.494180679321289
1740006941782491400,6.070491455078125,2.9672415256500244,-4.7275190353393555,-1.7249161005020142
1740006941792472300,6.080472412109375,2.3518614768981934,-5.104685306549072,-1.8748526573181152
1740006941802454300,6.090454345703125,1.7714087963104248,-5.249562740325928,-1.9391142129898071
1740006941812436200,6.100436279296875,1.3414987325668335,-5.058706283569336,-1.9184280633926392
1740006941822418200,6.110418212890625,1.0948702096939087,-4.608687400817871,-1.818540334701538
1740006941832400400,6.120400390625,0.9909502267837524,-4.05178689956665,-1.6608178615570068
1740006941842381300,6.13038134765625,0.9671807289123535,-3.5543301105499268,-1.4469624757766724
1740006941852363300,6.14036328125,0.9818251729011536,-3.143458366394043,-1.2164793014526367
1740006941862345200,6.15034521484375,0.9008272886276245,-2.7541537284851074,-1.0578190088272095
1740006941872327400,6.160327392578125,0.6529349088668823,-2.3513476848602295,-1.005760908126831
1740006941882309400,6.170309326171875,0.29603591561317444,-2.05084490776062,-1.0248610973358154
1740006941892290300,6.180290283203125,-0.07048029452562332,-1.8757601976394653,-1.0305451154708862
1740006941902272800,6.190272705078125,-0.36711516976356506,-1.8036311864852905,-0.9670976400375366
1740006941912254500,6.20025439453125,-0.5624215602874756,-1.7632595300674438,-0.8407751321792603
1740006941922236700,6.210236572265625,-0.6151867508888245,-1.70219886302948,-0.6588844060897827
1740006941932218600,6.220218505859375,-0.6207817792892456,-1.4518518447875977,-0.4257177412509918
1740006941942199800,6.23019970703125,-0.6026595234870911,-1.0897554159164429,-0.19627895951271057
1740006941952181500,6.240181396484375,-0.5263612866401672,-0.6801931858062744,-0.041906971484422684
1740006941962163700,6.250163818359375,-0.43915897607803345,-0.29844075441360474,0.02852431870996952
1740006941972145700,6.260145751953125,-0.4071251451969147,0.014198376797139645,0.036367062479257584
1740006941982127600,6.270127685546875,-0.42875349521636963,0.2832724452018738,0.0028130970895290375
1740006941992108500,6.280108642578125,-0.44886675477027893,0.49276337027549744,-0.0637933611869812
1740006942002090800,6.2900908203125,-0.46558499336242676,0.5789152979850769,-0.15392085909843445
1740006942012072400,6.300072509765625,-0.4684199392795563,0.6053304076194763,-0.26003584265708923
1740006942022054700,6.3100546875,-0.4714950919151306,0.63882976770401,-0.3592787981033325
1740006942032036600,6.32003662109375,-0.45378080010414124,0.6311550736427307,-0.44679534435272217
1740006942042017800,6.330017822265625,-0.3940655589103699,0.47577452659606934,-0.48375388979911804
1740006942051999500,6.33999951171875,-0.31874576210975647,0.2214367836713791,-0.49347415566444397
1740006942061981700,6.349981689453125,-0.27117425203323364,-0.017854897305369377,-0.508969247341156
1740006942071963600,6.359963623046875,-0.2714911699295044,-0.17682377994060516,-0.5521726012229919
1740006942081945600,6.369945556640625,-0.296474814414978,-0.2726016938686371,-0.6027178168296814
1740006942091926500,6.379926513671875,-0.33040720224380493,-0.3280516564846039,-0.6286719441413879
1740006942101908700,6.38990869140625,-0.38241901993751526,-0.36594629287719727,-0.6229336261749268
1740006942111890400,6.399890380859375,-0.44958794116973877,-0.35978320240974426,-0.5873809456825256
1740006942121872600,6.40987255859375,-0.5256704688072205,-0.3080342710018158,-0.5234267115592957
1740006942131854600,6.4198544921875,-0.5530431866645813,-0.2070876657962799,-0.45032668113708496
1740006942141835800,6.429835693359375,-0.5160819888114929,-0.08852001279592514,-0.364658385515213
1740006942151817500,6.4398173828125,-0.44156622886657715,0.020791564136743546,-0.2929980456829071
1740006942161799700,6.449799560546875,-0.362791508436203,0.06498299539089203,-0.2389012575149536
1740006942171781600,6.45978173828125,-0.29326197504997253,0.044255878776311874,-0.20289452373981476
1740006942181763600,6.469763671875,-0.23649854958057404,-0.006856841035187244,-0.20686796307563782
1740006942191744500,6.47974462890625,-0.18281535804271698,-0.022973226383328438,-0.23676539957523346
1740006942201726700,6.489726806640625,-0.1258053332567215,0.017906296998262405,-0.2703441381454468
1740006942211708700,6.499708740234375,-0.043772246688604355,0.059004198759794235,-0.2874613404273987
1740006942221690600,6.509690673828125,0.021922342479228973,0.09226974099874496,-0.2887455224990845
1740006942231672600,6.519672607421875,0.05351196229457855,0.12619441747665405,-0.2793749272823334
1740006942241653800,6.52965380859375,0.06541069597005844,0.14220879971981049,-0.2550394833087921
1740006942251635500,6.539635498046875,0.07231760770082474,0.13929903507232666,-0.20918065309524536
1740006942261617700,6.54961767578125,0.07896565645933151,0.1098969429731369,-0.18000546097755432
1740006942271599600,6.559599609375,0.09458456188440323,0.03813646733760834,-0.17268681526184082
1740006942281581600,6.56958154296875,0.11998153477907181,-0.05884227901697159,-0.21779809892177582
1740006942291562500,6.5795625,0.1412908136844635,-0.13797464966773987,-0.34439706802368164
1740006942301544700,6.589544677734375,0.12688151001930237,-0.18865565955638885,-0.5295653343200684
1740006942311526700,6.599526611328125,0.07894089072942734,-0.20355525612831116,-0.7616400718688965
1740006942321508600,6.609508544921875,0.027423901483416557,-0.19825848937034607,-1.0198122262954712
1740006942331490600,6.619490478515625,0.004259726032614708,-0.17756280303001404,-1.2751638889312744
1740006942341471700,6.6294716796875,0.004771585576236248,-0.22115102410316467,-1.5276315212249756
1740006942351453400,6.639453369140625,-0.041913360357284546,-0.4364870488643646,-1.7818102836608887
1740006942361435600,6.649435546875,-0.17904432117938995,-0.781770646572113,-2.0185391902923584
1740006942371417600,6.65941748046875,-0.40235596895217896,-1.0692543983459473,-2.2137837409973145
1740006942381399600,6.669399658203125,-0.6571714878082275,-1.2306033372879028,-2.307199478149414
1740006942391380500,6.67938037109375,-0.9156219363212585,-1.2808822393417358,-2.2724716663360596
1740006942401362700,6.68936279296875,-1.1813377141952515,-1.257865071296692,-2.0868139266967773
1740006942411344600,6.6993447265625,-1.4457353353500366,-1.1439168453216553,-1.7456141710281372
1740006942421326600,6.70932666015625,-1.6567822694778442,-0.8349332213401794,-1.3139504194259644
1740006942431308500,6.71930859375,-1.7926841974258423,-0.3447864055633545,-0.8740723729133606
1740006942441289700,6.729289794921875,-1.8947043418884277,0.2739223539829254,-0.5058088302612305
1740006942451271400,6.739271484375,-2.013706922531128,0.9479992985725403,-0.26079270243644714
1740006942461253600,6.749253662109375,-2.214953899383545,1.6344660520553589,-0.13846147060394287
1740006942471235600,6.759235595703125,-2.506115436553955,2.2870900630950928,-0.08464910835027695
1740006942481217500,6.769217529296875,-2.854806661605835,2.9223339557647705,-0.02389095164835453
1740006942491199700,6.77919970703125,-3.2136638164520264,3.6539952754974365,0.10300547629594803
1740006942501180700,6.7891806640625,-3.5550284385681152,4.580507755279541,0.33389168977737427
1740006942511162600,6.79916259765625,-3.878514528274536,5.683765411376953,0.6556039452552795
1740006942521144600,6.80914453125,-4.1779680252075195,6.872804164886475,1.0625053644180298
1740006942531126800,6.819126708984375,-4.4358720779418945,8.033119201660156,1.5497586727142334
1740006942541108700,6.829108642578125,-4.621407985687256,9.11182689666748,2.1092746257781982
1740006942551089400,6.83908935546875,-4.719619274139404,10.008172035217285,2.760950803756714
1740006942561071600,6.849071533203125,-4.718902111053467,10.645026206970215,3.4972569942474365
1740006942571053600,6.859053466796875,-4.579478740692139,10.90220832824707,4.27728271484375
1740006942581035500,6.869035400390625,-4.3314595222473145,10.637998580932617,5.013760566711426
1740006942591017700,6.879017822265625,-4.048488140106201,9.816805839538574,5.612545013427734
1740006942600998700,6.88899853515625,-3.71777081489563,8.550740242004395,5.998232841491699
1740006942610980600,6.898980712890625,-3.347550868988037,7.043194770812988,6.123801231384277
1740006942620962600,6.908962646484375,-2.983022451400757,5.63262414932251,5.992548942565918
1740006942630944800,6.91894482421875,-2.6296756267547607,4.479072570800781,5.639029502868652
1740006942640926700,6.9289267578125,-2.2371888160705566,3.64170241355896,5.1837544441223145
1740006942650907400,6.938907470703125,-1.7293486595153809,2.9562418460845947,4.740816116333008
1740006942660889600,6.9488896484375,-1.1690888404846191,2.3214831352233887,4.311159610748291
1740006942670871800,6.958871826171875,-0.665276825428009,1.7483450174331665,3.8557987213134766
1740006942680853500,6.968853515625,-0.2167235165834427,1.2792481184005737,3.3460445404052734
1740006942690835700,6.978835693359375,0.19238701462745667,0.858587920665741,2.761096954345703
1740006942700816600,6.988816650390625,0.5592185258865356,0.4519994258880615,2.133176803588867
1740006942710798800,6.998798828125,0.8338373303413391,0.07135514169931412,1.4652858972549438
1740006942720780500,7.008780517578125,0.9938560128211975,-0.290315717458725,0.7912746667861938
1740006942730762800,7.0187626953125,1.0340229272842407,-0.5738614201545715,0.10562602430582047
1740006942740744700,7.02874462890625,0.9582388997077942,-0.7853521108627319,-0.5762894153594971
1740006942750726700,7.0387265625,0.8076635003089905,-0.906168520450592,-1.2377698421478271
1740006942760707600,7.04870751953125,0.6029167771339417,-0.9100982546806335,-1.861415147781372
1740006942770689800,7.058689697265625,0.38976508378982544,-0.8056703805923462,-2.4265224933624268
1740006942780671500,7.06867138671875,0.17282450199127197,-0.5966684818267822,-2.92295241355896
1740006942790653700,7.07865380859375,-0.055028099566698074,-0.32103607058525085,-3.3579399585723877
1740006942800635600,7.0886357421875,-0.31096693873405457,-0.04489343985915184,-3.723651885986328
1740006942810616800,7.098616943359375,-0.5201004147529602,0.054964181035757065,-4.025036811828613
1740006942820598500,7.1085986328125,-0.6712476015090942,-0.002353435382246971,-4.261453151702881
1740006942830580700,7.118580810546875,-0.7640108466148376,-0.24071700870990753,-4.436399936676025
1740006942840562700,7.128562744140625,-0.8059700131416321,-0.5279591679573059,-4.577267646789551
1740006942850544600,7.138544677734375,-0.7913351655006409,-0.7318539619445801,-4.701966285705566
1740006942860525600,7.148525634765625,-0.7159178853034973,-0.8618093132972717,-4.848757743835449
1740006942870507800,7.1585078125,-0.6043873429298401,-0.9865954518318176,-5.014092445373535
1740006942880489500,7.168489501953125,-0.5543566942214966,-1.187698245048523,-5.13131046295166
1740006942890471700,7.1784716796875,-0.6301054954528809,-1.4439404010772705,-5.1310834884643555
1740006942900454100,7.1884541015625,-0.8453357815742493,-1.6854419708251953,-4.984309196472168
1740006942910435000,7.19843505859375,-1.115999460220337,-1.8936792612075806,-4.7053303718566895
1740006942920417000,7.2084169921875,-1.4001034498214722,-2.0668585300445557,-4.311949729919434
1740006942930399000,7.21839892578125,-1.6643874645233154,-2.177882194519043,-3.8397724628448486
1740006942940381000,7.228380859375,-1.8878674507141113,-2.2152597904205322,-3.300454616546631
1740006942950363000,7.23836279296875,-2.0107829570770264,-2.2611124515533447,-2.651580810546875
1740006942960344000,7.248343994140625,-1.9836081266403198,-2.1868057250976562,-2.0044713020324707
1740006942970326000,7.258325927734375,-1.8171570301055908,-2.114474296569824,-1.310840129852295
1740006942980308000,7.268307861328125,-1.5551872253417969,-1.9859511852264404,-0.6272196769714355
1740006942990290000,7.2782900390625,-1.2261446714401245,-1.7842590808868408,0.017495902255177498
1740006943000272100,7.288272216796875,-0.8671281933784485,-1.4889999628067017,0.581671416759491
1740006943010253000,7.298253173828125,-0.5395599007606506,-1.0657126903533936,1.0203670263290405
1740006943020235000,7.308235107421875,-0.26268914341926575,-0.5864711999893188,1.3218564987182617
1740006943030217000,7.318217041015625,-0.020626181736588478,-0.14203090965747833,1.5168654918670654
1740006943040199200,7.32819921875,0.20326417684555054,0.14559021592140198,1.637647032737732
1740006943050180900,7.338180908203125,0.3815617263317108,0.253252238035202,1.710371494293213
1740006943060163000,7.3481630859375,0.4916166067123413,0.19473326206207275,1.7457774877548218
1740006943070144000,7.35814404296875,0.5329187512397766,-0.010366620495915413,1.6880906820297241
1740006943080126000,7.3681259765625,0.5054839253425598,-0.3130045235157013,1.5263996124267578
1740006943090108000,7.37810791015625,0.4176499545574188,-0.6406700015068054,1.267045259475708
1740006943100090000,7.388090087890625,0.26780667901039124,-0.9116151928901672,0.9535032510757446
1740006943110071800,7.39807177734375,0.05145573243498802,-1.086186170578003,0.6546976566314697
1740006943120053000,7.408052978515625,-0.1961817592382431,-1.1970787048339844,0.43065977096557617
1740006943130035000,7.418034912109375,-0.430298388004303,-1.2440810203552246,0.31780165433883667
1740006943140017200,7.42801708984375,-0.6351215839385986,-1.2430837154388428,0.29998910427093506
1740006943149998800,7.437998779296875,-0.8063135743141174,-1.1998827457427979,0.3555397391319275
1740006943159981000,7.44798095703125,-0.9381006360054016,-1.1061277389526367,0.44892826676368713
1740006943169962000,7.4579619140625,-0.9963218569755554,-0.9757193922996521,0.5702610611915588
1740006943179944000,7.46794384765625,-0.9743981957435608,-0.8120185732841492,0.7126954793930054
1740006943189926000,7.47792578125,-0.8841918706893921,-0.6298493146896362,0.8617610931396484
1740006943199908000,7.487908203125,-0.7395057678222656,-0.44173693656921387,1.0046061277389526
1740006943209889800,7.497889892578125,-0.5576390027999878,-0.23899313807487488,1.1138341426849365
1740006943219871000,7.50787109375,-0.35793763399124146,-0.01986371912062168,1.17060124874115
1740006943229853000,7.51785302734375,-0.14793193340301514,0.18815739452838898,1.1624325513839722
1740006943239835100,7.527835205078125,0.04619545862078667,0.3647414743900299,1.0900475978851318
1740006943249816800,7.53781689453125,0.20888769626617432,0.4998018443584442,0.9528207182884216
1740006943259799000,7.547799072265625,0.3360544443130493,0.6096199154853821,0.7626914978027344
1740006943269781000,7.557781005859375,0.4291422963142395,0.6985652446746826,0.5354519486427307
1740006943279762000,7.567761962890625,0.4853813350200653,0.7657296657562256,0.2764643430709839
1740006943289744000,7.577743896484375,0.5160963535308838,0.7922054529190063,-0.005911951418966055
1740006943299726000,7.58772607421875,0.5440755486488342,0.8166852593421936,-0.3094393312931061
1740006943309707800,7.597707763671875,0.5499646067619324,0.8488157391548157,-0.6465817093849182
1740006943319690000,7.60768994140625,0.5430265069007874,0.8787190318107605,-1.006304383277893
1740006943329671000,7.6176708984375,0.5336748361587524,0.8921093940734863,-1.3737766742706299
1740006943339653000,7.627653076171875,0.519053041934967,0.8802085518836975,-1.71067214012146
1740006943349634800,7.637634765625,0.48592647910118103,0.8506178855895996,-1.982249140739441
1740006943359617000,7.647616943359375,0.4338960647583008,0.8079996109008789,-2.168724775314331
1740006943369599000,7.657598876953125,0.3714715540409088,0.7859323620796204,-2.2674474716186523
1740006943379580000,7.667579833984375,0.3239351809024811,0.8121908903121948,-2.2880196571350098
1740006943389561900,7.677561767578125,0.339363157749176,0.8266254663467407,-2.2710845470428467
1740006943399544000,7.6875439453125,0.4064348638057709,0.793496310710907,-2.2250990867614746
1740006943409526000,7.697526123046875,0.4934768080711365,0.6789505481719971,-2.0960452556610107
1740006943419508000,7.707508056640625,0.5681998133659363,0.5219771862030029,-1.8922175168991089
1740006943429489000,7.717489013671875,0.6402921080589294,0.3387724757194519,-1.6008011102676392
1740006943439471000,7.72747119140625,0.7223083972930908,0.1526973992586136,-1.2679555416107178
1740006943449453000,7.737453125,0.8265793919563293,0.04680558666586876,-0.8777709603309631
1740006943459435000,7.74743505859375,0.9785423278808594,0.027877969667315483,-0.44219285249710083
1740006943469417200,7.757417236328125,1.1993423700332642,0.11056166142225266,0.002567287301644683
1740006943479399000,7.76739892578125,1.4974923133850098,0.30479612946510315,0.4178086817264557
1740006943489379800,7.7773798828125,1.8201611042022705,0.5408384799957275,0.8059875965118408
1740006943499362000,7.787362060546875,2.114882230758667,0.7117947936058044,1.138009786605835
1740006943509344000,7.797343994140625,2.349828004837036,0.8556259870529175,1.4091064929962158
1740006943519326000,7.807325927734375,2.5154426097869873,1.005828857421875,1.6307216882705688
1740006943529308200,7.81730810546875,2.6300554275512695,1.1700127124786377,1.8043934106826782
1740006943539289000,7.8272890625,2.714308738708496,1.3267972469329834,1.920465350151062
1740006943549271000,7.83727099609375,2.7812609672546387,1.4405512809753418,1.9485676288604736
1740006943559253000,7.8472529296875,2.8302388191223145,1.4891462326049805,1.88893723487854
1740006943569235200,7.857235107421875,2.84165096282959,1.4529069662094116,1.7351099252700806
1740006943579217000,7.867216796875,2.828791379928589,1.301405906677246,1.4788413047790527
1740006943589198000,7.877197998046875,2.7634994983673096,1.0302143096923828,1.1304399967193604
1740006943599180000,7.887179931640625,2.6555614471435547,0.6883437633514404,0.7458981275558472
1740006943609162000,7.897161865234375,2.5308709144592285,0.35216575860977173,0.3613355755805969
1740006943619144000,7.90714404296875,2.426015853881836,0.039935965090990067,-0.00015206649550236762
1740006943629127000,7.917126953125,2.3840718269348145,-0.25226953625679016,-0.32771873474121094
1740006943639107800,7.92710791015625,2.4517407417297363,-0.47814661264419556,-0.5406962633132935
1740006943649090000,7.937090087890625,2.6153416633605957,-0.6211088299751282,-0.6074888706207275
1740006943659072000,7.947072021484375,2.805753707885742,-0.7144742012023926,-0.5318796038627625
1740006943669054000,7.957053955078125,2.993351936340332,-0.7637967467308044,-0.337047278881073
1740006943679036000,7.967035888671875,3.1710472106933594,-0.7897692322731018,-0.07490033656358719
1740006943689017000,7.97701708984375,3.3501620292663574,-0.807685911655426,0.22295531630516052
1740006943698999000,7.9869990234375,3.520965337753296,-0.7968326807022095,0.5341656804084778
1740006943708981000,7.99698095703125,3.6856777667999268,-0.7538700699806213,0.8302111625671387
1740006943718963000,8.006962890625,3.8463966846466064,-0.6745901703834534,1.0885876417160034
1740006943728945000,8.01694482421875,3.992755889892578,-0.5362927317619324,1.296868085861206
1740006943738925800,8.02692578125,4.10548210144043,-0.3324437141418457,1.442859172821045
1740006943748908000,8.036907958984376,4.156139373779297,-0.06642136722803116,1.557196855545044
1740006943758890000,8.046889892578125,4.140215873718262,0.25075286626815796,1.6435834169387817
1740006943768872000,8.056871826171875,4.043439865112305,0.5983084440231323,1.7124959230422974
1740006943778854000,8.06685400390625,3.8715341091156006,0.9347149133682251,1.7646232843399048
1740006943788836000,8.076836181640624,3.6253983974456787,1.2288414239883423,1.7931007146835327
1740006943798817000,8.086817138671876,3.3171751499176025,1.4754146337509155,1.7950174808502197
1740006943808799000,8.096799072265625,2.955538272857666,1.6630580425262451,1.7779157161712646
1740006943818781000,8.106781005859375,2.5463571548461914,1.798287272453308,1.7397427558898926
1740006943828763100,8.11676318359375,2.1021199226379395,1.8580241203308105,1.6871296167373657
1740006943838744800,8.126744873046874,1.6186996698379517,1.807037353515625,1.6054166555404663
1740006943848726000,8.13672607421875,1.1008732318878174,1.6484602689743042,1.4995993375778198
1740006943858708000,8.1467080078125,0.551713228225708,1.3865317106246948,1.35463547706604
1740006943868690000,8.15668994140625,-0.008280833251774311,1.0612303018569946,1.1529277563095093
1740006943878672000,8.166671875,-0.5527095198631287,0.7294315695762634,0.8793201446533203
1740006943888654000,8.176654052734374,-1.0397909879684448,0.4224098324775696,0.5420566201210022
1740006943898635000,8.186635009765626,-1.4398188591003418,0.14223571121692657,0.18531446158885956
1740006943908616200,8.1966162109375,-1.8083103895187378,-0.15092533826828003,-0.15906688570976257
1740006943918598400,8.206598388671875,-2.198798418045044,-0.49104589223861694,-0.452789306640625
1740006943928580400,8.216580322265624,-2.640214443206787,-0.8135472536087036,-0.6978350281715393
1740006943938562300,8.226562255859376,-3.097238540649414,-1.0201478004455566,-0.8988744020462036
1740006943948544300,8.236544189453125,-3.5239720344543457,-1.0899343490600586,-1.0633618831634521
1740006943958525400,8.246525390625,-3.891819715499878,-1.074512004852295,-1.1863911151885986
1740006943968507400,8.25650732421875,-4.238689422607422,-1.0379798412322998,-1.2808177471160889
1740006943978489300,8.2664892578125,-4.594271183013916,-1.0176756381988525,-1.3420515060424805
1740006943988471300,8.27647119140625,-4.912709712982178,-0.965639591217041,-1.3617517948150635
1740006943998453500,8.28645361328125,-5.158129692077637,-0.8701236844062805,-1.3441323041915894
1740006944008434200,8.29643408203125,-5.302739143371582,-0.7452214360237122,-1.2844476699829102
1740006944018416400,8.30641650390625,-5.3590192794799805,-0.6256226301193237,-1.1795705556869507
1740006944028398300,8.3163984375,-5.33738374710083,-0.5623610615730286,-1.0555458068847656
1740006944038380300,8.32638037109375,-5.247054576873779,-0.5430020093917847,-0.9075744152069092
1740006944048361200,8.336361328125,-5.108126163482666,-0.5368216037750244,-0.7468217611312866
1740006944058343400,8.346343505859375,-4.941906452178955,-0.47937965393066406,-0.61911940574646
1740006944068325400,8.356325439453125,-4.7682600021362305,-0.35054683685302734,-0.5657041668891907
1740006944078307300,8.366307373046874,-4.604310989379883,-0.1982070952653885,-0.5661864280700684
1740006944088289300,8.376289306640626,-4.448832035064697,-0.1024203822016716,-0.5897876620292664
1740006944098271500,8.386271484375,-4.3213791847229,-0.11368342489004135,-0.6144064664840698
1740006944108252200,8.396252197265625,-4.223201751708984,-0.24050821363925934,-0.6057932376861572
1740006944118234400,8.406234375,-4.146176815032959,-0.41981592774391174,-0.5409865379333496
1740006944128216300,8.41621630859375,-4.082610607147217,-0.6328568458557129,-0.41418200731277466
1740006944138198300,8.4261982421875,-3.999415636062622,-0.8061487078666687,-0.20714838802814484
1740006944148180200,8.43618017578125,-3.854640007019043,-0.9019958972930908,0.05636340752243996
1740006944158161400,8.446161376953125,-3.6441757678985596,-0.9097941517829895,0.3662533462047577
1740006944168143400,8.456143310546874,-3.392488718032837,-0.8839284777641296,0.7156742215156555
1740006944178125300,8.466125244140626,-3.120068073272705,-0.8666900992393494,1.0972462892532349
1740006944188107300,8.476107177734375,-2.8514912128448486,-0.8388944268226624,1.4936290979385376
1740006944198089500,8.48608935546875,-2.577890157699585,-0.7795469164848328,1.8814681768417358
1740006944208070400,8.4960703125,-2.297346830368042,-0.7059534192085266,2.229118824005127
1740006944218052400,8.50605224609375,-2.032224416732788,-0.6402547955513,2.4972057342529297
1740006944228034300,8.516034423828126,-1.7764784097671509,-0.6101176738739014,2.6615822315216064
1740006944238016300,8.526016357421875,-1.5306483507156372,-0.53788822889328,2.642601251602173
1740006944247998200,8.535998291015625,-1.3223960399627686,-0.4415843188762665,2.471405267715454
1740006944257980400,8.54598046875,-1.1424486637115479,-0.3145001530647278,2.1776840686798096
1740006944267961300,8.55596142578125,-0.9729957580566406,-0.17911116778850555,1.7953969240188599
1740006944277943300,8.565943359375,-0.8262475728988647,-0.08238542079925537,1.3521523475646973
1740006944287925200,8.57592529296875,-0.7240802049636841,-0.01991751603782177,0.8613190054893494
1740006944297907500,8.585907470703125,-0.6737083792686462,0.003567570587620139,0.36472415924072266
1740006944307889200,8.59588916015625,-0.6887466907501221,-0.017620539292693138,-0.12003106623888016
1740006944317870300,8.605870361328124,-0.7627367973327637,-0.11432897299528122,-0.570027232170105
1740006944327852300,8.615852294921876,-0.8735818266868591,-0.2887588441371918,-0.95906662940979
1740006944337834200,8.625834228515625,-0.9693887829780579,-0.4697642922401428,-1.263698697090149
1740006944347816200,8.635816162109375,-0.9783702492713928,-0.6407573819160461,-1.5134472846984863
1740006944357798400,8.64579833984375,-0.9288620948791504,-0.7561355829238892,-1.7271268367767334
1740006944367779300,8.655779296875,-0.8349896669387817,-0.7885462641716003,-1.8982529640197754
1740006944377761300,8.66576123046875,-0.7323279976844788,-0.7504412531852722,-2.0000083446502686
1740006944387743200,8.6757431640625,-0.6273701786994934,-0.6703853011131287,-2.033083200454712
1740006944397725400,8.685725341796875,-0.518172562122345,-0.552156925201416,-2.0116543769836426
1740006944407707100,8.69570703125,-0.40613871812820435,-0.4317415654659271,-1.950783610343933
1740006944417689300,8.705689453125,-0.2986511290073395,-0.3380073308944702,-1.8442243337631226
1740006944427670300,8.715670166015625,-0.19432580471038818,-0.2855907380580902,-1.6841508150100708
1740006944437652200,8.72565234375,-0.10045789927244186,-0.2687923014163971,-1.4777979850769043
1740006944447634200,8.73563427734375,0.016516126692295074,-0.302753746509552,-1.2346686124801636
1740006944457616400,8.745616455078125,0.20431478321552277,-0.3639148473739624,-0.9654970765113831
1740006944467598300,8.755598388671874,0.506515383720398,-0.4349866211414337,-0.6894652247428894
1740006944477580300,8.765580322265626,0.9443305730819702,-0.4887595772743225,-0.4355573356151581
1740006944487561200,8.775561279296875,1.524137258529663,-0.4882916510105133,-0.21995607018470764
1740006944497543400,8.78554345703125,2.22390079498291,-0.39086416363716125,-0.05874427407979965
1740006944507525400,8.795525390625,2.9779672622680664,-0.17235206067562103,0.05343765765428543
1740006944517507300,8.80550732421875,3.6718647480010986,0.10388192534446716,0.09576460719108582
1740006944527489500,8.815489501953126,4.227872848510742,0.30650612711906433,0.09523224085569382
1740006944537470500,8.825470458984375,4.672403335571289,0.34305375814437866,0.10137668997049332
1740006944547452400,8.835452392578125,5.009190559387207,0.23313604295253754,0.1015804186463356
1740006944557434400,8.845434326171874,5.201066017150879,0.09198984503746033,0.06245538964867592
1740006944567416300,8.855416259765626,5.207705020904541,0.05402195453643799,-0.018610969185829163
1740006944577398300,8.865398193359376,5.040833950042725,0.1109805777668953,-0.16889527440071106
1740006944587379200,8.875379150390625,4.756103038787842,0.24694480001926422,-0.38957279920578003
1740006944597361400,8.885361328125,4.431375503540039,0.43399539589881897,-0.6658000946044922
1740006944607343400,8.89534326171875,4.111087799072266,0.6452780961990356,-0.9333956241607666
1740006944617325300,8.9053251953125,3.8112781047821045,0.7753782868385315,-1.1249918937683105
1740006944627307500,8.9153076171875,3.544961452484131,0.7478172183036804,-1.2218241691589355
1740006944637289200,8.925289306640625,3.3023574352264404,0.5964213013648987,-1.2222814559936523
1740006944647270400,8.9352705078125,3.1095824241638184,0.32835444808006287,-1.1557594537734985
1740006944657252400,8.94525244140625,2.984818935394287,0.002302302746102214,-1.0720789432525635
1740006944667234300,8.955234375,2.962836742401123,-0.33292922377586365,-1.0365339517593384
1740006944677216300,8.96521630859375,3.012183666229248,-0.6360997557640076,-1.0320825576782227
1740006944687198500,8.975198486328125,3.0996952056884766,-0.9206563830375671,-1.0452641248703003
1740006944697179400,8.985179443359375,3.178868293762207,-1.2008531093597412,-1.0970239639282227
1740006944707161300,8.995161376953124,3.266469955444336,-1.3985835313796997,-1.0882903337478638
1740006944717143300,9.005143310546876,3.3590104579925537,-1.5028388500213623,-0.9826627373695374
1740006944727125500,9.01512548828125,3.4684865474700928,-1.5441583395004272,-0.828015923500061
1740006944737107200,9.025107177734375,3.5792739391326904,-1.5312329530715942,-0.63411945104599
1740006944747089400,9.03508935546875,3.680940866470337,-1.4672297239303589,-0.4306134283542633
1740006944757070300,9.0450703125,3.7758445739746094,-1.3603993654251099,-0.2060548961162567
1740006944767052300,9.05505224609375,3.8415348529815674,-1.253379225730896,0.024628913030028343
1740006944777034200,9.0650341796875,3.8614916801452637,-1.1959526538848877,0.23636460304260254
1740006944787016400,9.075016357421875,3.8166894912719727,-1.2208462953567505,0.3962450921535492
1740006944796998100,9.084998046875,3.702812433242798,-1.316836953163147,0.49406832456588745
1740006944806980400,9.09498046875,3.5166397094726562,-1.4293931722640991,0.524965226650238
1740006944816961300,9.104961181640626,3.2682924270629883,-1.5190010070800781,0.4864410161972046
1740006944826943500,9.114943603515625,2.9725289344787598,-1.5646660327911377,0.38749098777770996
1740006944836925200,9.12492529296875,2.656022310256958,-1.551820993423462,0.24720312654972076
1740006944846907400,9.134907470703125,2.3376622200012207,-1.450337529182434,0.07612939178943634
1740006944856889300,9.144889404296874,2.029484987258911,-1.2519302368164062,-0.1077464371919632
1740006944866870500,9.15487060546875,1.7344409227371216,-0.9831229448318481,-0.31019675731658936
1740006944876852200,9.164852294921875,1.433016061782837,-0.6561432480812073,-0.49450239539146423
1740006944886834400,9.17483447265625,1.1057069301605225,-0.2794302999973297,-0.6474701166152954
1740006944896816000,9.184816162109374,0.7475661039352417,0.13456925749778748,-0.7451964020729065
1740006944906798300,9.19479833984375,0.3731464147567749,0.5313571095466614,-0.7722290754318237
1740006944916780500,9.204780517578126,0.0078046596609056,0.8734156489372253,-0.7114189863204956
1740006944926761500,9.214761474609375,-0.36918389797210693,1.1572479009628296,-0.5609743595123291
1740006944936743400,9.224743408203125,-0.7491652965545654,1.3738059997558594,-0.33220189809799194
1740006944946725400,9.234725341796874,-1.1195111274719238,1.4609768390655518,-0.04525243118405342
1740006944956707600,9.24470751953125,-1.4908530712127686,1.4237109422683716,0.26901307702064514
1740006944966689300,9.254689208984376,-1.8845512866973877,1.3075281381607056,0.5793240666389465
1740006944976670500,9.26467041015625,-2.3083672523498535,1.1486951112747192,0.8629294633865356
1740006944986652400,9.27465234375,-2.7623353004455566,0.9977203011512756,1.1073293685913086
1740006944996634400,9.28463427734375,-3.205368757247925,0.9178406000137329,1.2952158451080322
1740006945006616300,9.2946162109375,-3.6059858798980713,0.9365612864494324,1.43777596950531
1740006945016598500,9.3045986328125,-3.9350950717926025,0.9839096665382385,1.5696101188659668
1740006945026580500,9.31458056640625,-4.1751298904418945,1.032305121421814,1.706160306930542
1740006945036561400,9.3245615234375,-4.339654922485352,1.0809824466705322,1.831607699394226
1740006945046543400,9.33454345703125,-4.426271915435791,1.0779365301132202,1.9145209789276123
1740006945056525600,9.344525634765626,-4.442862033843994,1.017115592956543,1.9152418375015259
1740006945066507300,9.35450732421875,-4.424147605895996,0.8935526013374329,1.825262427330017
1740006945076489500,9.364489501953125,-4.403499126434326,0.768172025680542,1.660819411277771
1740006945086470400,9.374470458984375,-4.4034342765808105,0.6807670593261719,1.436954379081726
1740006945096452400,9.384452392578124,-4.418055534362793,0.6669002771377563,1.190565586090088
1740006945106434300,9.394434326171876,-4.423772811889648,0.6567544341087341,0.9216934442520142
1740006945116416500,9.40441650390625,-4.4098663330078125,0.5797960162162781,0.6311156153678894
1740006945126398500,9.4143984375,-4.350374221801758,0.3734188675880432,0.30642277002334595
1740006945136380400,9.42438037109375,-4.2576470375061035,0.08022639900445938,-0.026936808601021767
1740006945146361300,9.434361328125,-4.136720657348633,-0.22320245206356049,-0.34791988134384155
1740006945156343600,9.444343505859376,-4.00643253326416,-0.47549381852149963,-0.6202848553657532
1740006945166325500,9.454325439453125,-3.874680757522583,-0.6678608655929565,-0.812248170375824
1740006945176307500,9.464307373046875,-3.759190797805786,-0.8431645035743713,-0.9068281650543213
1740006945186289700,9.47428955078125,-3.661324977874756,-1.015695333480835,-0.928513765335083
1740006945196270600,9.4842705078125,-3.6014180183410645,-1.158577561378479,-0.9338792562484741
1740006945206252500,9.49425244140625,-3.548987627029419,-1.2394710779190063,-0.9336661696434021
1740006945216234500,9.504234375,-3.4844205379486084,-1.2499762773513794,-0.9330763220787048
1740006945226216400,9.514216552734375,-3.379476547241211,-1.2638674974441528,-0.9325811862945557
1740006945236198400,9.524198486328125,-3.241654396057129,-1.294571876525879,-0.9377264380455017
1740006945246180600,9.5341806640625,-3.0467934608459473,-1.3322458267211914,-0.9136291146278381
1740006945256161500,9.54416162109375,-2.8359453678131104,-1.35685396194458,-0.8746031522750854
1740006945266143500,9.5541435546875,-2.5912997722625732,-1.392503261566162,-0.8365833163261414
1740006945276125400,9.56412548828125,-2.340726375579834,-1.3910070657730103,-0.8459973335266113
1740006945286107600,9.574107666015625,-2.132197618484497,-1.4312325716018677,-0.9086002707481384
1740006945296089300,9.58408935546875,-1.9615933895111084,-1.5043925046920776,-1.0151770114898682
1740006945306071600,9.594071533203126,-1.7903001308441162,-1.579980731010437,-1.1274915933609009
1740006945316052500,9.604052490234375,-1.652359127998352,-1.6801377534866333,-1.2221709489822388
1740006945326034400,9.614034423828125,-1.5836141109466553,-1.8192431926727295,-1.3155651092529297
1740006945336016400,9.624016357421874,-1.5541536808013916,-1.9607707262039185,-1.4085485935211182
1740006945345998600,9.63399853515625,-1.4971572160720825,-2.0814311504364014,-1.528130054473877
1740006945355980300,9.643980224609376,-1.3854155540466309,-2.0935540199279785,-1.6521329879760742
1740006945365961500,9.65396142578125,-1.2038534879684448,-2.0153822898864746,-1.7272391319274902
1740006945375943400,9.663943359375,-0.947944164276123,-1.8412957191467285,-1.747320532798767
1740006945385925600,9.673925537109374,-0.6778895258903503,-1.5522500276565552,-1.666573405265808
1740006945395907300,9.6839072265625,-0.44989606738090515,-1.3914865255355835,-1.5197083950042725
1740006945405889500,9.6938896484375,-0.2396959513425827,-1.2336806058883667,-1.3552181720733643
1740006945415871500,9.70387158203125,-0.04283508285880089,-1.0180768966674805,-1.2103451490402222
1740006945425852400,9.713852294921875,0.14170919358730316,-0.7322430610656738,-1.1027774810791016
1740006945435834400,9.72383447265625,0.33917006850242615,-0.41849419474601746,-1.0338561534881592
1740006945445816600,9.733816650390626,0.524814248085022,-0.2482023537158966,-0.9967727065086365
1740006945455798300,9.74379833984375,0.7102645039558411,-0.2801395058631897,-0.9580458402633667
1740006945465780500,9.753780517578125,0.8675289750099182,-0.47893837094306946,-0.883901834487915
1740006945475761400,9.763761474609375,1.0017890930175781,-0.7523943781852722,-0.7730368375778198
1740006945485743600,9.77374365234375,1.1201393604278564,-1.0526325702667236,-0.6523373126983643
1740006945495725300,9.783725341796876,1.2170212268829346,-1.3939759731292725,-0.5452971458435059
1740006945505707500,9.79370751953125,1.2904237508773804,-1.6904069185256958,-0.43825483322143555
1740006945515689500,9.803689453125,1.3563787937164307,-1.8870059251785278,-0.3138098418712616
1740006945525671400,9.81367138671875,1.44891357421875,-1.9264332056045532,-0.12323298305273056
1740006945535652400,9.82365234375,1.5933769941329956,-1.8192524909973145,0.11780146509408951
1740006945545634600,9.833634521484376,1.8147990703582764,-1.5939894914627075,0.3904263377189636
1740006945555616300,9.8436162109375,2.088273525238037,-1.2933239936828613,0.7070562243461609
1740006945565598500,9.853598388671875,2.370429039001465,-1.0125484466552734,1.0912220478057861
1740006945575580400,9.863580322265625,2.6448113918304443,-0.8427512049674988,1.498915195465088
1740006945585562400,9.873562255859374,2.914428472518921,-0.8180509209632874,1.8802356719970703
1740006945595543300,9.883543212890626,3.135784387588501,-0.9275918006896973,2.168267250061035
1740006945605525500,9.893525390625,3.334641456604004,-1.0104091167449951,2.2692580223083496
1740006945615507500,9.903507568359375,3.5494771003723145,-1.1489968299865723,2.1585330963134766
1740006945625489400,9.913489501953125,3.7455949783325195,-1.285305142402649,1.9071296453475952
1740006945635471400,9.923471435546874,3.8771865367889404,-1.4395546913146973,1.622119665145874
1740006945645452500,9.93345263671875,3.8920934200286865,-1.6201902627944946,1.437248945236206
1740006945655434500,9.9434345703125,3.823392868041992,-1.740092158317566,1.3321336507797241
1740006945665416400,9.95341650390625,3.6968026161193848,-1.8041291236877441,1.28534996509552
1740006945675398400,9.9633984375,3.5641582012176514,-1.819655179977417,1.2869094610214233
1740006945685380400,9.97338037109375,3.4820103645324707,-1.7835628986358643,1.3318474292755127
1740006945695362600,9.983362548828126,3.4385476112365723,-1.6931188106536865,1.3971030712127686
1740006945705343500,9.993343505859375,3.3879635334014893,-1.6014705896377563,1.3891266584396362
1740006945715325400,10.003325439453125,3.352477788925171,-1.6113929748535156,1.3537832498550415
1740006945725307400,10.013307373046874,3.328212022781372,-1.615849494934082,1.380086064338684
1740006945735289600,10.02328955078125,3.2774343490600586,-1.530868649482727,1.477312445640564
1740006945745271600,10.033271484375,3.197253704071045,-1.4229376316070557,1.6392861604690552
1740006945755253500,10.04325341796875,3.091860294342041,-1.2870519161224365,1.8203203678131104
1740006945765234400,10.053234375,3.001713991165161,-1.134873628616333,1.9803715944290161
1740006945775216400,10.06321630859375,2.9457030296325684,-0.9640938639640808,2.063957929611206
1740006945785198300,10.0731982421875,2.9317431449890137,-0.7690061330795288,2.079296827316284
1740006945795180500,10.0831806640625,2.9547555446624756,-0.5621972680091858,2.0558109283447266
1740006945805162500,10.09316259765625,2.995425224304199,-0.3306935131549835,2.0227460861206055
1740006945815143400,10.103143310546875,3.0375890731811523,-0.09716889262199402,1.9843602180480957
1740006945825125400,10.11312548828125,3.035064220428467,0.10261932015419006,1.9277669191360474
1740006945835107600,10.123107666015626,2.9655611515045166,0.2702741026878357,1.8630452156066895
1740006945845089500,10.133089599609375,2.8061046600341797,0.3599800169467926,1.8001255989074707
1740006945855071500,10.143071533203125,2.5699679851531982,0.3399317264556885,1.7298592329025269
1740006945865053400,10.153053466796875,2.2941532135009766,0.26684820652008057,1.618390679359436
1740006945875034600,10.16303466796875,2.0133438110351562,0.14430391788482666,1.455736517906189
1740006945885016300,10.173016357421876,1.7206710577011108,0.028177842497825623,1.2456059455871582
1740006945894998500,10.18299853515625,1.4353364706039429,-0.03771328926086426,1.0021328926086426
1740006945904980500,10.19298046875,1.1676619052886963,0.0067692226730287075,0.7336617112159729
1740006945914962400,10.20296240234375,0.8955446481704712,0.142898827791214,0.46833792328834534
1740006945924944400,10.2129443359375,0.5979547500610352,0.3509233891963959,0.2280653864145279
1740006945934925600,10.222925537109376,0.27605900168418884,0.6167343258857727,0.018881013616919518
1740006945944907500,10.232907470703125,-0.05730057507753372,0.8622881174087524,-0.12350302934646606
1740006945954889500,10.242889404296875,-0.37470462918281555,1.0585612058639526,-0.1897909790277481
1740006945964871400,10.252871337890625,-0.6672701835632324,1.2113276720046997,-0.20399335026741028
1740006945974853600,10.262853515625,-0.9686569571495056,1.3402296304702759,-0.20204150676727295
1740006945984835300,10.27283544921875,-1.2925678491592407,1.4143015146255493,-0.1871379315853119
1740006945994816500,10.28281640625,-1.6382262706756592,1.4143638610839844,-0.1668667495250702
1740006946004798500,10.292798583984375,-1.9982608556747437,1.4183495044708252,-0.13482598960399628
1740006946014780400,10.302780517578125,-2.346123218536377,1.4897505044937134,-0.07276022434234619
1740006946024762400,10.312762451171874,-2.6767189502716064,1.6649755239486694,0.0014881744282320142
1740006946034744600,10.32274462890625,-3.0093257427215576,1.8991038799285889,0.08274121582508087
1740006946044725500,10.3327255859375,-3.346315860748291,2.088534116744995,0.16168449819087982
1740006946054707500,10.34270751953125,-3.662248373031616,2.209709882736206,0.2674191892147064
1740006946064689400,10.352689453125,-3.9568064212799072,2.282287836074829,0.401009738445282
1740006946074671600,10.362671630859374,-4.19971227645874,2.349541187286377,0.5496447682380676
1740006946084653300,10.3726533203125,-4.387730598449707,2.4088404178619385,0.7039523124694824
1740006946094635500,10.382635498046875,-4.516650676727295,2.481606960296631,0.843717098236084
1740006946104616400,10.392616455078125,-4.571445465087891,2.513625144958496,0.951005220413208
1740006946114598400,10.402598388671874,-4.508071422576904,2.4995739459991455,0.9613937139511108
1740006946124580400,10.412580322265624,-4.364418983459473,2.437448501586914,0.8184511661529541
1740006946134562600,10.4225625,-4.185446262359619,2.2186532020568848,0.5213683843612671
1740006946144544300,10.432544189453125,-4.016538143157959,1.8287192583084106,0.053707968443632126
1740006946154526500,10.4425263671875,-3.8886196613311768,1.3317108154296875,-0.5503531694412231
1740006946164507400,10.45250732421875,-3.8255724906921387,0.8069921135902405,-1.2434275150299072
1740006946174489600,10.462489501953126,-3.8197755813598633,0.30418944358825684,-1.9414622783660889
1740006946184471300,10.47247119140625,-3.80072021484375,-0.16886332631111145,-2.5352654457092285
1740006946194453500,10.48245361328125,-3.748507022857666,-0.5972666144371033,-2.976426601409912
1740006946204435500,10.492435546875,-3.6600918769836426,-0.9230939745903015,-3.2313058376312256
1740006946214416400,10.50241650390625,-3.5669493675231934,-1.143904685974121,-3.2886688709259033
1740006946224398300,10.5123984375,-3.4866976737976074,-1.2120099067687988,-3.1827685832977295
1740006946234380500,10.522380615234376,-3.3731417655944824,-1.170143961906433,-2.926010847091675
1740006946244362200,10.5323623046875,-3.228262424468994,-1.039706826210022,-2.549628973007202
1740006946254344400,10.542344482421875,-3.033867120742798,-0.8806524872779846,-2.075396776199341
1740006946264326700,10.55232666015625,-2.745422124862671,-0.7270174026489258,-1.529026746749878
1740006946274307600,10.5623076171875,-2.3990330696105957,-0.6295188069343567,-0.9712446928024292
1740006946284289300,10.572289306640625,-2.0452165603637695,-0.5694549679756165,-0.47520220279693604
1740006946294271500,10.582271484375,-1.743011236190796,-0.5059390664100647,-0.11695724725723267
1740006946304253400,10.59225341796875,-1.5295476913452148,-0.49016064405441284,0.08557189255952835
1740006946314235400,10.6022353515625,-1.369180679321289,-0.5531180500984192,0.15263055264949799
1740006946324217600,10.612217529296874,-1.2743127346038818,-0.746726393699646,0.1085967868566513
1740006946334198500,10.622198486328125,-1.2190971374511719,-1.021243929862976,-0.04289074242115021
1740006946344180200,10.63218017578125,-1.2065709829330444,-1.299847960472107,-0.2912648618221283
1740006946354162400,10.642162353515625,-1.2513229846954346,-1.550828456878662,-0.6097602844238281
1740006946364144600,10.65214453125,-1.2718034982681274,-2.0008561611175537,-0.9613156318664551
1740006946374126300,10.662126220703126,-1.269981861114502,-2.4410765171051025,-1.283508062362671
1740006946384108500,10.672108642578126,-1.234615683555603,-2.664987087249756,-1.4878164529800415
1740006946394089500,10.68208935546875,-1.090862512588501,-2.5611581802368164,-1.5464446544647217
1740006946404071700,10.69207177734375,-0.9177215695381165,-2.4605486392974854,-1.4700835943222046
1740006946414053400,10.702053466796874,-0.7606038451194763,-2.3487062454223633,-1.331021785736084
1740006946424035600,10.71203564453125,-0.5497545003890991,-2.208996295928955,-1.1855226755142212
1740006946434017500,10.722017578125,-0.2961552143096924,-2.0489184856414795,-1.0834969282150269
1740006946443999500,10.73199951171875,-0.057125870138406754,-1.8861854076385498,-1.0302523374557495
1740006946453980400,10.74198046875,0.13462598621845245,-1.7279915809631348,-1.0089350938796997
1740006946463962600,10.751962646484374,0.3070265054702759,-1.51737380027771,-0.9918602705001831
1740006946473944300,10.7619443359375,0.46518445014953613,-1.1893826723098755,-0.979918360710144
1740006946483926500,10.771926513671875,0.6068129539489746,-0.8231796026229858,-0.9752719402313232
1740006946493908500,10.781908447265625,0.7342292666435242,-0.7713401317596436,-0.9156776070594788
1740006946503889700,10.7918896484375,0.8707130551338196,-0.6588399410247803,-0.8186650276184082
1740006946513871400,10.801871337890624,1.011505365371704,-1.4393589496612549,-0.6938991546630859
1740006946523853600,10.811853515625,1.0950835943222046,-2.0687270164489746,-0.5573775172233582
1740006946533835500,10.82183544921875,1.2373422384262085,-1.7603108882904053,-0.43420442938804626
1740006946543817500,10.8318173828125,1.4492003917694092,-0.9894956350326538,-0.21691952645778656
1740006946553799400,10.84179931640625,1.631006121635437,-0.9294037818908691,0.18931986391544342
1740006946563780600,10.851780517578124,1.7156238555908203,-1.3304396867752075,0.6676520705223083
1740006946573762300,10.86176220703125,1.7695202827453613,-1.5779330730438232,1.1509952545166016
1740006946583744500,10.87174462890625,1.883178949356079,-1.4915236234664917,1.5776324272155762
1740006946593726500,10.8817265625,2.055105447769165,-1.1867365837097168,1.9597283601760864
1740006946603708400,10.89170849609375,2.2082479000091553,-0.8543705940246582,2.3215138912200928
1740006946613690400,10.9016904296875,2.3108057975769043,-0.704668402671814,2.638073205947876
1740006946623671600,10.911671630859376,2.3849377632141113,-0.6352848410606384,2.8927834033966064
1740006946633653500,10.921653564453125,2.49743914604187,-0.5213800668716431,3.052995204925537
1740006946643635500,10.931635498046875,2.6291351318359375,-0.3570316433906555,3.0800955295562744
1740006946653617400,10.941617431640625,2.715177297592163,-0.18236128985881805,2.9534993171691895
1740006946663599600,10.951599609375,2.74017071723938,-0.04199139401316643,2.739210605621338
1740006946673581300,10.961581298828126,2.7289631366729736,0.023154854774475098,2.5048587322235107
1740006946683562500,10.9715625,2.684723377227783,-0.004619252867996693,2.2354977130889893
1740006946693544400,10.98154443359375,2.6155178546905518,-0.11004713922739029,1.9103504419326782
1740006946703526400,10.9915263671875,2.515904426574707,-0.29213839769363403,1.6302785873413086
1740006946713508400,11.00150830078125,2.4115211963653564,-0.5564363598823547,1.4829580783843994
1740006946723490600,11.011490478515626,2.279114246368408,-0.8821545243263245,1.5210963487625122
1740006946733472300,11.02147216796875,2.1197023391723633,-1.1194589138031006,1.6730438470840454
1740006946743453400,11.031453369140625,1.9677172899246216,-1.2228598594665527,1.8672370910644531
1740006946753435400,11.041435302734374,1.8673475980758667,-1.1455310583114624,2.116325616836548
1740006946763417600,11.05141748046875,1.8126760721206665,-0.9479718804359436,2.336029052734375
1740006946773399300,11.0613994140625,1.7679834365844727,-0.7599495053291321,2.517165422439575
1740006946783381500,11.071381591796875,1.719252347946167,-0.6532531976699829,2.6949660778045654
1740006946793363500,11.081363525390625,1.6761748790740967,-0.668872594833374,2.8543214797973633
1740006946803344400,11.091344482421874,1.6445144414901733,-0.7381156086921692,2.9286084175109863
1740006946813326300,11.101326416015626,1.662013292312622,-0.7879132628440857,2.8902204036712646
1740006946823308500,11.11130859375,1.7134511470794678,-0.8648016452789307,2.807508945465088
1740006946833290200,11.121290283203125,1.7428932189941406,-1.0407675504684448,2.718132734298706
1740006946843272400,11.1312724609375,1.768471598625183,-1.3418470621109009,2.5715694427490234
1740006946853254700,11.141254638671874,1.7755672931671143,-1.643560528755188,2.3600292205810547
1740006946863235600,11.151235595703126,1.7550591230392456,-1.7863783836364746,2.0879011154174805
1740006946873217300,11.16121728515625,1.7025402784347534,-1.8308484554290771,1.794562816619873
1740006946883199500,11.171199462890625,1.6382099390029907,-1.8011901378631592,1.5486187934875488
1740006946893181400,11.181181396484375,1.5807956457138062,-1.6692330837249756,1.355067253112793
1740006946903163400,11.191163330078124,1.5228404998779297,-1.4582351446151733,1.1983222961425781
1740006946913144600,11.20114453125,1.4807602167129517,-1.2093806266784668,1.0669376850128174
1740006946923126800,11.211126708984375,1.4552761316299438,-0.9684915542602539,0.9895308017730713
1740006946933108700,11.221108642578125,1.438921332359314,-0.7214681506156921,0.951454758644104
1740006946943090700,11.231090576171875,1.4102047681808472,-0.5271368026733398,0.9243259429931641
1740006946953073000,11.241072998046874,1.3397101163864136,-0.382217675447464,0.8426864743232727
1740006946963054600,11.2510546875,1.240830421447754,-0.24878399074077606,0.6954754590988159
1740006946973036800,11.261036865234376,1.1140402555465698,-0.07741835713386536,0.5022854804992676
1740006946983017700,11.271017822265625,0.9305230975151062,0.13084003329277039,0.2923487722873688
1740006946992999700,11.280999755859375,0.685824990272522,0.40305957198143005,0.10424837470054626
1740006947002981600,11.290981689453124,0.4133918285369873,0.7634859085083008,-0.05452369526028633
1740006947012963800,11.3009638671875,0.1760522574186325,1.1588393449783325,-0.18689239025115967
1740006947022945500,11.310945556640625,-0.012731507420539856,1.5178390741348267,-0.28087934851646423
1740006947032926700,11.3209267578125,-0.20588365197181702,1.7801761627197266,-0.31096240878105164
1740006947042908700,11.33090869140625,-0.4481612741947174,1.9881099462509155,-0.2678501009941101
1740006947052891000,11.340890869140624,-0.7578107118606567,2.190030574798584,-0.18752968311309814
1740006947062872600,11.35087255859375,-1.1148375272750854,2.3456902503967285,-0.11381790786981583
1740006947072854800,11.360854736328125,-1.4786330461502075,2.4779539108276367,-0.096190445125103
1740006947082836700,11.370836669921875,-1.8225220441818237,2.5937912464141846,-0.1556529700756073
1740006947092817700,11.380817626953124,-2.1314032077789307,2.6699869632720947,-0.3022642433643341
1740006947102799600,11.390799560546874,-2.427260398864746,2.7462542057037354,-0.5214099287986755
1740006947112781800,11.40078173828125,-2.6981842517852783,2.787105083465576,-0.7105516195297241
1740006947122763500,11.410763427734375,-2.9728641510009766,2.8148624897003174,-0.81300288438797
1740006947132745700,11.420745849609375,-3.2615020275115967,2.853128671646118,-0.8206448554992676
1740006947142727700,11.430727783203125,-3.528812885284424,2.8827736377716064,-0.7502524256706238
1740006947152708900,11.440708984375,-3.73457670211792,2.876979112625122,-0.6243767738342285
1740006947162690600,11.450690673828126,-3.867537498474121,2.8142664432525635,-0.4632326364517212
1740006947172672800,11.4606728515625,-3.9225659370422363,2.725341796875,-0.2754025459289551
1740006947182654700,11.47065478515625,-3.8955955505371094,2.608668804168701,-0.09298240393400192
1740006947192636700,11.48063671875,-3.8209052085876465,2.475459575653076,0.049312952905893326
1740006947202618600,11.49061865234375,-3.7506508827209473,2.3168745040893555,0.12081749737262726
1740006947212599800,11.500599853515626,-3.718632936477661,2.1185524463653564,0.13037505745887756
1740006947222581500,11.51058154296875,-3.749753713607788,1.86727774143219,0.06425169110298157
1740006947232563700,11.520563720703125,-3.8420746326446533,1.5910509824752808,-0.06881315261125565
1740006947242545700,11.530545654296875,-3.998427152633667,1.2937843799591064,-0.23337146639823914
1740006947252527600,11.540527587890624,-4.166983127593994,1.0163722038269043,-0.36905527114868164
1740006947262509800,11.550509765625,-4.336789131164551,0.8169859051704407,-0.41007673740386963
1740006947272490800,11.56049072265625,-4.470428943634033,0.6982914805412292,-0.32058146595954895
1740006947282472700,11.57047265625,-4.528293132781982,0.685158908367157,-0.10063393414020538
1740006947292454700,11.58045458984375,-4.528387069702148,0.7110477685928345,0.234519824385643
1740006947302436600,11.5904365234375,-4.488040924072266,0.7360484600067139,0.6504307389259338
1740006947312418800,11.600418701171876,-4.401359558105469,0.7225233316421509,1.1114697456359863
1740006947322400800,11.61040087890625,-4.257604598999023,0.6504584550857544,1.568908452987671
1740006947332381700,11.620381591796875,-4.0549702644348145,0.558294951915741,1.9712283611297607
1740006947342363600,11.63036376953125,-3.8285512924194336,0.4676002264022827,2.2738301753997803
1740006947352345600,11.640345703125,-3.5951650142669678,0.43292373418807983,2.3992083072662354
1740006947362327800,11.650327880859376,-3.3522303104400635,0.4139558970928192,2.3550028800964355
1740006947372309800,11.660309814453125,-3.108747959136963,0.34682318568229675,2.156381607055664
1740006947382291700,11.670291748046875,-2.8601415157318115,0.2054695338010788,1.8279855251312256
1740006947392272600,11.680272705078124,-2.627027988433838,0.06826427578926086,1.4058363437652588
1740006947402254800,11.6902548828125,-2.423485279083252,-0.044195957481861115,0.9024246335029602
1740006947412236800,11.70023681640625,-2.242244005203247,-0.151060089468956,0.34898221492767334
1740006947422218800,11.71021875,-2.0965468883514404,-0.2642931640148163,-0.2222122997045517
1740006947432200700,11.72020068359375,-1.9726207256317139,-0.40535974502563477,-0.7728623747825623
1740006947442182700,11.7301826171875,-1.8419897556304932,-0.5602758526802063,-1.2532029151916504
1740006947452163600,11.74016357421875,-1.6603562831878662,-0.6851384043693542,-1.6401149034500122
1740006947462145800,11.750145751953125,-1.4587523937225342,-0.7552562355995178,-1.9191654920578003
1740006947472127700,11.760127685546875,-1.2671680450439453,-0.7641605138778687,-2.087003231048584
1740006947482109700,11.770109619140625,-1.0921897888183594,-0.7422767877578735,-2.140211343765259
1740006947492091600,11.780091552734374,-0.9257709980010986,-0.6985220909118652,-2.0845491886138916
1740006947502073900,11.790073974609374,-0.7723361253738403,-0.6189005374908447,-1.9401911497116089
1740006947512054800,11.8000546875,-0.6241456270217896,-0.4842769205570221,-1.7368183135986328
1740006947522036700,11.81003662109375,-0.48894357681274414,-0.28307777643203735,-1.5189090967178345
1740006947532018700,11.820018798828125,-0.31297415494918823,-0.09518750011920929,-1.294106125831604
1740006947542001000,11.8300009765625,-0.1401459276676178,0.05916318669915199,-1.0529627799987793
1740006947551982600,11.839982666015626,0.06688182801008224,0.1718476563692093,-0.7641370892524719
1740006947561964800,11.84996484375,0.29725804924964905,0.1873840093612671,-0.43800637125968933
1740006947571945700,11.85994580078125,0.5693798661231995,0.09256748110055923,-0.12347400188446045
1740006947581927700,11.869927734375,0.9246441721916199,-0.039015043526887894,0.1696806401014328
1740006947591909600,11.87990966796875,1.3193957805633545,-0.15220259130001068,0.42064788937568665
1740006947601891800,11.889891845703126,1.7378489971160889,-0.2014593482017517,0.6069163084030151
1740006947611873500,11.89987353515625,2.1716184616088867,-0.11230497062206268,0.7666122317314148
1740006947621855700,11.909855712890625,2.6043834686279297,0.11374121159315109,0.928584635257721
1740006947631837700,11.919837646484375,3.02427077293396,0.3901040852069855,1.089763879776001
1740006947641819600,11.929819580078124,3.420452833175659,0.6200613975524902,1.255859136581421
1740006947651800600,11.939800537109376,3.7875678539276123,0.7836852073669434,1.4284391403198242
1740006947661782800,11.94978271484375,4.127804279327393,0.8578747510910034,1.6011492013931274
1740006947671764700,11.9597646484375,4.407809257507324,0.8990166187286377,1.7313157320022583
1740006947681746700,11.96974658203125,4.6090264320373535,0.8746156692504883,1.7727051973342896
1740006947691728600,11.979728759765624,4.698466777801514,0.8002111911773682,1.7137545347213745
1740006947701710600,11.989710693359376,4.6171488761901855,0.713916003704071,1.5591706037521362
1740006947711691500,11.99969140625,4.366786479949951,0.5807523131370544,1.3111662864685059
1740006947721673700,12.009673828125,4.10032844543457,0.41375377774238586,1.0453133583068848
1740006947731655700,12.01965576171875,3.8488645553588867,0.4067517817020416,0.7511802911758423
1740006947741637600,12.0296376953125,3.599386215209961,0.47509968280792236,0.37047499418258667
1740006947751619800,12.039619873046876,3.4147982597351074,0.5284957885742188,-0.0495249405503273
1740006947761601800,12.049601806640625,3.376265287399292,0.5523441433906555,-0.38833630084991455
1740006947771582700,12.059582763671875,3.4409031867980957,0.5516775250434875,-0.6120138764381409
1740006947781564700,12.069564697265625,3.542600154876709,0.5087292790412903,-0.7087215185165405
1740006947791547000,12.079546875,3.6244418621063232,0.47575482726097107,-0.7121132612228394
1740006947801528600,12.089528564453126,3.689634323120117,0.39709967374801636,-0.6733320951461792
1740006947811510800,12.0995107421875,3.7878012657165527,0.30522090196609497,-0.5832754373550415
1740006947821492700,12.10949267578125,3.913195848464966,0.23419785499572754,-0.47452762722969055
1740006947831473700,12.1194736328125,4.040246963500977,0.18063528835773468,-0.3698180019855499
1740006947841455600,12.12945556640625,4.139643669128418,0.08798524737358093,-0.2955501675605774
1740006947851437800,12.139437744140626,4.196571350097656,-0.01673050969839096,-0.2528780698776245
1740006947861419800,12.149419677734375,4.195468902587891,-0.09465406835079193,-0.2138156145811081
1740006947871401700,12.159401611328125,4.1501970291137695,-0.16328638792037964,-0.17880010604858398
1740006947881383700,12.1693837890625,4.061861515045166,-0.23465324938297272,-0.16914881765842438
1740006947891364900,12.17936474609375,3.937946319580078,-0.3194248676300049,-0.19700707495212555
1740006947901346600,12.1893466796875,3.8062808513641357,-0.42164602875709534,-0.25882676243782043
1740006947911328300,12.199328369140625,3.6898319721221924,-0.5207641124725342,-0.33482804894447327
1740006947921310200,12.209310302734375,3.5717074871063232,-0.612231969833374,-0.4211874306201935
1740006947931292400,12.21929248046875,3.431302309036255,-0.7349541783332825,-0.5139551758766174
1740006947941274000,12.229274169921876,3.2533140182495117,-0.87650465965271,-0.5954875946044922
1740006947951255300,12.23925537109375,3.0631701946258545,-1.0031968355178833,-0.6344701647758484
1740006947961237200,12.2492373046875,2.8730628490448,-1.0733561515808105,-0.6370880603790283
1740006947971219200,12.25921923828125,2.659536123275757,-1.0968726873397827,-0.6216387748718262
1740006947981201200,12.269201171875,2.423612594604492,-1.0770872831344604,-0.5873010754585266
1740006947991183400,12.279183349609376,2.171499013900757,-1.0125128030776978,-0.5143256187438965
1740006948001165000,12.2891650390625,1.9056299924850464,-0.925666868686676,-0.39559420943260193
1740006948011146200,12.299146240234375,1.62412691116333,-0.8015603423118591,-0.23189981281757355
1740006948021128200,12.309128173828125,1.3164705038070679,-0.6450583338737488,-0.041432928293943405
1740006948031110400,12.3191103515625,1.0020569562911987,-0.49319958686828613,0.16669923067092896
1740006948041092000,12.329092041015626,0.6979618072509766,-0.38588592410087585,0.3740236759185791
1740006948051073300,12.3390732421875,0.38730084896087646,-0.32290881872177124,0.5520114898681641
1740006948061055200,12.34905517578125,0.06435155868530273,-0.2768816649913788,0.6709133982658386
1740006948071037200,12.359037109375,-0.28390389680862427,-0.2438126653432846,0.714227557182312
1740006948081019100,12.36901904296875,-0.671328067779541,-0.1823759377002716,0.6804872155189514
1740006948091001300,12.37900146484375,-1.1220706701278687,-0.0724121481180191,0.5700283050537109
1740006948100983000,12.388983154296875,-1.6369476318359375,0.07820825278759003,0.42646849155426025
1740006948110965200,12.39896533203125,-2.202829599380493,0.24650032818317413,0.30664488673210144
1740006948120946200,12.4089462890625,-2.746763229370117,0.38954243063926697,0.23991672694683075
1740006948130928400,12.418928466796874,-3.2036337852478027,0.47518864274024963,0.22635510563850403
1740006948140910000,12.42891015625,-3.536402463912964,0.5094709396362305,0.25644296407699585
1740006948150892300,12.438892333984375,-3.719273567199707,0.49132445454597473,0.300812304019928
1740006948160874200,12.448874267578125,-3.774146795272827,0.45392489433288574,0.33749309182167053
1740006948170856200,12.458856201171875,-3.7315542697906494,0.39731699228286743,0.3434436619281769
1740006948180837000,12.468837158203126,-3.657749652862549,0.33681583404541016,0.2520999014377594
1740006948190819300,12.4788193359375,-3.6089553833007812,0.3620237112045288,0.04680265858769417
1740006948200801000,12.488801025390625,-3.6707019805908203,0.3998541831970215,-0.20482957363128662
1740006948210783200,12.498783203125,-3.8083906173706055,0.4306674897670746,-0.4520694613456726
1740006948220765200,12.50876513671875,-4.022611141204834,0.48226386308670044,-0.6881762742996216
1740006948230747100,12.5187470703125,-4.263256072998047,0.506287157535553,-0.9275140166282654
1740006948240728000,12.52872802734375,-4.4677839279174805,0.49976402521133423,-1.1752023696899414
1740006948250710300,12.538710205078125,-4.580026626586914,0.445721298456192,-1.417695164680481
