time,seconds_elapsed,z,y,x
1740251542189685000,0.03268505859375,-0.4610443115234375,-0.2828826904296875,0.5647430419921875
1740251542199666700,0.042666748046875,-0.265533447265625,-0.1882781982421875,0.740020751953125
1740251542209649000,0.05264892578125,-0.154754638671875,-0.030548095703125,0.890411376953125
1740251542219630600,0.062630615234375,-0.2928924560546875,0.0184173583984375,0.71630859375
1740251542229612800,0.07261279296875,-0.4031524658203125,-0.1134796142578125,0.475067138671875
1740251542239593700,0.08259375,-0.300872802734375,-0.18450927734375,0.5002593994140625
1740251542249576000,0.092575927734375,-0.364654541015625,-0.3160400390625,0.342864990234375
1740251542259557600,0.1025576171875,-0.466583251953125,-0.5848236083984375,0.1912841796875
1740251542269539800,0.112539794921875,-0.76141357421875,-1.0102081298828125,-0.27777099609375
1740251542279521800,0.122521728515625,-0.7835235595703125,-0.731964111328125,-0.2359619140625
1740251542289503000,0.1325029296875,-0.455596923828125,-0.309234619140625,0.1025848388671875
1740251542299484700,0.142484619140625,-0.38433837890625,-0.2404327392578125,0.15472412109375
1740251542309467000,0.152466796875,-0.513946533203125,-0.329193115234375,-0.23150634765625
1740251542319448800,0.16244873046875,-0.646087646484375,-0.4840850830078125,-0.5168304443359375
1740251542329429800,0.1724296875,-0.7044525146484375,-0.5521240234375,-0.216796875
1740251542339411700,0.18241162109375,-0.881500244140625,-0.612823486328125,-0.0469970703125
1740251542349394000,0.192393798828125,-0.8416900634765625,-0.3979034423828125,0.2394256591796875
1740251542359375600,0.202375732421875,-0.634521484375,-0.175933837890625,0.2845611572265625
1740251542369357800,0.21235791015625,-0.5144195556640625,-0.1377716064453125,0.0713653564453125
1740251542379338800,0.2223388671875,-0.5274658203125,-0.0912628173828125,-0.086029052734375
1740251542389321000,0.232321044921875,-0.56414794921875,-0.011505126953125,-0.062286376953125
1740251542399302700,0.242302734375,-0.5915069580078125,0.0412750244140625,0.0611419677734375
1740251542409284900,0.252284912109375,-0.8762664794921875,0.02392578125,0.123260498046875
1740251542419266800,0.262266845703125,-0.8018646240234375,-0.0419769287109375,0.3015289306640625
1740251542429247700,0.272247802734375,-0.753387451171875,-0.031768798828125,0.3578338623046875
1740251542439229700,0.282229736328125,-0.7104644775390625,0.047119140625,0.377197265625
1740251542449212000,0.2922119140625,-0.673583984375,0.117462158203125,0.3914337158203125
1740251542459193600,0.302193603515625,-0.8414306640625,0.1190338134765625,0.4908447265625
1740251542469175800,0.31217578125,-0.9387359619140625,0.1190643310546875,0.50048828125
1740251542479156700,0.32215673828125,-0.879241943359375,0.1673126220703125,0.3982391357421875
1740251542489139000,0.332138916015625,-0.87701416015625,0.1608428955078125,0.4495391845703125
1740251542499120600,0.34212060546875,-1.01605224609375,0.1546478271484375,0.4883575439453125
1740251542509102800,0.352102783203125,-1.2114410400390625,0.2147369384765625,0.4351654052734375
1740251542519085000,0.3620849609375,-1.3016815185546875,0.32861328125,0.3982391357421875
1740251542529065700,0.372065673828125,-1.297698974609375,0.45770263671875,0.45843505859375
1740251542539047700,0.382047607421875,-1.27752685546875,0.560028076171875,0.6165771484375
1740251542549030000,0.39202978515625,-1.3559112548828125,0.63665771484375,0.8010101318359375
1740251542559011800,0.40201171875,-1.2689056396484375,0.6659088134765625,0.9898223876953125
1740251542568993800,0.411993896484375,-1.1219635009765625,0.424041748046875,0.6678466796875
1740251542578974700,0.421974609375,-0.8790435791015625,0.176910400390625,0.379180908203125
1740251542588957000,0.43195703125,-0.6631011962890625,-0.0057373046875,0.262359619140625
1740251542598938600,0.441938720703125,-0.56085205078125,-0.1195831298828125,0.20703125
1740251542608920800,0.4519208984375,-0.4324188232421875,-0.1215972900390625,0.4892120361328125
1740251542618901800,0.46190185546875,-0.400421142578125,-0.111083984375,0.9210052490234375
1740251542628883700,0.4718837890625,-0.5714569091796875,-0.112213134765625,1.3681640625
1740251542638865700,0.48186572265625,-0.71636962890625,-0.2487335205078125,1.5082550048828125
1740251542648848000,0.491847900390625,-0.7618560791015625,-0.3018951416015625,1.46685791015625
1740251542658829600,0.50182958984375,-0.6969451904296875,-0.1935577392578125,1.30157470703125
1740251542668810800,0.511810791015625,-0.569549560546875,-0.0564422607421875,1.131317138671875
1740251542678792700,0.521792724609375,-0.49835205078125,-0.0130615234375,1.005828857421875
1740251542688775000,0.53177490234375,-0.4816741943359375,0.00482177734375,0.858184814453125
1740251542698756600,0.541756591796875,-0.448822021484375,0.050384521484375,0.7618255615234375
1740251542708738800,0.55173876953125,-0.40631103515625,0.073089599609375,0.7011260986328125
1740251542718719700,0.5617197265625,-0.3926239013671875,0.08050537109375,0.670501708984375
1740251542728702000,0.571701904296875,-0.449859619140625,0.127960205078125,0.67413330078125
1740251542738683600,0.58168359375,-0.589508056640625,0.2041473388671875,0.763336181640625
1740251542748665900,0.591665771484375,-0.7420654296875,0.3029022216796875,0.8127593994140625
1740251542758647800,0.601647705078125,-0.850982666015625,0.420318603515625,0.7598419189453125
1740251542768628700,0.611628662109375,-0.8473663330078125,0.4551239013671875,0.6911773681640625
1740251542778610700,0.621610595703125,-0.7543487548828125,0.4538421630859375,0.70159912109375
1740251542788593000,0.631593017578125,-0.669921875,0.43798828125,0.70794677734375
1740251542798574600,0.64157470703125,-0.63555908203125,0.3882598876953125,0.703582763671875
1740251542808556800,0.651556884765625,-0.6535491943359375,0.3584747314453125,0.68194580078125
1740251542818537700,0.661537841796875,-0.6522979736328125,0.3564300537109375,0.7126922607421875
1740251542828520000,0.67152001953125,-0.6129302978515625,0.34820556640625,0.83453369140625
1740251542838501600,0.681501708984375,-0.5199737548828125,0.3404998779296875,0.9464569091796875
1740251542848483800,0.69148388671875,-0.3842010498046875,0.323883056640625,0.9909210205078125
1740251542858465800,0.7014658203125,-0.2500762939453125,0.29547119140625,0.974609375
1740251542868446700,0.71144677734375,-0.1357269287109375,0.2498626708984375,0.93731689453125
1740251542878428700,0.7214287109375,-0.0196075439453125,0.223876953125,0.9522552490234375
1740251542888411000,0.731410888671875,0.072723388671875,0.24432373046875,1.0039520263671875
1740251542898392600,0.741392578125,0.1125640869140625,0.338623046875,1.01898193359375
1740251542908374800,0.751374755859375,0.051605224609375,0.4337005615234375,1.1320037841796875
1740251542918355700,0.761355712890625,0.01275634765625,0.5064544677734375,1.2259979248046875
1740251542928338000,0.771337890625,-0.0007171630859375,0.544158935546875,1.2220916748046875
1740251542938319600,0.781319580078125,-0.0465087890625,0.524017333984375,1.223663330078125
1740251542948301800,0.7913017578125,-0.03656005859375,0.4983978271484375,1.2360687255859375
1740251542958283800,0.80128369140625,0.0169525146484375,0.5026702880859375,1.2507781982421875
1740251542968264700,0.8112646484375,0.081146240234375,0.5469512939453125,1.270172119140625
1740251542978246700,0.82124658203125,0.1550750732421875,0.6167144775390625,1.2425384521484375
1740251542988228900,0.831228759765625,0.239593505859375,0.66900634765625,1.1970062255859375
1740251542998210600,0.84121044921875,0.3532562255859375,0.71527099609375,1.1677703857421875
1740251543008192800,0.85119287109375,0.4580230712890625,0.7492218017578125,1.17205810546875
1740251543018173700,0.861173583984375,0.5032806396484375,0.7500457763671875,1.223724365234375
1740251543028156000,0.871156005859375,0.4658050537109375,0.762603759765625,1.2766265869140625
1740251543038137600,0.8811376953125,0.416961669921875,0.826507568359375,1.2897186279296875
1740251543048119800,0.891119873046875,0.3720855712890625,0.9202423095703125,1.2505035400390625
1740251543058102000,0.90110205078125,0.3141021728515625,1.0018310546875,1.1865081787109375
1740251543068082700,0.911082763671875,0.262451171875,1.0411224365234375,1.1053466796875
1740251543078064600,0.921064697265625,0.2000732421875,1.0193939208984375,1.0338287353515625
1740251543088046800,0.931046875,0.140472412109375,1.0088653564453125,1.0161895751953125
1740251543098028800,0.94102880859375,0.112213134765625,1.0254364013671875,1.0385589599609375
1740251543108010800,0.9510107421875,0.114715576171875,1.04937744140625,1.0980224609375
1740251543117991700,0.96099169921875,0.1494293212890625,1.1070404052734375,1.1862030029296875
1740251543127974000,0.970973876953125,0.1721954345703125,1.1390228271484375,1.2028045654296875
1740251543137955600,0.98095556640625,0.160125732421875,1.1060333251953125,1.1431121826171875
1740251543147937800,0.990937744140625,0.1362457275390625,1.0064544677734375,1.01605224609375
1740251543157920000,1.000919921875,0.087615966796875,0.89080810546875,0.8784027099609375
1740251543167901700,1.010901611328125,0.0328369140625,0.7715606689453125,0.768707275390625
1740251543177882600,1.020882568359375,-0.030059814453125,0.631744384765625,0.7072906494140625
1740251543187864800,1.03086474609375,-0.0955963134765625,0.4975433349609375,0.675445556640625
1740251543197846800,1.0408466796875,-0.1425323486328125,0.4176483154296875,0.6774749755859375
1740251543207828700,1.050828857421875,-0.199859619140625,0.3680419921875,0.7756195068359375
1740251543217811000,1.06081103515625,-0.2427215576171875,0.313018798828125,0.92547607421875
1740251543227792000,1.0707919921875,-0.2188262939453125,0.254150390625,1.0616302490234375
1740251543237773800,1.08077392578125,-0.1689300537109375,0.1885223388671875,1.194366455078125
1740251543247755800,1.090755859375,-0.1056060791015625,0.0951080322265625,1.2616119384765625
1740251543257738000,1.100738037109375,-0.0778961181640625,-0.0142364501953125,1.195648193359375
1740251543267719700,1.1107197265625,-0.1096649169921875,-0.0884552001953125,1.0774688720703125
1740251543277700600,1.12070068359375,-0.135498046875,-0.10528564453125,1.019012451171875
1740251543287682800,1.130682861328125,-0.1285552978515625,-0.0725250244140625,1.0123138427734375
1740251543297664800,1.140664794921875,-0.1062469482421875,-0.0247344970703125,1.015960693359375
1740251543307646700,1.150646728515625,-0.080657958984375,0.0203399658203125,1.0149993896484375
1740251543317629000,1.16062890625,-0.0518951416015625,0.0600738525390625,1.00738525390625
1740251543327609900,1.17060986328125,-0.0418243408203125,0.0795440673828125,1.0366668701171875
1740251543337591800,1.180591796875,-0.04071044921875,0.080169677734375,1.064422607421875
1740251543347573800,1.19057373046875,-0.019439697265625,0.08477783203125,1.0691070556640625
1740251543357556000,1.200555908203125,-0.0045013427734375,0.0990447998046875,1.0294036865234375
1740251543367537700,1.21053759765625,-0.002960205078125,0.1131134033203125,0.9440765380859375
1740251543377518800,1.220518798828125,-0.01300048828125,0.1096038818359375,0.8583831787109375
1740251543387500800,1.230500732421875,-0.0326385498046875,0.0980377197265625,0.7835540771484375
1740251543397482800,1.240482666015625,-0.0009307861328125,0.0807647705078125,0.7024383544921875
1740251543407464700,1.250464599609375,0.04736328125,0.1004791259765625,0.692108154296875
1740251543417447000,1.260447021484375,0.0440521240234375,0.15277099609375,0.7683258056640625
1740251543427427800,1.270427734375,0.023101806640625,0.1884002685546875,0.8591156005859375
1740251543437409800,1.280409912109375,0.0006256103515625,0.2086639404296875,0.96624755859375
1740251543447391700,1.290391845703125,-0.0066680908203125,0.2412261962890625,1.07745361328125
1740251543457374000,1.3003740234375,-0.0085601806640625,0.28546142578125,1.139495849609375
1740251543467355600,1.310355712890625,-0.010650634765625,0.324188232421875,1.1225128173828125
1740251543477337900,1.320337890625,-0.021484375,0.344390869140625,1.0602264404296875
1740251543487318800,1.33031884765625,-0.0255126953125,0.3809661865234375,1.0047454833984375
1740251543497300700,1.34030078125,-0.0592193603515625,0.449432373046875,0.9776153564453125
1740251543507282700,1.35028271484375,-0.11053466796875,0.488800048828125,0.9707794189453125
1740251543517265000,1.360264892578125,-0.1623992919921875,0.495574951171875,1.0040435791015625
1740251543527246600,1.37024658203125,-0.1597900390625,0.4875640869140625,1.05267333984375
1740251543537227800,1.380227783203125,-0.1537628173828125,0.505767822265625,1.1894989013671875
1740251543547209700,1.390209716796875,-0.1184234619140625,0.4719390869140625,1.2636260986328125
1740251543557192000,1.40019189453125,-0.0632781982421875,0.44500732421875,1.332763671875
1740251543567173600,1.410173583984375,-0.0074615478515625,0.4883575439453125,1.405609130859375
1740251543577155800,1.42015576171875,0.0271453857421875,0.5693206787109375,1.46148681640625
1740251543587136800,1.43013671875,0.036468505859375,0.6493377685546875,1.4619903564453125
1740251543597119000,1.440118896484375,0.0157928466796875,0.722015380859375,1.4287109375
1740251543607100700,1.4501005859375,-0.03045654296875,0.80133056640625,1.4072113037109375
1740251543617083000,1.460082763671875,-0.086883544921875,0.864898681640625,1.4140625
1740251543627064800,1.47006494140625,-0.1307220458984375,0.89642333984375,1.4550018310546875
1740251543637045800,1.480045654296875,-0.1470794677734375,0.9249420166015625,1.49365234375
1740251543647028000,1.490028076171875,-0.1302490234375,0.9372406005859375,1.5365142822265625
1740251543657010000,1.500010009765625,-0.1076812744140625,0.931610107421875,1.5854949951171875
1740251543666991900,1.509991943359375,-0.0880584716796875,0.913360595703125,1.6201934814453125
1740251543676973800,1.519973876953125,-0.0522308349609375,0.8995819091796875,1.6781158447265625
1740251543686955000,1.529955078125,0.0012969970703125,0.875244140625,1.71978759765625
1740251543696937000,1.53993701171875,0.0352020263671875,0.844696044921875,1.7196807861328125
1740251543706919000,1.5499189453125,0.049774169921875,0.7989501953125,1.6602783203125
1740251543716900900,1.55990087890625,0.0500335693359375,0.7148284912109375,1.5526275634765625
1740251543726882800,1.5698828125,0.0603179931640625,0.6157684326171875,1.4128265380859375
1740251543736864800,1.57986474609375,0.0796966552734375,0.531524658203125,1.2957000732421875
1740251543746846000,1.589845947265625,0.095611572265625,0.4712371826171875,1.217376708984375
1740251543756828000,1.599827880859375,0.1072998046875,0.4425048828125,1.1874237060546875
1740251543766809900,1.609809814453125,0.12933349609375,0.4477691650390625,1.18487548828125
1740251543776791800,1.619791748046875,0.15692138671875,0.4691925048828125,1.169708251953125
1740251543786774000,1.62977392578125,0.1740570068359375,0.4931793212890625,1.13037109375
1740251543796755000,1.6397548828125,0.172882080078125,0.515960693359375,1.0823974609375
1740251543806737000,1.64973681640625,0.1636962890625,0.5349884033203125,1.032196044921875
1740251543816718800,1.65971875,0.1508636474609375,0.5394134521484375,0.973846435546875
1740251543826700800,1.66970068359375,0.139678955078125,0.5313720703125,0.8874053955078125
1740251543836682800,1.679682861328125,0.125091552734375,0.512176513671875,0.8114471435546875
1740251543846664000,1.689663818359375,0.103118896484375,0.4825439453125,0.7498779296875
1740251543856646000,1.69964599609375,0.0816192626953125,0.4488983154296875,0.7005615234375
1740251543866627800,1.7096279296875,0.066925048828125,0.4105224609375,0.6636962890625
1740251543876609800,1.71960986328125,0.064361572265625,0.3780670166015625,0.6568145751953125
1740251543886592000,1.729592041015625,0.0756378173828125,0.3508453369140625,0.6506500244140625
1740251543896574000,1.739573974609375,0.086456298828125,0.312286376953125,0.6414337158203125
1740251543906555000,1.749554931640625,0.0904998779296875,0.2679290771484375,0.6270294189453125
1740251543916536800,1.759536865234375,0.091033935546875,0.2342071533203125,0.619873046875
1740251543926519000,1.76951904296875,0.093414306640625,0.21051025390625,0.6031951904296875
1740251543936500700,1.779500732421875,0.098907470703125,0.187744140625,0.5738372802734375
1740251543946483000,1.78948291015625,0.101776123046875,0.167510986328125,0.5540771484375
1740251543956463900,1.7994638671875,0.1025238037109375,0.1505584716796875,0.5311431884765625
1740251543966445800,1.80944580078125,0.0974273681640625,0.1394500732421875,0.507720947265625
1740251543976427800,1.819427734375,0.090576171875,0.132781982421875,0.508270263671875
1740251543986410000,1.829409912109375,0.0875701904296875,0.127593994140625,0.5285491943359375
1740251543996392000,1.839391845703125,0.0897369384765625,0.1353302001953125,0.5497894287109375
1740251544006372900,1.849372802734375,0.090240478515625,0.1536712646484375,0.5717010498046875
1740251544016354800,1.859354736328125,0.084014892578125,0.1806488037109375,0.6012725830078125
1740251544026337000,1.8693369140625,0.0650787353515625,0.2036285400390625,0.6029052734375
1740251544036319000,1.879319091796875,0.039276123046875,0.1982269287109375,0.5827789306640625
1740251544046301000,1.889301025390625,0.0354156494140625,0.175628662109375,0.566253662109375
1740251544056283000,1.899282958984375,0.0440826416015625,0.177825927734375,0.56793212890625
1740251544066263800,1.909263916015625,0.042388916015625,0.2071380615234375,0.5773162841796875
1740251544076246000,1.91924609375,0.0308685302734375,0.241058349609375,0.611083984375
1740251544086228000,1.92922802734375,0.037628173828125,0.2734527587890625,0.6357421875
1740251544096210000,1.9392099609375,0.0431060791015625,0.3023834228515625,0.6365814208984375
1740251544106192000,1.94919189453125,0.05291748046875,0.3341827392578125,0.645965576171875
1740251544116172800,1.9591728515625,0.0797576904296875,0.3730926513671875,0.661407470703125
1740251544126155000,1.969155029296875,0.0995330810546875,0.42462158203125,0.666107177734375
1740251544136137000,1.979136962890625,0.1021881103515625,0.4631195068359375,0.6684112548828125
1740251544146119000,1.989118896484375,0.1056671142578125,0.4980316162109375,0.6754608154296875
1740251544156100900,1.999100830078125,0.1173553466796875,0.552978515625,0.69525146484375
1740251544166082800,2.009082763671875,0.12109375,0.602569580078125,0.689788818359375
1740251544176064000,2.01906396484375,0.12554931640625,0.6170196533203125,0.6916656494140625
1740251544186046000,2.0290458984375,0.154571533203125,0.620849609375,0.7166900634765625
1740251544196028000,2.03902783203125,0.1949920654296875,0.647125244140625,0.7574462890625
1740251544206009900,2.049009765625,0.2535247802734375,0.712127685546875,0.8309478759765625
1740251544215992000,2.058991943359375,0.2736053466796875,0.7386627197265625,0.88446044921875
1740251544225973000,2.068972900390625,0.271728515625,0.723602294921875,0.935760498046875
1740251544235955000,2.078954833984375,0.2925567626953125,0.748565673828125,1.01129150390625
1740251544245937000,2.08893701171875,0.31280517578125,0.7880706787109375,1.0776214599609375
1740251544255919000,2.098919189453125,0.32965087890625,0.840179443359375,1.1116943359375
1740251544265900800,2.10890087890625,0.3044281005859375,0.860443115234375,1.11737060546875
1740251544275882000,2.118882080078125,0.243682861328125,0.8544464111328125,1.12628173828125
1740251544285864000,2.128864013671875,0.1777191162109375,0.852081298828125,1.190948486328125
1740251544295846000,2.138845947265625,0.0834197998046875,0.841583251953125,1.314208984375
1740251544305827800,2.148827880859375,-0.031951904296875,0.8336334228515625,1.517364501953125
1740251544315810000,2.15881005859375,-0.1046600341796875,0.7968292236328125,1.6882476806640625
1740251544325791700,2.168791748046875,-0.155548095703125,0.7413787841796875,1.7253570556640625
1740251544335773000,2.17877294921875,-0.2019500732421875,0.6633453369140625,1.7801361083984375
1740251544345755000,2.1887548828125,-0.2503814697265625,0.5480804443359375,1.876190185546875
1740251544355737000,2.198737060546875,-0.2857818603515625,0.396728515625,1.99920654296875
1740251544365718800,2.20871875,-0.318359375,0.2223358154296875,2.0787200927734375
1740251544375701000,2.218700927734375,-0.3821563720703125,0.039581298828125,2.1132354736328125
1740251544385682000,2.228681884765625,-0.457916259765625,-0.1090240478515625,2.084014892578125
1740251544395664000,2.238663818359375,-0.45684814453125,-0.2659912109375,1.9515380859375
1740251544405645800,2.248645751953125,-0.4553070068359375,-0.2000732421875,2.0169525146484375
1740251544415628000,2.2586279296875,-0.4264984130859375,-0.1932373046875,1.9897613525390625
1740251544425609700,2.268609619140625,-0.417877197265625,-0.3330535888671875,1.8231353759765625
1740251544435592000,2.278592041015625,-0.427886962890625,-0.3553009033203125,1.7134246826171875
1740251544445572900,2.28857275390625,-0.471954345703125,-0.3099822998046875,1.531158447265625
1740251544455555000,2.29855517578125,-0.4924774169921875,-0.2224578857421875,1.3336334228515625
1740251544465536800,2.308536865234375,-0.4738311767578125,-0.094268798828125,1.1966705322265625
1740251544475519000,2.31851904296875,-0.4337921142578125,0.00750732421875,1.0982513427734375
1740251544485501000,2.3285009765625,-0.3760833740234375,0.061767578125,1.0283203125
1740251544495481900,2.33848193359375,-0.315887451171875,0.0914459228515625,1.01715087890625
1740251544505463800,2.3484638671875,-0.2761993408203125,0.107513427734375,0.98211669921875
1740251544515446000,2.358446044921875,-0.2385711669921875,0.1042633056640625,0.93798828125
1740251544525427700,2.368427734375,-0.2017059326171875,0.0923614501953125,0.893157958984375
1740251544535410000,2.378409912109375,-0.1669464111328125,0.0830230712890625,0.8169097900390625
1740251544545391900,2.388391845703125,-0.1280670166015625,0.078338623046875,0.7349395751953125
1740251544555373000,2.398373046875,-0.1167449951171875,0.075653076171875,0.6601715087890625
1740251544565354800,2.408354736328125,-0.1348419189453125,0.085418701171875,0.603546142578125
1740251544575337000,2.4183369140625,-0.146087646484375,0.069061279296875,0.5814208984375
1740251544585319000,2.42831884765625,-0.1612396240234375,0.050445556640625,0.556060791015625
1740251544595300900,2.43830078125,-0.1893768310546875,0.03692626953125,0.5473175048828125
1740251544605281800,2.44828173828125,-0.2083740234375,0.0328369140625,0.5450286865234375
1740251544615264000,2.458263916015625,-0.2288360595703125,0.0240325927734375,0.5502166748046875
1740251544625245700,2.46824560546875,-0.22259521484375,0.0284881591796875,0.59051513671875
1740251544635228000,2.478227783203125,-0.1610870361328125,0.094482421875,0.6585845947265625
1740251544645209900,2.4882099609375,-0.1397552490234375,0.11102294921875,0.66937255859375
1740251544655191800,2.49819189453125,-0.1270751953125,0.0985565185546875,0.6848297119140625
1740251544665172700,2.5081728515625,-0.127960205078125,0.0706329345703125,0.7292938232421875
1740251544675155000,2.518155029296875,-0.15863037109375,0.059539794921875,0.80828857421875
1740251544685137000,2.528136962890625,-0.2182159423828125,0.0487823486328125,0.9016876220703125
1740251544695118800,2.538118896484375,-0.310943603515625,0.0014801025390625,0.9844970703125
1740251544705100800,2.548100830078125,-0.45440673828125,-0.05718994140625,1.05401611328125
1740251544715082000,2.55808203125,-0.617645263671875,-0.081268310546875,1.05096435546875
1740251544725063700,2.568063720703125,-0.6537017822265625,-0.091827392578125,0.97259521484375
1740251544735046000,2.5780458984375,-0.6163787841796875,-0.1146240234375,1.055755615234375
1740251544745027800,2.58802783203125,-0.593719482421875,-0.12359619140625,1.2577972412109375
1740251544755009800,2.598009765625,-0.5921478271484375,-0.0895538330078125,1.4266510009765625
1740251544764991700,2.60799169921875,-0.6082000732421875,-0.0443267822265625,1.5127716064453125
1740251544774973000,2.617972900390625,-0.6463775634765625,0.0246429443359375,1.4943084716796875
1740251544784955000,2.627954833984375,-0.66339111328125,0.0931854248046875,1.4035186767578125
1740251544794936800,2.637936767578125,-0.63616943359375,0.1271209716796875,1.245208740234375
1740251544804918800,2.647918701171875,-0.607574462890625,0.1360015869140625,1.132476806640625
1740251544814901000,2.65790087890625,-0.63348388671875,0.149444580078125,1.194183349609375
1740251544824882700,2.667882568359375,-0.7315673828125,0.1722412109375,1.413970947265625
1740251544834863900,2.67786376953125,-0.8326263427734375,0.1976470947265625,1.7092437744140625
1740251544844845800,2.687845703125,-0.84832763671875,0.2368316650390625,1.914276123046875
1740251544854827800,2.697827880859375,-0.77606201171875,0.246337890625,1.91717529296875
1740251544864809700,2.707809814453125,-0.631744384765625,0.22918701171875,1.8400115966796875
1740251544874792000,2.7177919921875,-0.4708404541015625,0.244415283203125,1.707977294921875
1740251544884772900,2.72777294921875,-0.3600921630859375,0.2897186279296875,1.5750732421875
1740251544894754800,2.7377548828125,-0.268951416015625,0.3271942138671875,1.4443359375
1740251544904736800,2.74773681640625,-0.160491943359375,0.3516998291015625,1.31817626953125
1740251544914719000,2.757718994140625,-0.07098388671875,0.376190185546875,1.242767333984375
1740251544924700700,2.76770068359375,-0.0474090576171875,0.3896331787109375,1.2602996826171875
1740251544934683000,2.777682861328125,-0.098236083984375,0.39599609375,1.34283447265625
1740251544944663800,2.787663818359375,-0.1488189697265625,0.4211578369140625,1.45941162109375
1740251544954645800,2.797645751953125,-0.1612091064453125,0.4495391845703125,1.5069122314453125
1740251544964627700,2.807627685546875,-0.155853271484375,0.4598541259765625,1.5146942138671875
1740251544974610000,2.81760986328125,-0.1429290771484375,0.4780731201171875,1.486846923828125
1740251544984591600,2.827591552734375,-0.1025543212890625,0.498321533203125,1.442901611328125
1740251544994572800,2.83757275390625,-0.0494384765625,0.5102386474609375,1.3728179931640625
1740251545004554800,2.8475546875,-0.0105438232421875,0.501617431640625,1.2921295166015625
1740251545014537000,2.857536865234375,0.023895263671875,0.4712677001953125,1.2286529541015625
1740251545024518700,2.8675185546875,0.07611083984375,0.4437713623046875,1.179901123046875
1740251545034500900,2.8775009765625,0.1256561279296875,0.4208526611328125,1.141021728515625
1740251545044482800,2.88748291015625,0.15966796875,0.4062042236328125,1.11175537109375
1740251545054463700,2.897463623046875,0.1712188720703125,0.4100341796875,1.12896728515625
1740251545064445700,2.90744580078125,0.1568603515625,0.4189910888671875,1.1197967529296875
1740251545074428000,2.917427978515625,0.1080169677734375,0.3842620849609375,1.06524658203125
1740251545084409600,2.92740966796875,0.0429840087890625,0.3453216552734375,1.0322723388671875
1740251545094391800,2.937391845703125,-0.002685546875,0.3217315673828125,1.028350830078125
1740251545104374000,2.9473740234375,-0.0050506591796875,0.3172760009765625,1.03350830078125
1740251545114355000,2.95735498046875,0.009735107421875,0.32958984375,1.0368499755859375
1740251545124336600,2.967336669921875,0.0319671630859375,0.3421478271484375,1.0400848388671875
1740251545134318800,2.97731884765625,0.0598297119140625,0.3462982177734375,1.0416107177734375
1740251545144301000,2.987301025390625,0.0736541748046875,0.3510589599609375,1.0255584716796875
1740251545154282800,2.99728271484375,0.070648193359375,0.3602447509765625,0.9968414306640625
1740251545164263700,3.007263671875,0.056610107421875,0.363800048828125,0.96966552734375
1740251545174246000,3.017245849609375,0.0410919189453125,0.3603057861328125,0.9438934326171875
1740251545184227600,3.0272275390625,0.0259857177734375,0.360595703125,0.9280242919921875
1740251545194209800,3.037209716796875,0.0147247314453125,0.3702545166015625,0.925628662109375
1740251545204192000,3.04719189453125,0.007049560546875,0.384033203125,0.9335479736328125
1740251545214173700,3.057173583984375,-0.002532958984375,0.407135009765625,0.945709228515625
1740251545224154600,3.067154541015625,-0.0215606689453125,0.431884765625,0.952545166015625
1740251545234136800,3.07713671875,-0.0453033447265625,0.4260101318359375,0.936798095703125
1740251545244119000,3.087119140625,-0.0658111572265625,0.40118408203125,0.924407958984375
1740251545254100700,3.097100830078125,-0.0798187255859375,0.4462890625,0.9548797607421875
1740251545264083000,3.1070830078125,-0.0822601318359375,0.503570556640625,0.9931793212890625
1740251545274065000,3.11706494140625,-0.07830810546875,0.5671539306640625,1.0293121337890625
1740251545284045800,3.1270458984375,-0.065216064453125,0.6434173583984375,1.038421630859375
1740251545294027800,3.13702783203125,-0.031585693359375,0.7086334228515625,0.98028564453125
1740251545304010000,3.147010009765625,-0.0289154052734375,0.6977386474609375,0.865875244140625
1740251545313991700,3.15699169921875,-0.061309814453125,0.62109375,0.7025909423828125
1740251545323974000,3.166973876953125,-0.0827484130859375,0.559295654296875,0.5671539306640625
1740251545333954800,3.176954833984375,-0.0712432861328125,0.5435943603515625,0.4925384521484375
1740251545343937000,3.18693701171875,-0.03961181640625,0.57269287109375,0.475677490234375
1740251545353918700,3.196918701171875,0.0175018310546875,0.610382080078125,0.4519195556640625
1740251545363901000,3.20690087890625,0.075836181640625,0.6213531494140625,0.42138671875
1740251545373883000,3.2168828125,0.115692138671875,0.6105194091796875,0.371673583984375
1740251545383864800,3.22686474609375,0.1461181640625,0.596405029296875,0.321014404296875
1740251545393845800,3.236845703125,0.1697845458984375,0.59564208984375,0.293701171875
1740251545403828000,3.246827880859375,0.196319580078125,0.593841552734375,0.2703094482421875
1740251545413809700,3.2568095703125,0.203857421875,0.5994110107421875,0.279266357421875
1740251545423791900,3.2667919921875,0.200653076171875,0.5835113525390625,0.2901763916015625
1740251545433773800,3.27677392578125,0.19580078125,0.5470733642578125,0.328094482421875
1740251545443755800,3.286755859375,0.1853485107421875,0.519622802734375,0.4073486328125
1740251545453736700,3.29673681640625,0.170074462890625,0.5180816650390625,0.5289306640625
1740251545463719000,3.306718994140625,0.1568450927734375,0.5363616943359375,0.6696929931640625
1740251545473700900,3.316700927734375,0.1512451171875,0.5606536865234375,0.816650390625
1740251545483682800,3.326682861328125,0.1513824462890625,0.5986480712890625,0.9847564697265625
1740251545493664800,3.336664794921875,0.156280517578125,0.65155029296875,1.14532470703125
1740251545503647000,3.34664697265625,0.1581573486328125,0.7218170166015625,1.2891387939453125
1740251545513627600,3.356627685546875,0.1475982666015625,0.7887420654296875,1.39764404296875
1740251545523609900,3.36660986328125,0.119384765625,0.8333587646484375,1.47625732421875
1740251545533591800,3.376591796875,0.08758544921875,0.86712646484375,1.5302276611328125
1740251545543573800,3.38657373046875,0.0644378662109375,0.9091644287109375,1.5876617431640625
1740251545553555700,3.3965556640625,0.0420989990234375,0.9465484619140625,1.647064208984375
1740251545563538000,3.406537841796875,0.019744873046875,0.9741363525390625,1.7161102294921875
1740251545573518800,3.416518798828125,0.0020904541015625,0.9861907958984375,1.7805633544921875
1740251545583500800,3.426500732421875,-0.0196075439453125,0.986114501953125,1.838775634765625
1740251545593482800,3.436482666015625,-0.0579833984375,0.963134765625,1.843597412109375
1740251545603465000,3.44646484375,-0.1094818115234375,0.90045166015625,1.809478759765625
1740251545613446700,3.45644677734375,-0.162750244140625,0.827667236328125,1.7790069580078125
1740251545623428900,3.466428955078125,-0.207275390625,0.754852294921875,1.7729034423828125
1740251545633410600,3.47641064453125,-0.229217529296875,0.691986083984375,1.7778778076171875
1740251545643392500,3.486392578125,-0.2210845947265625,0.6297607421875,1.780609130859375
1740251545653374700,3.496374755859375,-0.194183349609375,0.558929443359375,1.778717041015625
1740251545663356400,3.5063564453125,-0.1551055908203125,0.476531982421875,1.754486083984375
1740251545673338600,3.516338623046875,-0.124267578125,0.4005889892578125,1.7175445556640625
1740251545683320600,3.526320556640625,-0.0966949462890625,0.3365936279296875,1.671142578125
1740251545693301800,3.5363017578125,-0.0653839111328125,0.292388916015625,1.62445068359375
1740251545703283500,3.546283447265625,-0.02313232421875,0.274200439453125,1.552276611328125
1740251545713265700,3.556265625,0.0120849609375,0.2391357421875,1.4711761474609375
1740251545723247600,3.56624755859375,0.029205322265625,0.209136962890625,1.377777099609375
1740251545733229600,3.5762294921875,0.02642822265625,0.212188720703125,1.288177490234375
1740251545743211500,3.58621142578125,0.0293121337890625,0.2400054931640625,1.198577880859375
1740251545753192700,3.596192626953125,0.0344390869140625,0.2523040771484375,1.13458251953125
1740251545763174700,3.606174560546875,0.0482940673828125,0.2451629638671875,1.08697509765625
1740251545773156600,3.616156494140625,0.07281494140625,0.2307586669921875,1.0553131103515625
1740251545783138600,3.626138671875,0.111328125,0.2324981689453125,1.0566864013671875
1740251545793120500,3.63612060546875,0.158905029296875,0.23565673828125,1.0552215576171875
1740251545803102500,3.6461025390625,0.200592041015625,0.2338409423828125,1.0372161865234375
1740251545813083600,3.656083740234375,0.2232208251953125,0.240814208984375,1.01580810546875
1740251545823065600,3.666065673828125,0.2227020263671875,0.255859375,1.0031585693359375
1740251545833047600,3.676047607421875,0.2050628662109375,0.2566375732421875,1.0103912353515625
1740251545843029500,3.686029541015625,0.1870269775390625,0.244293212890625,1.0437774658203125
1740251545853011700,3.69601171875,0.1856689453125,0.238677978515625,1.11444091796875
1740251545862993400,3.705993408203125,0.1813201904296875,0.2459869384765625,1.20361328125
1740251545872974600,3.715974609375,0.1592559814453125,0.24774169921875,1.2734222412109375
1740251545882956500,3.72595654296875,0.1141815185546875,0.2298431396484375,1.3095245361328125
1740251545892938500,3.7359384765625,0.0556488037109375,0.19683837890625,1.3482513427734375
1740251545902920400,3.74592041015625,0.0089569091796875,0.159637451171875,1.4114227294921875
1740251545912902700,3.755902587890625,-0.007293701171875,0.12286376953125,1.4991607666015625
1740251545922883600,3.765883544921875,0.0086669921875,0.0979461669921875,1.5959014892578125
1740251545932865500,3.775865478515625,0.0344085693359375,0.10064697265625,1.6980133056640625
1740251545942847500,3.785847412109375,0.0633544921875,0.1394805908203125,1.79901123046875
1740251545952829700,3.79582958984375,0.0715484619140625,0.2077178955078125,1.8694000244140625
1740251545962811400,3.805811279296875,0.0621795654296875,0.2868804931640625,1.89080810546875
1740251545972793600,3.815793701171875,0.0568084716796875,0.345184326171875,1.86761474609375
1740251545982775800,3.82577587890625,0.0433349609375,0.36627197265625,1.79638671875
1740251545992756500,3.835756591796875,0.0416107177734375,0.3544921875,1.729278564453125
1740251546002738400,3.845738525390625,0.0596771240234375,0.353271484375,1.6553955078125
1740251546012720600,3.855720703125,0.0795745849609375,0.3839569091796875,1.6150665283203125
1740251546022702300,3.865702392578125,0.0885009765625,0.4416351318359375,1.5992889404296875
1740251546032684500,3.8756845703125,0.0812530517578125,0.51727294921875,1.599578857421875
1740251546042666800,3.885666748046875,0.08770751953125,0.5985107421875,1.620452880859375
1740251546052647700,3.895647705078125,0.0968170166015625,0.674072265625,1.653594970703125
1740251546062629400,3.90562939453125,0.100677490234375,0.7249908447265625,1.688873291015625
1740251546072611600,3.915611572265625,0.1033477783203125,0.7549591064453125,1.699249267578125
1740251546082593800,3.92559375,0.1011962890625,0.7928009033203125,1.7086639404296875
1740251546092575500,3.935575439453125,0.09136962890625,0.865203857421875,1.731201171875
1740251546102557700,3.9455576171875,0.0738525390625,0.9381103515625,1.7478485107421875
1740251546112538600,3.95553857421875,0.03192138671875,0.9765777587890625,1.71453857421875
1740251546122520600,3.9655205078125,-0.0225830078125,0.969390869140625,1.6450958251953125
1740251546132502500,3.97550244140625,-0.0856781005859375,0.9189453125,1.5723876953125
1740251546142484700,3.985484619140625,-0.101593017578125,0.8644866943359375,1.5497894287109375
1740251546152466400,3.995466552734375,-0.069183349609375,0.8373565673828125,1.5349578857421875
1740251546162448600,4.00544873046875,-0.0013427734375,0.821563720703125,1.5075531005859375
1740251546172429600,4.0154296875,0.0666961669921875,0.798919677734375,1.463623046875
1740251546182411800,4.025411865234375,0.102996826171875,0.770721435546875,1.4025421142578125
1740251546192393500,4.0353935546875,0.119598388671875,0.742218017578125,1.332275390625
1740251546202375700,4.045375732421875,0.12628173828125,0.7111358642578125,1.278778076171875
1740251546212357600,4.055357666015625,0.14501953125,0.6818084716796875,1.2530517578125
1740251546222339600,4.065339599609375,0.1792144775390625,0.6624603271484375,1.23321533203125
1740251546232320500,4.075320556640625,0.1999359130859375,0.6486053466796875,1.2239837646484375
1740251546242302700,4.085302734375,0.20989990234375,0.6414337158203125,1.2266082763671875
1740251546252284400,4.095284423828125,0.20001220703125,0.6295013427734375,1.2023162841796875
1740251546262266600,4.1052666015625,0.1678466796875,0.607391357421875,1.1517333984375
1740251546272248600,4.11524853515625,0.1320953369140625,0.584320068359375,1.104339599609375
1740251546282230500,4.12523046875,0.1053314208984375,0.5647430419921875,1.0690765380859375
1740251546292211500,4.13521142578125,0.0907135009765625,0.5555877685546875,1.05499267578125
1740251546302193700,4.145193603515625,0.08624267578125,0.5538330078125,1.050933837890625
1740251546312175600,4.155175537109375,0.0837860107421875,0.5475921630859375,1.02752685546875
1740251546322157600,4.165157470703125,0.0783843994140625,0.53448486328125,0.9972381591796875
1740251546332139500,4.175139404296875,0.0676116943359375,0.5176849365234375,0.9640045166015625
1740251546342121700,4.185121826171875,0.0487518310546875,0.5025177001953125,0.931884765625
1740251546352103400,4.195103515625,0.0323028564453125,0.4901123046875,0.90887451171875
1740251546362084600,4.205084716796875,0.0334930419921875,0.4776153564453125,0.89117431640625
1740251546372066600,4.215066650390625,0.04736328125,0.472259521484375,0.883636474609375
1740251546382048500,4.225048583984375,0.063751220703125,0.4806060791015625,0.8781280517578125
1740251546392030500,4.235030517578125,0.077239990234375,0.492523193359375,0.871612548828125
1740251546402012700,4.2450126953125,0.080078125,0.5211944580078125,0.866180419921875
1740251546411994400,4.254994384765625,0.0718231201171875,0.5454864501953125,0.8188629150390625
1740251546421975600,4.2649755859375,0.049346923828125,0.541107177734375,0.745819091796875
1740251546431957500,4.27495751953125,0.0180206298828125,0.515045166015625,0.65521240234375
1740251546441939700,4.284939697265625,-0.012603759765625,0.49237060546875,0.5863189697265625
1740251546451921400,4.29492138671875,-0.02508544921875,0.49224853515625,0.5441741943359375
1740251546461903600,4.304903564453125,-0.014923095703125,0.5053558349609375,0.5098114013671875
1740251546471885600,4.314885498046875,0.0140380859375,0.524078369140625,0.48236083984375
1740251546481867500,4.324867431640625,0.0420074462890625,0.540496826171875,0.44708251953125
1740251546491848400,4.334848388671875,0.0545654296875,0.5508270263671875,0.3994903564453125
1740251546501830700,4.34483056640625,0.0608367919921875,0.566009521484375,0.35198974609375
1740251546511812600,4.3548125,0.0515899658203125,0.5785064697265625,0.290771484375
1740251546521794600,4.364794677734375,0.03448486328125,0.582794189453125,0.2386322021484375
1740251546531776800,4.37477685546875,0.0279693603515625,0.573455810546875,0.1788787841796875
1740251546541758500,4.384758544921875,0.032867431640625,0.5390167236328125,0.114349365234375
1740251546551739400,4.394739501953125,0.04962158203125,0.5035552978515625,0.075531005859375
1740251546561721600,4.4047216796875,0.074798583984375,0.476318359375,0.0894927978515625
1740251546571703600,4.41470361328125,0.1062469482421875,0.4567718505859375,0.168304443359375
1740251546581685500,4.424685546875,0.1377410888671875,0.4695281982421875,0.30316162109375
1740251546591667700,4.434667724609375,0.1760711669921875,0.5104827880859375,0.46527099609375
1740251546601649400,4.4446494140625,0.2100677490234375,0.5455474853515625,0.6430206298828125
1740251546611631600,4.454631591796875,0.25347900390625,0.55462646484375,0.803802490234375
1740251546621612500,4.464612548828125,0.317657470703125,0.5341796875,0.953460693359375
1740251546631594200,4.47459423828125,0.415740966796875,0.511260986328125,1.14093017578125
1740251546641576000,4.484575927734375,0.53955078125,0.5018463134765625,1.315887451171875
1740251546651558100,4.49455810546875,0.61468505859375,0.549896240234375,1.4319915771484375
1740251546661540400,4.504540283203125,0.573486328125,0.653411865234375,1.52032470703125
1740251546671522000,4.51452197265625,0.4824066162109375,0.7364349365234375,1.5915374755859375
1740251546681503000,4.5245029296875,0.377593994140625,0.7487335205078125,1.5827178955078125
1740251546691485200,4.534485107421875,0.2811737060546875,0.7133941650390625,1.52728271484375
1740251546701467100,4.544467041015625,0.2163543701171875,0.6676025390625,1.5382537841796875
1740251546711449000,4.554448974609375,0.243133544921875,0.6458587646484375,1.709014892578125
1740251546721431300,4.564431396484375,0.3488006591796875,0.683685302734375,1.8567657470703125
1740251546731413200,4.574413330078125,0.4289398193359375,0.7303009033203125,1.948486328125
1740251546741395200,4.584395263671875,0.4644927978515625,0.7516021728515625,1.975250244140625
1740251546751376100,4.594376220703125,0.4459381103515625,0.735321044921875,1.9131927490234375
1740251546761358300,4.6043583984375,0.3803253173828125,0.6949462890625,1.8198394775390625
1740251546771340000,4.614340087890625,0.3122100830078125,0.6578369140625,1.7350006103515625
1740251546781322200,4.624322265625,0.2365264892578125,0.613067626953125,1.656341552734375
1740251546791304200,4.63430419921875,0.1273040771484375,0.5552215576171875,1.6064910888671875
1740251546801286100,4.6442861328125,0.044647216796875,0.5031585693359375,1.5968475341796875
1740251546811267000,4.65426708984375,-0.0092315673828125,0.4844970703125,1.6058197021484375
1740251546821249300,4.664249267578125,-0.0480194091796875,0.51025390625,1.6446075439453125
1740251546831231200,4.674231201171875,-0.049224853515625,0.5289154052734375,1.755035400390625
1740251546841213200,4.684213134765625,-0.0245208740234375,0.520843505859375,1.8325042724609375
1740251546851195100,4.694195068359375,-0.031982421875,0.4961090087890625,1.847625732421875
1740251546861177000,4.704177001953125,-0.0649566650390625,0.4553375244140625,1.8326263427734375
1740251546871159000,4.714158935546875,-0.094635009765625,0.4064788818359375,1.810394287109375
1740251546881140200,4.72414013671875,-0.09442138671875,0.3458099365234375,1.7928009033203125
1740251546891122200,4.7341220703125,-0.072906494140625,0.307403564453125,1.75506591796875
1740251546901104000,4.744104248046875,-0.04443359375,0.2998809814453125,1.7255096435546875
1740251546911086000,4.754086181640625,-0.010772705078125,0.2889556884765625,1.7089080810546875
1740251546921068300,4.764068359375,0.0228271484375,0.2773590087890625,1.64483642578125
1740251546931050000,4.774050048828125,0.0445404052734375,0.26763916015625,1.5543060302734375
1740251546941032200,4.7840322265625,0.062744140625,0.2511749267578125,1.46490478515625
1740251546951013000,4.79401318359375,0.0885772705078125,0.2285003662109375,1.393524169921875
1740251546960995000,4.8039951171875,0.1254119873046875,0.2165985107421875,1.339599609375
1740251546970977000,4.81397705078125,0.1665191650390625,0.2224273681640625,1.3015594482421875
1740251546980959200,4.823959228515625,0.1968536376953125,0.2327117919921875,1.2843017578125
1740251546990941000,4.83394091796875,0.2055206298828125,0.2447357177734375,1.300567626953125
1740251547000923100,4.843923095703125,0.210357666015625,0.2373046875,1.3543548583984375
1740251547010905300,4.8539052734375,0.2115020751953125,0.197235107421875,1.4209747314453125
1740251547020886300,4.86388623046875,0.228729248046875,0.1210174560546875,1.5040283203125
1740251547030868000,4.873867919921875,0.285858154296875,0.0510406494140625,1.5554046630859375
1740251547040850200,4.88385009765625,0.3562774658203125,0.01397705078125,1.5655059814453125
1740251547050832400,4.893832275390625,0.40106201171875,0.007598876953125,1.581451416015625
1740251547060814000,4.90381396484375,0.41937255859375,0.046295166015625,1.6207122802734375
1740251547070796300,4.91379638671875,0.4117584228515625,0.1199798583984375,1.664093017578125
1740251547080777200,4.923777099609375,0.375885009765625,0.1648406982421875,1.6985931396484375
1740251547090759000,4.933759033203125,0.331756591796875,0.1505279541015625,1.7122039794921875
1740251547100741000,4.9437412109375,0.285186767578125,0.1117095947265625,1.7039642333984375
1740251547110723300,4.953723388671875,0.25958251953125,0.084869384765625,1.6887359619140625
1740251547120705000,4.963705078125,0.2657623291015625,0.0628509521484375,1.6650543212890625
1740251547130687200,4.973687255859375,0.2898101806640625,0.0554046630859375,1.619140625
1740251547140669200,4.983669189453125,0.294586181640625,0.075439453125,1.5701751708984375
1740251547150650400,4.993650390625,0.28131103515625,0.116546630859375,1.5430450439453125
1740251547160632000,5.003632080078125,0.26727294921875,0.172637939453125,1.5305023193359375
1740251547170614300,5.0136142578125,0.2424468994140625,0.2383575439453125,1.5318450927734375
1740251547180596200,5.02359619140625,0.2163543701171875,0.319366455078125,1.5384368896484375
1740251547190578200,5.033578125,0.1876678466796875,0.4009246826171875,1.5489349365234375
1740251547200560000,5.04356005859375,0.1645660400390625,0.466766357421875,1.5499420166015625
1740251547210542000,5.0535419921875,0.149688720703125,0.52972412109375,1.550506591796875
1740251547220523000,5.06352294921875,0.1310577392578125,0.58416748046875,1.556915283203125
1740251547230505200,5.073505126953125,0.0976715087890625,0.63800048828125,1.5733489990234375
1740251547240487200,5.083487060546875,0.0704803466796875,0.68212890625,1.5921173095703125
1740251547250469000,5.09346923828125,0.036956787109375,0.72918701171875,1.6109161376953125
1740251547260451000,5.103451171875,0.0012359619140625,0.7898101806640625,1.62982177734375
1740251547270433300,5.113433349609375,-0.039581298828125,0.8250732421875,1.603851318359375
1740251547280415000,5.1234150390625,-0.082794189453125,0.8185882568359375,1.5579986572265625
1740251547290396200,5.133396240234375,-0.116668701171875,0.800048828125,1.531646728515625
1740251547300378000,5.143378173828125,-0.1267242431640625,0.76812744140625,1.5343017578125
1740251547310360300,5.1533603515625,-0.087982177734375,0.7485809326171875,1.545013427734375
1740251547320342000,5.163342041015625,-0.0151824951171875,0.7522430419921875,1.569244384765625
1740251547330324200,5.17332421875,0.0596160888671875,0.770751953125,1.590972900390625
1740251547340306000,5.183305908203125,0.1179351806640625,0.7879791259765625,1.59149169921875
1740251547350288100,5.1932880859375,0.1490936279296875,0.802154541015625,1.5724334716796875
1740251547360269000,5.20326904296875,0.158538818359375,0.7918701171875,1.5198516845703125
1740251547370251300,5.213251220703125,0.1615753173828125,0.7566986083984375,1.466094970703125
1740251547380233000,5.22323291015625,0.176788330078125,0.7309722900390625,1.45111083984375
1740251547390215200,5.233215087890625,0.199798583984375,0.728759765625,1.465850830078125
1740251547400197400,5.243197265625,0.2220306396484375,0.728057861328125,1.4741668701171875
1740251547410179000,5.253178955078125,0.2295684814453125,0.7127532958984375,1.4662017822265625
1740251547420161300,5.263161376953125,0.2275848388671875,0.6861724853515625,1.4242095947265625
1740251547430142200,5.27314208984375,0.2105255126953125,0.655426025390625,1.3558807373046875
1740251547440124200,5.283124267578125,0.180023193359375,0.630950927734375,1.299591064453125
1740251547450106000,5.293106201171875,0.1461334228515625,0.6092681884765625,1.2484893798828125
1740251547460088300,5.30308837890625,0.1220245361328125,0.5778045654296875,1.202484130859375
1740251547470070000,5.313070068359375,0.102447509765625,0.5515899658203125,1.1653594970703125
1740251547480052200,5.32305224609375,0.0769195556640625,0.5424957275390625,1.12823486328125
1740251547490034200,5.3330341796875,0.0430145263671875,0.5407867431640625,1.0924224853515625
1740251547500015400,5.343015380859375,0.001068115234375,0.5402374267578125,1.0550994873046875
1740251547509997000,5.3529970703125,-0.0368499755859375,0.5329437255859375,1.010528564453125
1740251547519979300,5.362979248046875,-0.0625,0.5173187255859375,0.9720306396484375
1740251547529961200,5.372961181640625,-0.06494140625,0.508026123046875,0.9564056396484375
1740251547539943200,5.382943115234375,-0.050750732421875,0.5246124267578125,0.947723388671875
1740251547549925000,5.392925048828125,-0.0296783447265625,0.5446319580078125,0.9368438720703125
1740251547559907000,5.402906982421875,-0.0057830810546875,0.55621337890625,0.914794921875
1740251547569888000,5.412887939453125,0.0227508544921875,0.56787109375,0.899444580078125
1740251547579870200,5.4228701171875,0.0251922607421875,0.584808349609375,0.8905487060546875
1740251547589852200,5.43285205078125,0.0036163330078125,0.5923004150390625,0.8876495361328125
1740251547599834000,5.442834228515625,0.0060272216796875,0.5903167724609375,0.8441314697265625
1740251547609816000,5.452816162109375,0.018890380859375,0.590789794921875,0.7431488037109375
1740251547619798300,5.46279833984375,0.031829833984375,0.5767669677734375,0.636566162109375
1740251547629780200,5.4727802734375,0.03009033203125,0.5529632568359375,0.5330657958984375
1740251547639762200,5.48276220703125,0.0256805419921875,0.536956787109375,0.4424591064453125
1740251547649743400,5.492743408203125,0.0207366943359375,0.5221099853515625,0.365753173828125
1740251547659725300,5.502725341796875,0.023529052734375,0.508514404296875,0.3050384521484375
1740251547669707300,5.512707275390625,0.0321197509765625,0.5032196044921875,0.2621612548828125
1740251547679689200,5.522689208984375,0.060791015625,0.5123443603515625,0.2419281005859375
1740251547689671200,5.532671142578125,0.0840301513671875,0.522552490234375,0.2684326171875
1740251547699653400,5.5426533203125,0.072967529296875,0.5153656005859375,0.3052520751953125
1740251547709635300,5.55263525390625,0.05181884765625,0.4930267333984375,0.3160858154296875
1740251547719616300,5.5626162109375,0.0425872802734375,0.4591522216796875,0.3266448974609375
1740251547729598200,5.57259814453125,0.0341644287109375,0.4368133544921875,0.3590240478515625
1740251547739580400,5.582580322265625,0.0235595703125,0.4405364990234375,0.4076385498046875
1740251547749562400,5.592562255859375,0.0243072509765625,0.47796630859375,0.50323486328125
1740251547759544300,5.60254443359375,0.0464630126953125,0.5128326416015625,0.609832763671875
1740251547769526300,5.6125263671875,0.06781005859375,0.5290985107421875,0.7097015380859375
1740251547779508500,5.622508544921875,0.0886077880859375,0.5564727783203125,0.8115386962890625
1740251547789489200,5.6324892578125,0.1090850830078125,0.594085693359375,0.9067840576171875
1740251547799471400,5.642471435546875,0.107635498046875,0.6414642333984375,0.99993896484375
1740251547809453300,5.652453369140625,0.0828399658203125,0.70916748046875,1.093231201171875
1740251547819435300,5.662435302734375,0.0670013427734375,0.795806884765625,1.2017364501953125
1740251547829417200,5.672417236328125,0.062469482421875,0.8731536865234375,1.3108673095703125
1740251547839399400,5.6823994140625,0.034271240234375,0.92242431640625,1.4252777099609375
1740251547849381000,5.692381103515625,0.0059967041015625,0.9451446533203125,1.517547607421875
1740251547859363300,5.70236328125,-0.0114288330078125,0.9505157470703125,1.5926055908203125
1740251547869344300,5.71234423828125,-0.0267181396484375,0.97589111328125,1.693115234375
1740251547879326500,5.722326416015625,-0.026397705078125,1.0161895751953125,1.7877349853515625
1740251547889308200,5.73230810546875,-0.028778076171875,1.0380096435546875,1.8584136962890625
1740251547899290400,5.742290283203125,-0.032379150390625,1.02130126953125,1.8831787109375
1740251547909272300,5.752272216796875,-0.03497314453125,0.9693450927734375,1.8833465576171875
1740251547919254300,5.762254150390625,-0.0272979736328125,0.9003143310546875,1.8850555419921875
1740251547929236200,5.772236328125,0.0011138916015625,0.832672119140625,1.8797149658203125
1740251547939217400,5.782217529296875,0.0595550537109375,0.768585205078125,1.8725738525390625
1740251547949199000,5.79219921875,0.125701904296875,0.717132568359375,1.8518218994140625
1740251547959181300,5.802181396484375,0.1763763427734375,0.671783447265625,1.826904296875
1740251547969163300,5.812163330078125,0.213714599609375,0.6194915771484375,1.7896270751953125
1740251547979145200,5.822145263671875,0.244232177734375,0.566192626953125,1.72308349609375
1740251547989127400,5.83212744140625,0.259552001953125,0.5297088623046875,1.6585235595703125
1740251547999109400,5.842109375,0.2762908935546875,0.5103759765625,1.59674072265625
1740251548009091300,5.85209130859375,0.2904815673828125,0.483123779296875,1.5168609619140625
1740251548019072300,5.862072265625,0.3039703369140625,0.451171875,1.442169189453125
1740251548029054200,5.87205419921875,0.319976806640625,0.4195098876953125,1.3750457763671875
1740251548039036200,5.8820361328125,0.3318939208984375,0.3941650390625,1.322296142578125
1740251548049018400,5.892018310546875,0.3328094482421875,0.3816375732421875,1.2979736328125
1740251548059000300,5.902000244140625,0.3242034912109375,0.3684539794921875,1.299468994140625
1740251548068982300,5.911982177734375,0.3144989013671875,0.3458404541015625,1.312164306640625
1740251548078964200,5.921964111328125,0.291839599609375,0.32952880859375,1.31353759765625
1740251548088945400,5.9319453125,0.255706787109375,0.3180084228515625,1.3133392333984375
1740251548098927400,5.94192724609375,0.216827392578125,0.3079376220703125,1.3074798583984375
1740251548108909300,5.951909423828125,0.1844940185546875,0.2954254150390625,1.3106689453125
1740251548118891300,5.961891357421875,0.163543701171875,0.2819671630859375,1.3270721435546875
1740251548128873500,5.97187353515625,0.1545562744140625,0.264923095703125,1.3551025390625
1740251548138855200,5.981855224609375,0.157257080078125,0.237396240234375,1.3597869873046875
1740251548148837400,5.99183740234375,0.168701171875,0.2042388916015625,1.36126708984375
1740251548158819000,6.001819091796875,0.1781158447265625,0.1979522705078125,1.3755950927734375
1740251548168800300,6.01180029296875,0.1812591552734375,0.1943817138671875,1.399322509765625
1740251548178782200,6.0217822265625,0.1944732666015625,0.193145751953125,1.4364166259765625
1740251548188764400,6.031764404296875,0.2039031982421875,0.183990478515625,1.4701690673828125
1740251548198746000,6.04174609375,0.21038818359375,0.1576080322265625,1.507720947265625
1740251548208728300,6.051728271484375,0.1996612548828125,0.1151885986328125,1.5004119873046875
1740251548218710300,6.061710205078125,0.1866607666015625,0.082916259765625,1.4962005615234375
1740251548228692200,6.071692138671875,0.175048828125,0.0825653076171875,1.5170440673828125
1740251548238674200,6.081674072265625,0.15478515625,0.1092681884765625,1.547607421875
1740251548248655400,6.0916552734375,0.12896728515625,0.1347503662109375,1.5836334228515625
1740251548258637300,6.10163720703125,0.133819580078125,0.150909423828125,1.62567138671875
1740251548268619300,6.111619384765625,0.168701171875,0.178985595703125,1.6219024658203125
1740251548278601200,6.121601318359375,0.20654296875,0.2037353515625,1.585968017578125
1740251548288583200,6.131583251953125,0.24261474609375,0.21868896484375,1.5380859375
1740251548298565400,6.1415654296875,0.26824951171875,0.23321533203125,1.45965576171875
1740251548308547300,6.15154736328125,0.2653350830078125,0.2523345947265625,1.369354248046875
1740251548318528300,6.1615283203125,0.234832763671875,0.27423095703125,1.31256103515625
1740251548328510200,6.17151025390625,0.19561767578125,0.300262451171875,1.296112060546875
1740251548338492400,6.181492431640625,0.1668701171875,0.309417724609375,1.2846832275390625
1740251548348474400,6.191474365234375,0.1363525390625,0.3172607421875,1.2855987548828125
1740251548358456300,6.201456298828125,0.11383056640625,0.3406219482421875,1.298583984375
1740251548368438300,6.211438232421875,0.090362548828125,0.3811492919921875,1.321319580078125
1740251548378420500,6.22142041015625,0.062530517578125,0.458984375,1.3680572509765625
1740251548388402200,6.231402099609375,0.033966064453125,0.5260772705078125,1.4117889404296875
1740251548398383400,6.24138330078125,0.0027923583984375,0.5835723876953125,1.4687957763671875
1740251548408365300,6.251365234375,-0.0205535888671875,0.6375885009765625,1.521392822265625
1740251548418347300,6.26134716796875,-0.0260467529296875,0.67645263671875,1.5860748291015625
1740251548428329200,6.2713291015625,-0.0240631103515625,0.7065887451171875,1.6420745849609375
1740251548438311400,6.2813115234375,-0.0135345458984375,0.735198974609375,1.68743896484375
1740251548448293000,6.291293212890625,0.0059661865234375,0.7629241943359375,1.7163848876953125
1740251548458275300,6.301275390625,0.0137481689453125,0.7946624755859375,1.7370452880859375
1740251548468257300,6.31125732421875,0.01470947265625,0.815948486328125,1.736663818359375
1740251548478239200,6.3212392578125,0.009185791015625,0.827117919921875,1.727813720703125
1740251548488220200,6.33122021484375,0.0194854736328125,0.8372955322265625,1.730438232421875
1740251548498202400,6.341202392578125,0.0398712158203125,0.8549041748046875,1.7425537109375
1740251548508184300,6.351184326171875,0.0613250732421875,0.877655029296875,1.74432373046875
1740251548518166300,6.361166259765625,0.0700225830078125,0.898284912109375,1.7359466552734375
1740251548528148200,6.371148193359375,0.07159423828125,0.908172607421875,1.7199554443359375
1740251548538130200,6.381130126953125,0.0694122314453125,0.9044189453125,1.68951416015625
1740251548548112400,6.3911123046875,0.07000732421875,0.8974456787109375,1.6566314697265625
1740251548558094300,6.40109423828125,0.0788421630859375,0.8993377685546875,1.628814697265625
1740251548568075300,6.4110751953125,0.0900726318359375,0.8989410400390625,1.6045379638671875
1740251548578057200,6.42105712890625,0.097564697265625,0.8925018310546875,1.583709716796875
1740251548588039400,6.431039306640625,0.1062469482421875,0.8895111083984375,1.5570068359375
1740251548598021400,6.441021484375,0.10302734375,0.888397216796875,1.5201873779296875
1740251548608003300,6.45100341796875,0.08648681640625,0.880279541015625,1.4736175537109375
1740251548617985300,6.4609853515625,0.060577392578125,0.869293212890625,1.41668701171875
1740251548627967200,6.47096728515625,0.0321502685546875,0.850616455078125,1.357818603515625
1740251548637948400,6.480948486328125,-0.0012664794921875,0.830047607421875,1.2901458740234375
1740251548647929300,6.490929443359375,-0.0321044921875,0.7994232177734375,1.219879150390625
1740251548657911600,6.50091162109375,-0.05133056640625,0.767578125,1.1549072265625
1740251548667893800,6.510893798828125,-0.05242919921875,0.7587432861328125,1.1193084716796875
1740251548677875500,6.52087548828125,-0.0489959716796875,0.7621307373046875,1.0776214599609375
1740251548687857700,6.530857666015625,-0.0502471923828125,0.74798583984375,1.0089111328125
1740251548697839600,6.540839599609375,-0.0517730712890625,0.72222900390625,0.9388580322265625
1740251548707821600,6.550821533203125,-0.0447845458984375,0.70428466796875,0.871551513671875
1740251548717803500,6.560803466796875,-0.0360565185546875,0.6943206787109375,0.8050994873046875
1740251548727784700,6.57078466796875,-0.0252227783203125,0.6870574951171875,0.7423553466796875
1740251548737766400,6.580766357421875,-0.0177154541015625,0.6763763427734375,0.6812744140625
1740251548747748600,6.59074853515625,-0.0114898681640625,0.665252685546875,0.6280059814453125
1740251548757730600,6.60073046875,-0.00384521484375,0.6568756103515625,0.5831756591796875
1740251548767712500,6.61071240234375,-0.0022430419921875,0.643707275390625,0.5392303466796875
1740251548777694500,6.620694580078125,0.00433349609375,0.6270751953125,0.4925384521484375
1740251548787676700,6.6306767578125,0.0048370361328125,0.612213134765625,0.4495697021484375
1740251548797658400,6.640658447265625,-0.002349853515625,0.5875244140625,0.4132232666015625
1740251548807639600,6.6506396484375,-0.0113525390625,0.5731658935546875,0.4025421142578125
1740251548817621500,6.66062158203125,-0.013946533203125,0.5713043212890625,0.407928466796875
1740251548827603500,6.670603515625,-0.0088958740234375,0.561676025390625,0.3971710205078125
1740251548837585400,6.68058544921875,-0.014190673828125,0.5668487548828125,0.4089202880859375
1740251548847567600,6.690567626953125,0.0048980712890625,0.5889892578125,0.4220123291015625
1740251548857549300,6.70054931640625,0.0188751220703125,0.6128082275390625,0.4292144775390625
1740251548867531500,6.710531494140625,0.0263671875,0.6208038330078125,0.41253662109375
1740251548877513700,6.720513671875,0.030059814453125,0.602996826171875,0.388916015625
1740251548887495400,6.730495361328125,0.037872314453125,0.58184814453125,0.385528564453125
1740251548897476400,6.740476318359375,0.0559234619140625,0.541717529296875,0.3818817138671875
1740251548907458600,6.75045849609375,0.0689239501953125,0.51776123046875,0.4102783203125
1740251548917440500,6.7604404296875,0.0991668701171875,0.504119873046875,0.4320526123046875
1740251548927422500,6.77042236328125,0.1179046630859375,0.49151611328125,0.4952239990234375
1740251548937404700,6.78040478515625,0.153411865234375,0.50164794921875,0.59625244140625
1740251548947386600,6.79038671875,0.2108154296875,0.5422821044921875,0.720428466796875
1740251548957368600,6.80036865234375,0.26275634765625,0.6034698486328125,0.83294677734375
1740251548967350500,6.8103505859375,0.302490234375,0.6618804931640625,0.911651611328125
1740251548977331700,6.820331787109375,0.31134033203125,0.6906280517578125,0.9506072998046875
1740251548987313400,6.8303134765625,0.28125,0.7165374755859375,1.00677490234375
1740251548997295600,6.840295654296875,0.2335205078125,0.742706298828125,1.07550048828125
1740251549007277600,6.850277587890625,0.154937744140625,0.753204345703125,1.1856231689453125
1740251549017259500,6.860259521484375,0.086700439453125,0.76751708984375,1.3608856201171875
1740251549027241500,6.870241455078125,0.07781982421875,0.7847442626953125,1.5583648681640625
1740251549037223700,6.8802236328125,0.0871734619140625,0.788543701171875,1.7014923095703125
1740251549047205400,6.890205322265625,0.080169677734375,0.783721923828125,1.7796783447265625
1740251549057187600,6.9001875,0.069366455078125,0.770843505859375,1.79400634765625
1740251549067168500,6.91016845703125,0.062774658203125,0.7586822509765625,1.75860595703125
1740251549077150500,6.920150390625,0.06005859375,0.747314453125,1.708160400390625
1740251549087132400,6.93013232421875,0.0514373779296875,0.7359619140625,1.6739654541015625
1740251549097114600,6.940114501953125,0.0255584716796875,0.7241058349609375,1.6647186279296875
1740251549107096300,6.950096435546875,-0.0057220458984375,0.7039031982421875,1.6717529296875
1740251549117078500,6.96007861328125,-0.0334320068359375,0.6782684326171875,1.704376220703125
1740251549127060500,6.970060546875,-0.04779052734375,0.65606689453125,1.7484130859375
1740251549137042400,6.98004248046875,-0.047332763671875,0.6187286376953125,1.7939605712890625
1740251549147023400,6.9900234375,-0.0360107421875,0.5840301513671875,1.8325958251953125
1740251549157005600,7.000005615234375,-0.0182342529296875,0.572784423828125,1.87786865234375
1740251549166987500,7.009987548828125,0.0010833740234375,0.5388946533203125,1.8849945068359375
1740251549176969500,7.019969482421875,0.0029754638671875,0.4902801513671875,1.867706298828125
1740251549186951700,7.02995166015625,-0.0075531005859375,0.435546875,1.8225555419921875
1740251549196933600,7.03993359375,-0.0157928466796875,0.37921142578125,1.775360107421875
1740251549206915600,7.04991552734375,-0.008544921875,0.3260498046875,1.7235260009765625
1740251549216897500,7.0598974609375,0.01910400390625,0.2866058349609375,1.6620635986328125
1740251549226879500,7.06987939453125,0.0486907958984375,0.26416015625,1.607086181640625
1740251549236861400,7.079861328125,0.066497802734375,0.2488250732421875,1.5631103515625
1740251549246842600,7.089842529296875,0.0761260986328125,0.2342987060546875,1.533203125
1740251549256824600,7.099824462890625,0.087371826171875,0.2194366455078125,1.4942169189453125
1740251549266806500,7.109806640625,0.0995941162109375,0.203765869140625,1.4599609375
1740251549276788500,7.11978857421875,0.106781005859375,0.18341064453125,1.406829833984375
1740251549286770700,7.129770751953125,0.1108856201171875,0.1567230224609375,1.3461151123046875
1740251549296752400,7.13975244140625,0.124359130859375,0.13055419921875,1.3054351806640625
1740251549306734600,7.149734619140625,0.15142822265625,0.120147705078125,1.29931640625
1740251549316716500,7.159716552734375,0.1801605224609375,0.1253814697265625,1.2977447509765625
1740251549326698500,7.169698486328125,0.20037841796875,0.1370391845703125,1.29547119140625
1740251549336679400,7.179679443359375,0.2059478759765625,0.1401519775390625,1.29913330078125
1740251549346661600,7.18966162109375,0.199920654296875,0.1441802978515625,1.330474853515625
1740251549356643300,7.199643310546875,0.1876220703125,0.1367950439453125,1.349822998046875
1740251549366625500,7.20962548828125,0.1763153076171875,0.1038055419921875,1.362762451171875
1740251549376607500,7.219607421875,0.178985595703125,0.0762481689453125,1.386810302734375
1740251549386589400,7.22958935546875,0.184844970703125,0.0787811279296875,1.4265289306640625
1740251549396571600,7.239571533203125,0.184478759765625,0.1116180419921875,1.4753570556640625
1740251549406553600,7.2495537109375,0.1638336181640625,0.1476593017578125,1.511932373046875
1740251549416535600,7.25953564453125,0.131256103515625,0.1497650146484375,1.5111541748046875
1740251549426516500,7.2695166015625,0.1068878173828125,0.13323974609375,1.5057830810546875
1740251549436498700,7.279498779296875,0.090545654296875,0.12774658203125,1.513946533203125
1740251549446480600,7.289480712890625,0.0893402099609375,0.137664794921875,1.534881591796875
1740251549456462600,7.299462646484375,0.0876312255859375,0.152313232421875,1.53643798828125
1740251549466444500,7.309444580078125,0.0823974609375,0.1494903564453125,1.5072021484375
1740251549476426500,7.319426513671875,0.087615966796875,0.126739501953125,1.4501800537109375
1740251549486408400,7.329408447265625,0.1016082763671875,0.1211090087890625,1.399139404296875
1740251549496390700,7.339390625,0.1220550537109375,0.1404876708984375,1.3787841796875
1740251549506372400,7.349372314453125,0.14093017578125,0.1795806884765625,1.386749267578125
1740251549516353500,7.359353515625,0.163787841796875,0.2295074462890625,1.3995513916015625
1740251549526335500,7.36933544921875,0.1830596923828125,0.29217529296875,1.41888427734375
1740251549536317700,7.379317626953125,0.186737060546875,0.3568267822265625,1.42474365234375
1740251549546299400,7.38929931640625,0.1751251220703125,0.4207763671875,1.43634033203125
1740251549556281600,7.399281494140625,0.1540985107421875,0.4917449951171875,1.4668121337890625
1740251549566263600,7.409263671875,0.13140869140625,0.5676727294921875,1.5179443359375
1740251549576245500,7.41924560546875,0.115325927734375,0.6193389892578125,1.567718505859375
1740251549586227500,7.4292275390625,0.1146392822265625,0.644287109375,1.613800048828125
1740251549596209400,7.43920947265625,0.128753662109375,0.6614227294921875,1.6409759521484375
1740251549606190300,7.4491904296875,0.139801025390625,0.6850128173828125,1.6482086181640625
1740251549616172500,7.459172607421875,0.1436309814453125,0.711578369140625,1.6495513916015625
1740251549626154500,7.469154541015625,0.1517486572265625,0.728759765625,1.63409423828125
1740251549636137700,7.4791376953125,0.166168212890625,0.74114990234375,1.6067962646484375
1740251549646119700,7.48911962890625,0.1812591552734375,0.75482177734375,1.5843353271484375
1740251549656101600,7.4991015625,0.19378662109375,0.7663726806640625,1.5657501220703125
1740251549666083800,7.509083740234375,0.1911773681640625,0.7797393798828125,1.546051025390625
1740251549676065800,7.519065673828125,0.178009033203125,0.7714996337890625,1.502838134765625
1740251549686047700,7.5290478515625,0.1578369140625,0.7504425048828125,1.453216552734375
1740251549696029700,7.53902978515625,0.1385498046875,0.72186279296875,1.4263763427734375
1740251549706010600,7.5490107421875,0.1368255615234375,0.7107086181640625,1.4236907958984375
1740251549715992600,7.55899267578125,0.144683837890625,0.711944580078125,1.4072723388671875
1740251549725974800,7.568974853515625,0.1551513671875,0.708709716796875,1.3776397705078125
1740251549735956700,7.578956787109375,0.1562347412109375,0.7110748291015625,1.34283447265625
1740251549745938700,7.588938720703125,0.1473846435546875,0.7073822021484375,1.296966552734375
1740251549755920600,7.598920654296875,0.135009765625,0.6894073486328125,1.2342529296875
1740251549765902800,7.60890283203125,0.1218414306640625,0.6674041748046875,1.177886962890625
1740251549775884500,7.618884521484375,0.109954833984375,0.6536712646484375,1.14208984375
1740251549785866800,7.62886669921875,0.099578857421875,0.639312744140625,1.1112823486328125
1740251549795848700,7.6388486328125,0.08868408203125,0.6208648681640625,1.0809783935546875
1740251549805830000,7.648829833984375,0.0817718505859375,0.5995025634765625,1.0545501708984375
1740251549815811600,7.6588115234375,0.0826263427734375,0.592071533203125,1.0314178466796875
1740251549825793800,7.668793701171875,0.0880584716796875,0.5875091552734375,1.0084075927734375
1740251549835775500,7.678775390625,0.093658447265625,0.581695556640625,0.9727630615234375
1740251549845757700,7.6887578125,0.0947723388671875,0.5736846923828125,0.9249114990234375
1740251549855739600,7.69873974609375,0.090240478515625,0.5660400390625,0.878265380859375
1740251549865721600,7.7087216796875,0.0897064208984375,0.55712890625,0.8273773193359375
1740251549875703800,7.718703857421875,0.093048095703125,0.5479736328125,0.7854156494140625
1740251549885685800,7.728685791015625,0.1002044677734375,0.5467071533203125,0.754974365234375
1740251549895666700,7.738666748046875,0.10968017578125,0.5556488037109375,0.72601318359375
1740251549905648600,7.748648681640625,0.111236572265625,0.5650787353515625,0.6862335205078125
1740251549915630600,7.758630615234375,0.102447509765625,0.5591583251953125,0.63568115234375
1740251549925612800,7.76861279296875,0.0846405029296875,0.542877197265625,0.579376220703125
1740251549935594800,7.7785947265625,0.0653228759765625,0.5289459228515625,0.5286865234375
1740251549945576700,7.78857666015625,0.053985595703125,0.527130126953125,0.49310302734375
1740251549955558700,7.79855859375,0.0465087890625,0.5363311767578125,0.468902587890625
1740251549965540600,7.80854052734375,0.0491790771484375,0.5461883544921875,0.4462890625
1740251549975522800,7.818522705078125,0.057098388671875,0.5437469482421875,0.4131927490234375
1740251549985504500,7.82850439453125,0.0667572021484375,0.538177490234375,0.386749267578125
1740251549995485700,7.838485595703125,0.08184814453125,0.5397186279296875,0.3807220458984375
1740251550005467600,7.848467529296875,0.103271484375,0.5495758056640625,0.383697509765625
1740251550015449900,7.858449951171875,0.1249542236328125,0.54644775390625,0.3713836669921875
1740251550025431600,7.868431640625,0.1311187744140625,0.5189361572265625,0.3473663330078125
1740251550035413800,7.878413818359375,0.1334075927734375,0.492584228515625,0.3513946533203125
1740251550045395700,7.888395751953125,0.1414947509765625,0.473114013671875,0.396942138671875
1740251550055377700,7.898377685546875,0.1512298583984375,0.4548187255859375,0.4846038818359375
1740251550065359600,7.908359619140625,0.16357421875,0.4294891357421875,0.5702362060546875
1740251550075341800,7.918341796875,0.1803436279296875,0.41448974609375,0.6568450927734375
1740251550085323800,7.92832373046875,0.1982574462890625,0.4149169921875,0.72943115234375
1740251550095304700,7.9383046875,0.219390869140625,0.4333038330078125,0.797454833984375
1740251550105286700,7.94828662109375,0.2359619140625,0.4789886474609375,0.8753204345703125
1740251550115268600,7.9582685546875,0.2533111572265625,0.5439300537109375,0.9568023681640625
1740251550125250600,7.96825048828125,0.2700958251953125,0.612701416015625,1.05047607421875
1740251550135232800,7.978232666015625,0.2841796875,0.660980224609375,1.15692138671875
1740251550145214700,7.988214599609375,0.2929229736328125,0.67706298828125,1.249237060546875
1740251550155196700,7.99819677734375,0.2962188720703125,0.682952880859375,1.3204193115234375
1740251550165179000,8.008178955078124,0.29534912109375,0.6906280517578125,1.3800506591796875
1740251550175160600,8.01816064453125,0.28662109375,0.69281005859375,1.436859130859375
1740251550185142800,8.028142822265625,0.2677154541015625,0.6905059814453125,1.468414306640625
1740251550195123700,8.038123779296875,0.2363128662109375,0.6964874267578125,1.4967041015625
1740251550205105700,8.048105712890624,0.1960296630859375,0.711456298828125,1.5316162109375
1740251550215087600,8.058087646484376,0.1480865478515625,0.7084503173828125,1.542083740234375
1740251550225069800,8.06806982421875,0.0889129638671875,0.674652099609375,1.550140380859375
1740251550235051500,8.078051513671875,0.0426483154296875,0.6253509521484375,1.5548553466796875
1740251550245033700,8.08803369140625,0.0147705078125,0.5787811279296875,1.5612945556640625
1740251550255015700,8.098015625,0.0062713623046875,0.530029296875,1.5771331787109375
1740251550264997600,8.10799755859375,0.012542724609375,0.469268798828125,1.588409423828125
1740251550274979600,8.1179794921875,0.0313568115234375,0.427490234375,1.5900115966796875
1740251550284961800,8.1279619140625,0.05120849609375,0.3957672119140625,1.5820770263671875
1740251550294942700,8.137942626953125,0.0614166259765625,0.3692474365234375,1.5719146728515625
1740251550304924700,8.147924560546874,0.0685272216796875,0.352081298828125,1.56268310546875
1740251550314906600,8.15790673828125,0.073577880859375,0.3261871337890625,1.5503997802734375
1740251550324888800,8.167888916015626,0.08905029296875,0.294464111328125,1.533721923828125
1740251550334870500,8.17787060546875,0.1197509765625,0.2722015380859375,1.515869140625
1740251550344852700,8.187852783203125,0.1394195556640625,0.2506561279296875,1.4779052734375
1740251550354834700,8.197834716796875,0.1407928466796875,0.228118896484375,1.420806884765625
1740251550364816600,8.207816650390624,0.127593994140625,0.2101898193359375,1.3596038818359375
1740251550374797600,8.217797607421875,0.107940673828125,0.2019500732421875,1.31195068359375
1740251550384779800,8.22777978515625,0.0815277099609375,0.1929931640625,1.268463134765625
1740251550394761700,8.23776171875,0.0581207275390625,0.17669677734375,1.2487335205078125
1740251550404743700,8.24774365234375,0.0502777099609375,0.1547088623046875,1.246917724609375
1740251550414726000,8.257725830078124,0.06585693359375,0.130218505859375,1.256744384765625
1740251550424706800,8.267706787109375,0.104339599609375,0.1156005859375,1.2608184814453125
1740251550434688800,8.277688720703125,0.137786865234375,0.1114044189453125,1.2491912841796875
1740251550444670700,8.287670654296875,0.1467132568359375,0.1250457763671875,1.2340850830078125
1740251550454652700,8.297652587890624,0.135650634765625,0.149627685546875,1.2311248779296875
1740251550464634600,8.307634521484376,0.1103668212890625,0.1602783203125,1.2316741943359375
1740251550474616800,8.317616943359376,0.0753021240234375,0.15582275390625,1.2549285888671875
1740251550484598500,8.3275986328125,0.0421142578125,0.146820068359375,1.2895965576171875
1740251550494580700,8.337580810546875,0.0212554931640625,0.138519287109375,1.3271942138671875
1740251550504562700,8.347562744140625,0.020477294921875,0.1312408447265625,1.3872528076171875
1740251550514544600,8.357544677734374,0.0348358154296875,0.1195220947265625,1.3958587646484375
1740251550524526600,8.367526611328126,0.0312042236328125,0.1143798828125,1.393524169921875
1740251550534507800,8.3775078125,0.01739501953125,0.1317291259765625,1.418670654296875
1740251550544489700,8.38748974609375,0.0142059326171875,0.15789794921875,1.449188232421875
1740251550554471700,8.3974716796875,0.016998291015625,0.17822265625,1.475067138671875
1740251550564453600,8.40745361328125,0.0141448974609375,0.1811676025390625,1.490142822265625
1740251550574435600,8.417435546875,0.002838134765625,0.1813812255859375,1.5112457275390625
1740251550584417500,8.42741748046875,0.0007781982421875,0.1863555908203125,1.5366363525390625
1740251550594399700,8.437399658203125,0.014190673828125,0.1855621337890625,1.5578155517578125
1740251550604381700,8.447381591796875,0.040618896484375,0.1534271240234375,1.5311737060546875
1740251550614363600,8.45736376953125,0.0692291259765625,0.1134490966796875,1.44500732421875
1740251550624345900,8.467345947265626,0.0875244140625,0.0948333740234375,1.3661041259765625
1740251550634326800,8.477326904296875,0.0912933349609375,0.1123199462890625,1.3251190185546875
1740251550644308000,8.487307861328125,0.0987396240234375,0.1492767333984375,1.3066558837890625
1740251550654289700,8.49728955078125,0.1049652099609375,0.1847991943359375,1.300811767578125
1740251550664272000,8.50727197265625,0.1087799072265625,0.2177581787109375,1.3143310546875
1740251550674253800,8.51725390625,0.1104888916015625,0.2566986083984375,1.3401641845703125
1740251550684235800,8.52723583984375,0.123779296875,0.3006439208984375,1.348846435546875
1740251550694217700,8.5372177734375,0.134979248046875,0.3559112548828125,1.368927001953125
1740251550704199700,8.54719970703125,0.13623046875,0.4262847900390625,1.402435302734375
1740251550714181600,8.557181640625,0.1312255859375,0.494354248046875,1.4103240966796875
1740251550724163800,8.567163818359376,0.1128997802734375,0.5335235595703125,1.39105224609375
1740251550734145800,8.577145751953125,0.0893707275390625,0.55316162109375,1.36920166015625
1740251550744126700,8.587126708984375,0.07977294921875,0.5703887939453125,1.36663818359375
1740251550754108700,8.597108642578124,0.091552734375,0.5875396728515625,1.374267578125
1740251550764091000,8.6070908203125,0.1181640625,0.5997161865234375,1.3813323974609375
1740251550774072800,8.61707275390625,0.144256591796875,0.6069488525390625,1.384002685546875
1740251550784054800,8.6270546875,0.16705322265625,0.613861083984375,1.38140869140625
1740251550794037000,8.637037109375,0.177886962890625,0.614959716796875,1.368194580078125
1740251550804018700,8.647018798828125,0.1781158447265625,0.611175537109375,1.3487548828125
1740251550814001000,8.6570009765625,0.1794586181640625,0.595458984375,1.324554443359375
1740251550823982600,8.666982666015626,0.19189453125,0.582122802734375,1.3134613037109375
1740251550833964800,8.67696484375,0.2208099365234375,0.57965087890625,1.3119659423828125
1740251550843946800,8.68694677734375,0.251556396484375,0.5870513916015625,1.3146820068359375
1740251550853928700,8.6969287109375,0.2745361328125,0.597869873046875,1.30047607421875
1740251550863909600,8.70690966796875,0.2752227783203125,0.60418701171875,1.2761077880859375
1740251550873891800,8.716891845703126,0.2568359375,0.600433349609375,1.2546234130859375
1740251550883873800,8.726873779296875,0.2374420166015625,0.5877227783203125,1.2460784912109375
1740251550893855700,8.736855712890625,0.2337493896484375,0.5803985595703125,1.24072265625
1740251550903837700,8.746837646484375,0.2440185546875,0.584716796875,1.22821044921875
1740251550913820000,8.75681982421875,0.244110107421875,0.5932464599609375,1.208709716796875
1740251550923801600,8.766801513671876,0.220306396484375,0.6028900146484375,1.17584228515625
1740251550933783800,8.77678369140625,0.1812896728515625,0.5972137451171875,1.1273956298828125
1740251550943765800,8.786765869140625,0.1450347900390625,0.575897216796875,1.081939697265625
1740251550953747700,8.796747802734375,0.1315765380859375,0.5518646240234375,1.0485992431640625
1740251550963730000,8.80672998046875,0.1386260986328125,0.5330810546875,1.0193023681640625
1740251550973710800,8.8167109375,0.151336669921875,0.5232391357421875,0.990814208984375
1740251550983692800,8.82669287109375,0.1627197265625,0.52325439453125,0.960357666015625
1740251550993674800,8.8366748046875,0.15924072265625,0.5277557373046875,0.9178924560546875
1740251551003657000,8.846656982421875,0.1368408203125,0.5208892822265625,0.8626251220703125
1740251551013638700,8.856638671875,0.1060333251953125,0.5098876953125,0.810333251953125
1740251551023620900,8.866620849609374,0.0804290771484375,0.504791259765625,0.7727203369140625
1740251551033602800,8.876602783203126,0.062652587890625,0.507568359375,0.7451324462890625
1740251551043584800,8.886584716796875,0.0537261962890625,0.515106201171875,0.714508056640625
1740251551053566700,8.896566650390625,0.048797607421875,0.5201873779296875,0.677703857421875
1740251551063549000,8.906548828125,0.040679931640625,0.5135345458984375,0.6248931884765625
1740251551073530600,8.916530517578124,0.0363311767578125,0.499908447265625,0.565277099609375
1740251551083512800,8.926512939453126,0.0266265869140625,0.490509033203125,0.510498046875
1740251551093493800,8.93649365234375,0.014801025390625,0.4804840087890625,0.4610443115234375
1740251551103475700,8.946475830078125,0.0069122314453125,0.4715423583984375,0.427337646484375
1740251551113457700,8.956457763671875,0.0101165771484375,0.471282958984375,0.413299560546875
1740251551123439900,8.96643994140625,0.0287322998046875,0.483154296875,0.4103240966796875
1740251551133421800,8.976421875,0.0464935302734375,0.488555908203125,0.4052276611328125
1740251551143403800,8.98640380859375,0.0669403076171875,0.4896697998046875,0.3946533203125
1740251551153386000,8.996385986328125,0.0853271484375,0.4936065673828125,0.391998291015625
1740251551163367700,9.00636767578125,0.096527099609375,0.50567626953125,0.395538330078125
1740251551173350000,9.016349853515624,0.109405517578125,0.5222930908203125,0.4087066650390625
1740251551183331800,9.026331787109376,0.122314453125,0.5306396484375,0.416229248046875
1740251551193313800,9.036313720703125,0.12933349609375,0.5262298583984375,0.4298553466796875
1740251551203295700,9.046295654296875,0.1250152587890625,0.52099609375,0.4571533203125
1740251551213277000,9.05627685546875,0.108917236328125,0.50897216796875,0.50030517578125
1740251551223258600,9.066258544921874,0.083740234375,0.496917724609375,0.5599517822265625
1740251551233240800,9.07624072265625,0.0581207275390625,0.4967193603515625,0.65386962890625
1740251551243222800,9.086222900390625,0.053070068359375,0.5006103515625,0.7562255859375
1740251551253204700,9.096204833984375,0.066741943359375,0.51458740234375,0.873504638671875
1740251551263186700,9.106186767578125,0.096893310546875,0.5417327880859375,1.0079498291015625
1740251551273169000,9.1161689453125,0.1288299560546875,0.568115234375,1.135162353515625
1740251551283150600,9.126150634765626,0.1589813232421875,0.5966796875,1.226959228515625
1740251551293132800,9.1361328125,0.1711883544921875,0.643951416015625,1.3054656982421875
1740251551303115000,9.146114990234375,0.165771484375,0.695465087890625,1.36810302734375
1740251551313096700,9.1560966796875,0.151123046875,0.7310943603515625,1.4100494384765625
1740251551323079000,9.166078857421875,0.128387451171875,0.74908447265625,1.4543914794921875
1740251551333059800,9.176059814453126,0.1105499267578125,0.75054931640625,1.512237548828125
1740251551343041800,9.186041748046875,0.0998687744140625,0.7386627197265625,1.5584869384765625
1740251551353023700,9.196023681640625,0.0927886962890625,0.7140960693359375,1.5847930908203125
1740251551363006000,9.206005859375,0.0899658203125,0.6834869384765625,1.601226806640625
1740251551372987600,9.215987548828124,0.070770263671875,0.646881103515625,1.593414306640625
1740251551382969900,9.225969970703124,0.044403076171875,0.5994110107421875,1.549652099609375
1740251551392951800,9.235951904296876,0.0223541259765625,0.542510986328125,1.4945526123046875
1740251551402933800,9.245933837890625,0.00152587890625,0.4868927001953125,1.4582672119140625
1740251551412915700,9.255915771484375,-0.0150604248046875,0.4388580322265625,1.4425201416015625
1740251551422898000,9.26589794921875,-0.01971435546875,0.4137725830078125,1.4438934326171875
1740251551432879600,9.275879638671874,-0.015350341796875,0.4008331298828125,1.4306640625
1740251551442861800,9.28586181640625,-0.02203369140625,0.3879547119140625,1.4073486328125
1740251551452843800,9.29584375,-0.039215087890625,0.3815155029296875,1.3757171630859375
1740251551462824700,9.30582470703125,-0.057464599609375,0.3848419189453125,1.3445281982421875
1740251551472806700,9.315806640625,-0.079193115234375,0.3939056396484375,1.3221282958984375
1740251551482788900,9.325788818359374,-0.097137451171875,0.401153564453125,1.3205108642578125
1740251551492770600,9.3357705078125,-0.104461669921875,0.4029388427734375,1.33099365234375
1740251551502752800,9.345752685546875,-0.1025543212890625,0.389617919921875,1.355316162109375
1740251551512735000,9.35573486328125,-0.081451416015625,0.352081298828125,1.3683013916015625
1740251551522716700,9.365716552734375,-0.0537567138671875,0.303863525390625,1.3520355224609375
1740251551532699000,9.375698974609374,-0.025970458984375,0.2768402099609375,1.3273162841796875
1740251551542680800,9.385680908203126,0.0015869140625,0.2600555419921875,1.302459716796875
1740251551552662800,9.395662841796875,0.0346832275390625,0.248382568359375,1.2781829833984375
1740251551562644700,9.405644775390625,0.07073974609375,0.236480712890625,1.2392730712890625
1740251551572627000,9.415626953125,0.100341796875,0.2196044921875,1.1981353759765625
1740251551582608000,9.42560791015625,0.1222076416015625,0.2080078125,1.188568115234375
1740251551592589800,9.43558984375,0.141876220703125,0.2035064697265625,1.2083892822265625
1740251551602571800,9.44557177734375,0.148590087890625,0.206573486328125,1.259490966796875
1740251551612553700,9.4555537109375,0.1402587890625,0.204345703125,1.326141357421875
1740251551622535700,9.46553564453125,0.1250152587890625,0.20050048828125,1.382781982421875
1740251551632518400,9.475518310546875,0.1043548583984375,0.1826934814453125,1.4131622314453125
1740251551642500000,9.4855,0.0739898681640625,0.156280517578125,1.434234619140625
1740251551652482300,9.495482421875,0.0439300537109375,0.1328887939453125,1.4533538818359375
1740251551662464300,9.50546435546875,0.0232391357421875,0.10797119140625,1.46881103515625
1740251551672446200,9.5154462890625,0.022430419921875,0.092437744140625,1.505645751953125
1740251551682428400,9.525428466796875,0.027740478515625,0.0969696044921875,1.5635986328125
1740251551692410000,9.53541015625,0.029937744140625,0.1086578369140625,1.622833251953125
1740251551702392300,9.545392333984376,0.035491943359375,0.11077880859375,1.6698455810546875
1740251551712373200,9.555373291015625,0.0550994873046875,0.099853515625,1.7021636962890625
1740251551722355500,9.56535546875,0.088134765625,0.07550048828125,1.721832275390625
1740251551732337200,9.575337158203125,0.137969970703125,0.0659637451171875,1.71063232421875
1740251551742319400,9.5853193359375,0.17169189453125,0.0626983642578125,1.6623992919921875
1740251551752301300,9.59530126953125,0.17425537109375,0.055694580078125,1.588531494140625
1740251551762283300,9.605283203125,0.156036376953125,0.05999755859375,1.515411376953125
1740251551772265200,9.61526513671875,0.1414642333984375,0.076812744140625,1.4590301513671875
1740251551782247400,9.625247314453125,0.132659912109375,0.1118011474609375,1.4486541748046875
1740251551792229000,9.63522900390625,0.1367645263671875,0.17633056640625,1.4657440185546875
1740251551802211300,9.64521142578125,0.136993408203125,0.2679595947265625,1.505950927734375
1740251551812193300,9.655193359375,0.1326904296875,0.36895751953125,1.55218505859375
1740251551822175200,9.66517529296875,0.1241302490234375,0.4640960693359375,1.574127197265625
1740251551832157400,9.675157470703125,0.1020660400390625,0.5487213134765625,1.581024169921875
1740251551842138400,9.685138427734374,0.0749664306640625,0.6085662841796875,1.5677032470703125
1740251551852120000,9.6951201171875,0.04229736328125,0.64471435546875,1.542510986328125
1740251551862102300,9.705102294921875,0.0174102783203125,0.6929168701171875,1.539794921875
1740251551872084500,9.71508447265625,0.002685546875,0.725006103515625,1.5504302978515625
1740251551882066200,9.725066162109375,-0.008758544921875,0.73876953125,1.57269287109375
1740251551892048400,9.73504833984375,-0.0089874267578125,0.745574951171875,1.574005126953125
1740251551902030300,9.7450302734375,-0.004669189453125,0.7401275634765625,1.5536041259765625
1740251551912012300,9.75501220703125,0.002410888671875,0.7298736572265625,1.5298919677734375
1740251551921994200,9.764994140625,0.003631591796875,0.724853515625,1.49713134765625
1740251551931976200,9.77497607421875,0.00640869140625,0.7206878662109375,1.45941162109375
1740251551941958100,9.784958251953125,0.0115966796875,0.7185516357421875,1.430389404296875
1740251551951940400,9.7949404296875,0.0209503173828125,0.7150115966796875,1.4035797119140625
1740251551961922000,9.804922119140626,0.0360565185546875,0.702484130859375,1.374359130859375
1740251551971903200,9.8149033203125,0.05780029296875,0.6931610107421875,1.3504180908203125
1740251551981885200,9.82488525390625,0.079833984375,0.6944427490234375,1.3336334228515625
1740251551991867400,9.834867431640625,0.0891571044921875,0.699676513671875,1.3077392578125
1740251552001849000,9.84484912109375,0.083770751953125,0.694122314453125,1.2727508544921875
1740251552011831300,9.854831298828126,0.0658721923828125,0.68243408203125,1.2368011474609375
1740251552021813500,9.8648134765625,0.0407562255859375,0.669830322265625,1.209869384765625
1740251552031795200,9.874795166015625,0.018798828125,0.655975341796875,1.1872711181640625
1740251552041777400,9.88477734375,0.0072784423828125,0.626434326171875,1.179412841796875
1740251552051759400,9.89475927734375,0.0240936279296875,0.6138763427734375,1.1677703857421875
1740251552061741300,9.9047412109375,0.04608154296875,0.6154937744140625,1.155975341796875
1740251552071723300,9.91472314453125,0.055267333984375,0.6176910400390625,1.1354217529296875
1740251552081705200,9.924705322265625,0.048248291015625,0.6190643310546875,1.0956878662109375
1740251552091687200,9.934687255859375,0.0273284912109375,0.6116485595703125,1.03570556640625
1740251552101669400,9.94466943359375,-0.0015869140625,0.593536376953125,0.98492431640625
1740251552111650300,9.954650390625,-0.023468017578125,0.576263427734375,0.9644775390625
1740251552121632300,9.96463232421875,-0.0259857177734375,0.5658416748046875,0.955535888671875
1740251552131614200,9.9746142578125,-0.0146636962890625,0.558135986328125,0.951690673828125
1740251552141596400,9.984596435546875,0.01409912109375,0.5487060546875,0.9506378173828125
1740251552151578000,9.994578125,0.0605926513671875,0.5410308837890625,0.9380950927734375
1740251552161560300,10.004560302734374,0.10748291015625,0.5440673828125,0.9051361083984375
1740251552171542300,10.014542236328126,0.1481170654296875,0.551513671875,0.8614959716796875
1740251552181524200,10.024524169921875,0.1636962890625,0.5410308837890625,0.7973175048828125
1740251552191506400,10.03450634765625,0.1538543701171875,0.5160064697265625,0.7265472412109375
1740251552201488400,10.04448828125,0.1486053466796875,0.5002593994140625,0.6491241455078125
1740251552211470300,10.05447021484375,0.1577606201171875,0.49566650390625,0.591339111328125
1740251552221452300,10.064452392578126,0.1552734375,0.5038299560546875,0.554443359375
1740251552231434200,10.074434326171875,0.1328277587890625,0.5160980224609375,0.5411224365234375
1740251552241416200,10.084416259765625,0.1031494140625,0.54083251953125,0.5563201904296875
1740251552251397400,10.0943974609375,0.0692138671875,0.5751495361328125,0.561370849609375
1740251552261379300,10.10437939453125,0.037811279296875,0.5902862548828125,0.5301513671875
1740251552271361300,10.114361328125,0.0008392333984375,0.5897979736328125,0.485382080078125
1740251552281343200,10.12434326171875,-0.0252685546875,0.5879669189453125,0.4205474853515625
1740251552291325400,10.134325439453125,-0.0444488525390625,0.579254150390625,0.3502044677734375
1740251552301307100,10.14430712890625,-0.046112060546875,0.53955078125,0.263671875
1740251552311289300,10.154289306640624,-0.0497589111328125,0.49432373046875,0.1865081787109375
1740251552321271300,10.164271240234376,-0.0416107177734375,0.458770751953125,0.1328582763671875
1740251552331253200,10.174253173828125,-0.0276031494140625,0.435638427734375,0.1334686279296875
1740251552341235200,10.184235107421875,-0.003204345703125,0.420166015625,0.1870574951171875
1740251552351217200,10.194217041015625,0.032562255859375,0.4039154052734375,0.2735748291015625
1740251552361199400,10.204199462890625,0.0761566162109375,0.4039459228515625,0.3850860595703125
1740251552371181300,10.214181396484374,0.1234893798828125,0.41619873046875,0.5073394775390625
1740251552381163300,10.224163330078126,0.1731719970703125,0.442108154296875,0.62652587890625
1740251552391145200,10.234145263671875,0.231109619140625,0.481170654296875,0.741912841796875
1740251552401126400,10.24412646484375,0.2960205078125,0.5409698486328125,0.8714141845703125
1740251552411108400,10.2541083984375,0.3492431640625,0.6173095703125,0.995330810546875
1740251552421090300,10.26409033203125,0.3761444091796875,0.7097015380859375,1.1079254150390625
1740251552431072300,10.274072265625,0.3560791015625,0.8076171875,1.216766357421875
1740251552441054500,10.284054443359375,0.2571868896484375,0.884368896484375,1.3513031005859375
1740251552451036200,10.2940361328125,0.1080474853515625,0.907989501953125,1.5465240478515625
1740251552461018400,10.304018310546875,-0.0324859619140625,0.8749542236328125,1.7297821044921875
1740251552471000300,10.314000244140624,-0.133148193359375,0.8043365478515625,1.884429931640625
1740251552480982300,10.323982177734376,-0.2048492431640625,0.728607177734375,1.98577880859375
1740251552490964200,10.333964111328125,-0.2665863037109375,0.6636505126953125,1.9991607666015625
1740251552500946200,10.3439462890625,-0.30902099609375,0.611114501953125,1.9345245361328125
1740251552510928400,10.353928466796875,-0.33367919921875,0.55133056640625,1.8280792236328125
1740251552520910300,10.363910400390624,-0.359375,0.4826812744140625,1.7010498046875
1740251552530892300,10.373892333984376,-0.3981781005859375,0.42388916015625,1.5961151123046875
1740251552540874200,10.383874267578125,-0.4413909912109375,0.364898681640625,1.5125732421875
1740251552550855400,10.39385546875,-0.4794464111328125,0.300933837890625,1.464996337890625
1740251552560837400,10.40383740234375,-0.4987640380859375,0.249420166015625,1.43988037109375
1740251552570819300,10.4138193359375,-0.4970703125,0.213043212890625,1.436431884765625
1740251552580801300,10.42380126953125,-0.47796630859375,0.197662353515625,1.4360504150390625
1740251552590783200,10.433783203125,-0.4494171142578125,0.1901397705078125,1.4334259033203125
1740251552600765200,10.44376513671875,-0.4105072021484375,0.1793060302734375,1.4203643798828125
1740251552610747400,10.453747314453125,-0.3495941162109375,0.1861114501953125,1.3852386474609375
1740251552620729000,10.46372900390625,-0.2757720947265625,0.20684814453125,1.34576416015625
1740251552630711300,10.473711181640626,-0.2081146240234375,0.2407073974609375,1.295806884765625
1740251552640693200,10.483693359375,-0.152435302734375,0.2798309326171875,1.2449798583984375
1740251552650675200,10.49367529296875,-0.096282958984375,0.30560302734375,1.1966552734375
1740251552660657200,10.5036572265625,-0.044281005859375,0.3220672607421875,1.1601104736328125
1740251552670639400,10.513639404296875,0.0006103515625,0.3314361572265625,1.1441192626953125
1740251552680621300,10.523621337890624,0.048126220703125,0.334564208984375,1.136474609375
1740251552690603300,10.533603271484376,0.089080810546875,0.3263092041015625,1.1387786865234375
1740251552700585500,10.54358544921875,0.1298828125,0.3153839111328125,1.14886474609375
1740251552710566400,10.55356640625,0.1617431640625,0.2996978759765625,1.1411895751953125
1740251552720548400,10.56354833984375,0.1748504638671875,0.2848358154296875,1.1373138427734375
1740251552730530300,10.5735302734375,0.1743316650390625,0.2691650390625,1.1419219970703125
1740251552740512300,10.58351220703125,0.1641845703125,0.2550201416015625,1.162109375
1740251552750494200,10.593494140625,0.15399169921875,0.2499847412109375,1.2008514404296875
1740251552760476400,10.603476318359375,0.1523895263671875,0.24578857421875,1.24188232421875
1740251552770458000,10.6134580078125,0.1495361328125,0.254730224609375,1.2877960205078125
1740251552780440300,10.6234404296875,0.1392364501953125,0.2874908447265625,1.3370513916015625
1740251552790422300,10.63342236328125,0.1016845703125,0.317596435546875,1.362701416015625
1740251552800404200,10.643404296875,0.0388336181640625,0.3228759765625,1.363494873046875
1740251552810386200,10.65338623046875,-0.0229339599609375,0.310760498046875,1.3714141845703125
1740251552820368400,10.663368408203125,-0.063018798828125,0.304168701171875,1.4161834716796875
1740251552830350000,10.67335009765625,-0.071044921875,0.3163299560546875,1.4749298095703125
1740251552840332300,10.683332275390624,-0.057281494140625,0.333251953125,1.5479278564453125
1740251552850314500,10.693314453125,-0.0346221923828125,0.3399200439453125,1.6211700439453125
1740251552860295200,10.703295166015625,-0.0223388671875,0.3385009765625,1.660888671875
1740251552870277000,10.713277099609375,-0.0246124267578125,0.3282928466796875,1.646942138671875
1740251552880259300,10.72325927734375,-0.0377197265625,0.3165435791015625,1.6022796630859375
1740251552890241300,10.7332412109375,-0.05572509765625,0.30609130859375,1.544097900390625
1740251552900223200,10.74322314453125,-0.066680908203125,0.2829132080078125,1.470123291015625
1740251552910205400,10.753205322265625,-0.0746612548828125,0.2454986572265625,1.39990234375
1740251552920187100,10.763187255859375,-0.0696868896484375,0.2129974365234375,1.34124755859375
1740251552930169300,10.77316943359375,-0.0511016845703125,0.205841064453125,1.29876708984375
1740251552940151300,10.7831513671875,-0.0311737060546875,0.221282958984375,1.2762451171875
1740251552950133200,10.79313330078125,-0.0189666748046875,0.2445068359375,1.26959228515625
1740251552960115200,10.803115234375,-0.005706787109375,0.2716217041015625,1.2590179443359375
1740251552970097400,10.813097412109375,0.002685546875,0.302520751953125,1.2391357421875
1740251552980079000,10.8230791015625,0.0117340087890625,0.3347320556640625,1.2341156005859375
1740251552990061300,10.833061279296874,0.0238037109375,0.372161865234375,1.2364501953125
1740251553000043500,10.84304345703125,0.038848876953125,0.4182586669921875,1.2398681640625
1740251553010025200,10.853025146484375,0.0420684814453125,0.4654541015625,1.2404327392578125
1740251553020007400,10.86300732421875,0.04620361328125,0.5111541748046875,1.243560791015625
1740251553029988400,10.87298828125,0.0452880859375,0.551727294921875,1.2296905517578125
1740251553039970300,10.88297021484375,0.0410308837890625,0.57977294921875,1.210479736328125
1740251553049952300,10.8929521484375,0.0277557373046875,0.59234619140625,1.1939697265625
1740251553059934500,10.9029345703125,0.005828857421875,0.59405517578125,1.172332763671875
1740251553069916200,10.912916259765625,-0.02093505859375,0.5880126953125,1.1645050048828125
1740251553079898400,10.9228984375,-0.0352630615234375,0.575653076171875,1.1789093017578125
1740251553089880300,10.93288037109375,-0.0177459716796875,0.575897216796875,1.2041778564453125
1740251553099862300,10.9428623046875,0.0109405517578125,0.5807647705078125,1.2142181396484375
1740251553109844200,10.95284423828125,0.0265960693359375,0.585784912109375,1.2209930419921875
1740251553119826400,10.962826416015625,0.0372772216796875,0.5943145751953125,1.215576171875
1740251553129808100,10.97280810546875,0.0385894775390625,0.596954345703125,1.1930084228515625
1740251553139790300,10.982790283203125,0.03204345703125,0.5968017578125,1.1708526611328125
1740251553149772300,10.992772216796874,0.02142333984375,0.6061553955078125,1.1549072265625
1740251553159754200,11.002754150390626,0.00830078125,0.6131439208984375,1.131134033203125
1740251553169736400,11.012736328125,-0.01287841796875,0.6165618896484375,1.1104888916015625
1740251553179718100,11.02271826171875,-0.03009033203125,0.620361328125,1.091796875
1740251553189699000,11.032698974609374,-0.0367431640625,0.6221923828125,1.0616912841796875
1740251553199681300,11.042681396484374,-0.0278167724609375,0.620391845703125,1.0253753662109375
1740251553209663500,11.05266357421875,-0.0203094482421875,0.6087188720703125,0.9967803955078125
1740251553219645200,11.062645263671875,-0.0154876708984375,0.599822998046875,0.9676055908203125
1740251553229627400,11.07262744140625,-0.0167083740234375,0.5811920166015625,0.934417724609375
1740251553239609300,11.082609375,-0.0173492431640625,0.561798095703125,0.9503936767578125
1740251553249591300,11.09259130859375,0.1304931640625,0.707916259765625,1.4392852783203125
1740251553259573200,11.1025732421875,0.11334228515625,1.1082611083984375,1.3741607666015625
1740251553269555500,11.112555419921875,-0.307861328125,0.8328094482421875,0.8267974853515625
1740251553279537200,11.122537109375,-0.19384765625,0.58453369140625,0.65020751953125
1740251553289519400,11.132519287109375,-0.0406341552734375,0.6761627197265625,0.5208740234375
1740251553299501000,11.1425009765625,-0.1085052490234375,0.689453125,0.5161895751953125
1740251553309483300,11.152483154296876,-0.112701416015625,0.6174468994140625,0.5678558349609375
1740251553319465200,11.16246533203125,-0.069427490234375,0.539031982421875,0.5916900634765625
1740251553329447200,11.172447265625,-0.080780029296875,0.45074462890625,0.648406982421875
1740251553339429400,11.182429443359375,-0.036102294921875,0.3788604736328125,0.7461700439453125
1740251553349411300,11.192411376953125,0.0351104736328125,0.3544769287109375,0.8212432861328125
1740251553359393300,11.202393310546874,0.0746612548828125,0.384429931640625,0.8580169677734375
1740251553369375200,11.212375244140626,0.0985870361328125,0.434234619140625,0.832916259765625
1740251553379356400,11.2223564453125,0.10980224609375,0.4523162841796875,0.75390625
1740251553389338400,11.23233837890625,0.11236572265625,0.4585113525390625,0.6534271240234375
1740251553399320300,11.2423203125,0.1273193359375,0.4794769287109375,0.561737060546875
1740251553409302300,11.25230224609375,0.1597442626953125,0.5114593505859375,0.5054473876953125
1740251553419284200,11.2622841796875,0.17901611328125,0.542266845703125,0.4801788330078125
1740251553429266200,11.27226611328125,0.1868743896484375,0.5464935302734375,0.461761474609375
1740251553439248400,11.282248291015625,0.1939239501953125,0.5278778076171875,0.4681549072265625
1740251553449230000,11.29222998046875,0.2009429931640625,0.520965576171875,0.5032958984375
1740251553459212300,11.30221240234375,0.2028350830078125,0.525604248046875,0.5731353759765625
1740251553469194200,11.3121943359375,0.208831787109375,0.4964599609375,0.6512298583984375
1740251553479176200,11.32217626953125,0.2201690673828125,0.44659423828125,0.716156005859375
1740251553489158400,11.332158447265625,0.2410888671875,0.4069976806640625,0.77667236328125
1740251553499140400,11.342140380859375,0.2641754150390625,0.3813934326171875,0.84527587890625
1740251553509122300,11.352122314453124,0.2783203125,0.3600311279296875,0.9061126708984375
1740251553519104300,11.362104248046874,0.2806549072265625,0.3516082763671875,0.9629669189453125
1740251553529086500,11.37208642578125,0.279876708984375,0.377471923828125,1.0496063232421875
1740251553539068200,11.382068115234375,0.272979736328125,0.424468994140625,1.1667938232421875
1740251553549050400,11.39205029296875,0.253204345703125,0.471038818359375,1.295318603515625
1740251553559031300,11.40203125,0.227813720703125,0.5001220703125,1.4179840087890625
1740251553569013200,11.41201318359375,0.2151031494140625,0.5060272216796875,1.531036376953125
1740251553578995200,11.4219951171875,0.21881103515625,0.47540283203125,1.606475830078125
1740251553588977400,11.431977294921875,0.238128662109375,0.40704345703125,1.610687255859375
1740251553598959000,11.441958984375,0.2565155029296875,0.3433837890625,1.6007843017578125
1740251553608941300,11.45194140625,0.27862548828125,0.288299560546875,1.592132568359375
1740251553618923300,11.46192333984375,0.2689056396484375,0.243865966796875,1.5822601318359375
1740251553628905200,11.4719052734375,0.2253570556640625,0.1977691650390625,1.5695648193359375
1740251553638887700,11.4818876953125,0.197235107421875,0.15631103515625,1.5524444580078125
1740251553648869600,11.49186962890625,0.17578125,0.1216888427734375,1.5358734130859375
1740251553658851600,11.5018515625,0.145538330078125,0.08892822265625,1.5097503662109375
1740251553668833500,11.51183349609375,0.11639404296875,0.05718994140625,1.4720306396484375
1740251553678815500,11.5218154296875,0.095794677734375,0.0421905517578125,1.4132843017578125
1740251553688797400,11.53179736328125,0.0691986083984375,0.0373992919921875,1.33319091796875
1740251553698779600,11.541779541015625,0.0496673583984375,0.052734375,1.250244140625
1740251553708761300,11.55176123046875,0.036865234375,0.0828704833984375,1.162872314453125
1740251553718743600,11.56174365234375,0.0307159423828125,0.113037109375,1.085601806640625
1740251553728725500,11.5717255859375,0.02703857421875,0.149017333984375,1.0221405029296875
1740251553738707500,11.58170751953125,0.026397705078125,0.1800994873046875,0.9695892333984375
1740251553748689400,11.591689453125,0.0200958251953125,0.2033843994140625,0.9246826171875
1740251553758670600,11.601670654296875,0.02105712890625,0.223663330078125,0.8747406005859375
1740251553768652500,11.611652587890624,0.008514404296875,0.19671630859375,0.711181640625
1740251553778634500,11.621634521484374,-0.0588531494140625,-0.0003509521484375,0.372650146484375
1740251553788616400,11.631616455078126,-0.12164306640625,-0.2030181884765625,0.369964599609375
1740251553798598400,11.641598388671875,-0.2069091796875,-0.1220703125,0.5860137939453125
1740251553808580600,11.65158056640625,-0.307891845703125,0.073394775390625,0.828369140625
1740251553818562600,11.6615625,-0.35113525390625,0.1450042724609375,1.0258636474609375
1740251553828544500,11.67154443359375,-0.301177978515625,0.1711883544921875,1.1428070068359375
1740251553838526500,11.6815263671875,-0.1819610595703125,0.2084503173828125,1.196441650390625
1740251553848508700,11.6915087890625,-0.02886962890625,0.2269134521484375,1.2272186279296875
1740251553858490400,11.701490478515625,0.1313629150390625,0.2285308837890625,1.198455810546875
1740251553868472600,11.71147265625,0.227325439453125,0.2427215576171875,1.0819854736328125
1740251553878454500,11.72145458984375,0.2581787109375,0.2714080810546875,0.9364166259765625
1740251553888436500,11.7314365234375,0.2888946533203125,0.29058837890625,0.819610595703125
1740251553898418400,11.74141845703125,0.3187255859375,0.2836151123046875,0.7495880126953125
1740251553908400600,11.751400634765625,0.2899322509765625,0.256103515625,0.765289306640625
1740251553918382600,11.761382568359375,0.260894775390625,0.2654266357421875,0.896942138671875
1740251553928364500,11.771364501953125,0.2782440185546875,0.3300628662109375,1.0483856201171875
1740251553938346800,11.7813466796875,0.275604248046875,0.41168212890625,1.171173095703125
1740251553948328400,11.791328369140626,0.2483978271484375,0.48541259765625,1.2325439453125
1740251553958309400,11.801309326171875,0.2017822265625,0.520538330078125,1.2219085693359375
1740251553968291600,11.81129150390625,0.150482177734375,0.5240325927734375,1.17669677734375
1740251553978273500,11.8212734375,0.0919952392578125,0.51641845703125,1.132781982421875
1740251553988255500,11.83125537109375,0.0486907958984375,0.515106201171875,1.1256561279296875
1740251553998237700,11.84123779296875,0.0274200439453125,0.5380401611328125,1.1661224365234375
1740251554008220400,11.851220458984375,0.024932861328125,0.5705718994140625,1.260833740234375
1740251554018202600,11.86120263671875,0.032470703125,0.5709686279296875,1.338592529296875
1740251554028184300,11.871184326171875,0.037841796875,0.5464324951171875,1.3805084228515625
1740251554038166500,11.88116650390625,0.0446624755859375,0.51104736328125,1.3817138671875
1740251554048148700,11.891148681640624,0.04931640625,0.4697723388671875,1.3538055419921875
1740251554058130400,11.90113037109375,0.039581298828125,0.4442138671875,1.3227691650390625
1740251554068112600,11.911112548828125,0.0190582275390625,0.411773681640625,1.2850189208984375
1740251554078094600,11.921094482421875,-0.0060272216796875,0.3530426025390625,1.225494384765625
1740251554088076500,11.93107666015625,-0.031890869140625,0.28155517578125,1.1665496826171875
1740251554098058500,11.94105859375,-0.0382232666015625,0.21356201171875,1.14727783203125
1740251554108040400,11.95104052734375,-0.024139404296875,0.16778564453125,1.1468353271484375
1740251554118022400,11.9610224609375,-0.0089111328125,0.1383514404296875,1.1636810302734375
1740251554128003600,11.971003662109375,0.002777099609375,0.1255950927734375,1.1839752197265625
1740251554137985500,11.980985595703125,0.0139312744140625,0.139434814453125,1.219207763671875
1740251554147967500,11.990967529296874,0.0290069580078125,0.1738128662109375,1.2502288818359375
1740251554157949400,12.000949462890626,0.0464630126953125,0.20843505859375,1.2560577392578125
1740251554167931600,12.010931640625,0.0613555908203125,0.2385101318359375,1.2404022216796875
1740251554177913300,12.020913330078125,0.0720672607421875,0.2523651123046875,1.219451904296875
1740251554187895600,12.0308955078125,0.0850830078125,0.2627105712890625,1.2005767822265625
1740251554197877800,12.040877685546874,0.0999298095703125,0.281158447265625,1.1949310302734375
1740251554207859500,12.050859375,0.1078948974609375,0.2977447509765625,1.2101898193359375
1740251554217841700,12.060841552734376,0.1239776611328125,0.30419921875,1.230804443359375
1740251554227823600,12.07082373046875,0.134368896484375,0.3010101318359375,1.245574951171875
1740251554237805600,12.0808056640625,0.2430419921875,0.2944183349609375,1.26116943359375
1740251554247787500,12.09078759765625,0.3729400634765625,0.389251708984375,1.2922515869140625
1740251554257769500,12.10076953125,-0.0903472900390625,0.34423828125,1.16143798828125
1740251554267751400,12.11075146484375,0.057586669921875,0.2317657470703125,1.0235595703125
1740251554277733600,12.120733642578125,0.389923095703125,0.224029541015625,1.0648345947265625
1740251554287715300,12.13071533203125,0.286163330078125,0.349456787109375,1.23162841796875
1740251554297697500,12.140697509765625,0.07989501953125,0.46728515625,1.2232208251953125
1740251554307679500,12.150679443359374,0.056396484375,0.4394378662109375,1.12420654296875
1740251554317661400,12.160661376953126,0.0313720703125,0.356292724609375,1.0717926025390625
1740251554327643600,12.1706435546875,0.041015625,0.34576416015625,1.0809326171875
1740251554337625600,12.18062548828125,0.064117431640625,0.4141845703125,1.1190643310546875
1740251554347607600,12.190607666015625,0.0924072265625,0.484375,1.138031005859375
1740251554357588500,12.20058837890625,0.1188201904296875,0.5150299072265625,1.1095733642578125
1740251554367570700,12.21057080078125,0.1164703369140625,0.5177764892578125,1.05352783203125
1740251554377552400,12.220552490234375,0.0928192138671875,0.5242767333984375,1.002838134765625
1740251554387534600,12.23053466796875,0.07330322265625,0.5334625244140625,0.9721832275390625
1740251554397516500,12.2405166015625,0.0558929443359375,0.5430450439453125,0.953826904296875
1740251554407498500,12.25049853515625,0.0322723388671875,0.5399627685546875,0.9454498291015625
1740251554417480400,12.26048046875,0.011962890625,0.5289306640625,0.9460296630859375
1740251554427462700,12.270462646484376,0.0095062255859375,0.52435302734375,0.9367828369140625
1740251554437444400,12.2804443359375,0.012969970703125,0.5247955322265625,0.9269866943359375
1740251554447426600,12.290426513671875,0.0120086669921875,0.528717041015625,0.9179534912109375
1740251554457408500,12.300408447265625,0.003082275390625,0.53369140625,0.8931732177734375
1740251554467390500,12.310390380859374,-0.012481689453125,0.5373687744140625,0.8679962158203125
1740251554477372700,12.32037255859375,-0.0306549072265625,0.5395965576171875,0.8478851318359375
1740251554487354600,12.330354736328125,-0.0542144775390625,0.5351104736328125,0.8300933837890625
1740251554497336600,12.340336669921875,-0.0702362060546875,0.5313720703125,0.826263427734375
1740251554507318500,12.350318603515625,-0.07122802734375,0.5420989990234375,0.8391571044921875
1740251554517300500,12.360300537109374,-0.0646209716796875,0.5650482177734375,0.8489227294921875
1740251554527282400,12.370282470703126,-0.0622100830078125,0.5795440673828125,0.843170166015625
1740251554537263600,12.380263671875,-0.058929443359375,0.5934295654296875,0.8294830322265625
1740251554547245600,12.39024560546875,-0.054779052734375,0.5991668701171875,0.8076324462890625
1740251554557227500,12.4002275390625,-0.056427001953125,0.594970703125,0.7905426025390625
1740251554567209500,12.41020947265625,-0.0555572509765625,0.5844268798828125,0.7659454345703125
1740251554577191700,12.420191650390626,-0.0503082275390625,0.5638580322265625,0.742401123046875
1740251554587173400,12.43017333984375,-0.0348968505859375,0.5557403564453125,0.7539825439453125
1740251554597155600,12.440155517578125,0.004425048828125,0.582427978515625,0.7940521240234375
1740251554607137500,12.450137451171875,0.0454254150390625,0.6172332763671875,0.825042724609375
1740251554617119500,12.460119384765624,0.0648193359375,0.6234283447265625,0.815399169921875
1740251554627101400,12.470101318359376,0.0544891357421875,0.6043243408203125,0.7808380126953125
1740251554637083400,12.48008349609375,0.036468505859375,0.5788421630859375,0.7433624267578125
1740251554647065000,12.490065185546875,0.0207672119140625,0.5462493896484375,0.704345703125
1740251554657047300,12.50004736328125,0.0068511962890625,0.50518798828125,0.693206787109375
1740251554667029200,12.510029296875,0.0185546875,0.451690673828125,0.699462890625
1740251554677011200,12.52001123046875,0.038787841796875,0.4058685302734375,0.7064666748046875
1740251554686993200,12.5299931640625,0.0522918701171875,0.3762359619140625,0.716766357421875
1740251554696975000,12.53997509765625,0.054473876953125,0.3585205078125,0.7118072509765625
1740251554706957000,12.54995703125,0.0308380126953125,0.3491668701171875,0.7027130126953125
1740251554716939300,12.559939208984375,-0.005889892578125,0.3446807861328125,0.714508056640625
1740251554726921000,12.5699208984375,-0.028839111328125,0.3464813232421875,0.7803192138671875
1740251554736903200,12.579903076171876,-0.0120391845703125,0.360076904296875,0.903289794921875
1740251554746885400,12.589885498046876,0.0417633056640625,0.3789520263671875,1.011199951171875
1740251554756867000,12.5998671875,0.1003265380859375,0.38861083984375,1.0848541259765625
1740251554766849300,12.609849365234375,0.1392974853515625,0.3935089111328125,1.122711181640625
1740251554776831200,12.619831298828124,0.159332275390625,0.3863372802734375,1.1177215576171875
1740251554786813200,12.629813232421874,0.1566314697265625,0.3801422119140625,1.0900726318359375
1740251554796795100,12.639795166015626,0.1405029296875,0.4039306640625,1.0777130126953125
1740251554806777300,12.64977734375,0.114410400390625,0.44805908203125,1.07159423828125
1740251554816759000,12.659759033203125,0.0885162353515625,0.472198486328125,1.0544281005859375
1740251554826741200,12.6697412109375,0.0550079345703125,0.4730377197265625,1.0365142822265625
1740251554836722200,12.67972216796875,0.01348876953125,0.4560089111328125,1.0354156494140625
1740251554846704000,12.6897041015625,-0.025421142578125,0.4174652099609375,1.056243896484375
1740251554856686000,12.69968603515625,-0.0560302734375,0.383697509765625,1.0596466064453125
1740251554866668300,12.709668212890625,-0.0756988525390625,0.3544921875,1.0563812255859375
1740251554876650000,12.71964990234375,-0.0800018310546875,0.32196044921875,1.0351104736328125
1740251554886632200,12.729632080078124,-0.0740966796875,0.2975616455078125,1.014312744140625
1740251554896614400,12.739614501953126,-0.05657958984375,0.294830322265625,0.99871826171875
1740251554906596000,12.74959619140625,-0.0322265625,0.3038482666015625,0.97857666015625
1740251554916578300,12.759578369140625,-0.01922607421875,0.31353759765625,0.9586639404296875
1740251554926560300,12.769560302734375,-0.0245208740234375,0.3141326904296875,0.9501800537109375
1740251554936542200,12.779542236328124,-0.0352783203125,0.3082427978515625,0.9556121826171875
1740251554946524200,12.789524169921876,-0.0317535400390625,0.30096435546875,0.9759979248046875
1740251554956506400,12.79950634765625,-0.005584716796875,0.2926025390625,1.0041656494140625
1740251554966488000,12.809488037109375,0.0372467041015625,0.283111572265625,1.0628662109375
1740251554976470300,12.81947021484375,0.1068572998046875,0.2630615234375,1.126434326171875
1740251554986452200,12.8294521484375,0.19091796875,0.234130859375,1.1446990966796875
1740251554996434200,12.83943408203125,0.269012451171875,0.21319580078125,1.11431884765625
1740251555006416100,12.849416015625,0.306854248046875,0.1974945068359375,1.0504913330078125
1740251555016398000,12.859398193359375,0.322357177734375,0.190765380859375,0.991241455078125
1740251555026380300,12.86938037109375,0.329986572265625,0.2003173828125,0.9520263671875
1740251555036362200,12.8793623046875,0.328857421875,0.2127685546875,0.9510040283203125
1740251555046344200,12.88934423828125,0.3198089599609375,0.2277984619140625,0.98712158203125
1740251555056326100,12.899326171875,0.2911376953125,0.23590087890625,1.0362091064453125
1740251555066308400,12.909308349609375,0.253936767578125,0.2437591552734375,1.0841827392578125
1740251555076290000,12.9192900390625,0.2228546142578125,0.247100830078125,1.1216278076171875
1740251555086272300,12.929272216796875,0.1983642578125,0.2501220703125,1.1547088623046875
1740251555096254200,12.939254150390624,0.1763916015625,0.260345458984375,1.18328857421875
1740251555106236200,12.949236083984376,0.1466217041015625,0.2774200439453125,1.217071533203125
1740251555116218000,12.959218017578126,0.1227569580078125,0.2993621826171875,1.2590789794921875
1740251555126200300,12.969200439453125,0.1036834716796875,0.3179168701171875,1.305877685546875
1740251555136182300,12.979182373046875,0.091796875,0.3170928955078125,1.355010986328125
1740251555146164200,12.989164306640625,0.0950164794921875,0.3090362548828125,1.419158935546875
1740251555156145200,12.999145263671876,0.1138763427734375,0.30975341796875,1.486663818359375
1740251555166127000,13.009127197265625,0.1232452392578125,0.3280487060546875,1.54248046875
1740251555176109300,13.019109375,0.114654541015625,0.353424072265625,1.5908966064453125
1740251555186091300,13.02909130859375,0.1024932861328125,0.383575439453125,1.656463623046875
1740251555196073200,13.0390732421875,0.1012115478515625,0.4026641845703125,1.71173095703125
1740251555206055200,13.04905517578125,0.1034088134765625,0.4136810302734375,1.7482452392578125
1740251555216037400,13.059037353515626,0.09063720703125,0.4098968505859375,1.7529449462890625
1740251555226019000,13.06901904296875,0.0665130615234375,0.3741302490234375,1.7225799560546875
1740251555236001300,13.079001220703125,0.0406036376953125,0.3057098388671875,1.636993408203125
