time,seconds_elapsed,z,y,x
1740251542202162700,0.04516259765625,0.5845550894737244,2.5955333709716797,-0.5957014560699463
1740251542212143900,0.055143798828125,0.5294182896614075,1.151241421699524,-1.1526278257369995
1740251542222125800,0.065125732421875,0.4520540237426758,-0.7287197113037109,-1.3274054527282715
1740251542232107800,0.075107666015625,0.7285662889480591,-2.2338831424713135,-1.5134589672088623
1740251542242089700,0.08508984375,1.1430484056472778,-3.610031843185425,-1.6606391668319702
1740251542252072000,0.095072021484375,1.6169794797897339,-4.547524929046631,-1.8806854486465454
1740251542262052900,0.105052978515625,1.8598507642745972,-2.137329578399658,-2.858637571334839
1740251542272034800,0.115034912109375,1.9448734521865845,0.9394606947898865,-3.568181276321411
1740251542282016800,0.125016845703125,2.098445415496826,1.9378610849380493,-3.6645572185516357
1740251542291999000,0.1349990234375,2.208280563354492,1.6985812187194824,-3.631859064102173
1740251542301980700,0.144980712890625,2.0803382396698,1.0859845876693726,-3.531052350997925
1740251542311961900,0.1549619140625,1.6059603691101074,0.6685724854469299,-3.3653879165649414
1740251542321943800,0.16494384765625,1.1111112833023071,0.9345412850379944,-3.2288150787353516
1740251542331925800,0.17492578125,0.4280674457550049,0.9199367761611938,-2.9258761405944824
1740251542341907700,0.18490771484375,-0.4323916435241699,0.05271967127919197,-2.6958467960357666
1740251542351889000,0.194888916015625,-1.0645732879638672,-0.4869685769081116,-2.5454843044281006
1740251542361870800,0.204870849609375,-1.3071016073226929,-0.49710750579833984,-2.4711456298828125
1740251542371852800,0.214852783203125,-1.416628360748291,-0.3858848512172699,-2.448462724685669
1740251542381834800,0.224834716796875,-1.472960352897644,-0.05416789650917053,-2.4446210861206055
1740251542391817000,0.23481689453125,-1.5014803409576416,0.44985663890838623,-2.420619487762451
1740251542401798000,0.2447978515625,-1.597094178199768,-0.037037912756204605,-2.0293707847595215
1740251542411779800,0.25477978515625,-1.630639672279358,-0.48820188641548157,-1.6058735847473145
1740251542421761800,0.26476171875,-1.6667492389678955,-1.3177955150604248,-1.1101669073104858
1740251542431743700,0.27474365234375,-1.691895842552185,-2.165862798690796,-0.6488807797431946
1740251542441725700,0.2847255859375,-1.6661877632141113,-2.683663845062256,-0.23329263925552368
1740251542451707000,0.294706787109375,-1.6201475858688354,-1.9722846746444702,0.15933187305927277
1740251542461688800,0.304688720703125,-1.6261085271835327,-0.5189638137817383,0.5813813805580139
1740251542471670800,0.3146708984375,-1.7724151611328125,0.42297470569610596,1.0635112524032593
1740251542481652700,0.32465283203125,-1.7923153638839722,1.0012623071670532,1.604792594909668
1740251542491635000,0.334635009765625,-1.6423910856246948,1.8725124597549438,2.182286262512207
1740251542501615900,0.344615966796875,-1.3194687366485596,3.3659701347351074,2.7824292182922363
1740251542511597800,0.354597900390625,-0.7924779057502747,5.137506008148193,3.3702566623687744
1740251542521579800,0.364579833984375,-0.10793764889240265,6.737375259399414,3.9249160289764404
1740251542531561700,0.374561767578125,0.5973033308982849,7.788330554962158,4.471044540405273
1740251542541543700,0.384543701171875,1.188844919204712,7.4892659187316895,5.087409973144531
1740251542551524900,0.39452490234375,1.0667028427124023,3.8669395446777344,4.850188732147217
1740251542561506800,0.4045068359375,0.7364700436592102,3.923955202102661,4.9204583168029785
1740251542571488800,0.41448876953125,0.1321532428264618,4.161557674407959,4.869345664978027
1740251542581470700,0.424470703125,-0.7236818075180054,4.6920695304870605,4.480665683746338
1740251542591453000,0.434452880859375,-1.809661865234375,5.527626037597656,3.609057664871216
1740251542601433900,0.444433837890625,-2.551363468170166,5.950887203216553,2.6911540031433105
1740251542611415800,0.454415771484375,-2.7582404613494873,5.644719123840332,1.9318970441818237
1740251542621397800,0.464397705078125,-2.492314577102661,5.060521602630615,1.2948321104049683
1740251542631380000,0.4743798828125,-2.0188822746276855,4.017149925231934,0.8217442035675049
1740251542641360600,0.484360595703125,-1.5660569667816162,2.782548189163208,0.3534989356994629
1740251542651342800,0.4943427734375,-1.3821641206741333,1.5215063095092773,-0.1782618761062622
1740251542661324800,0.50432470703125,-1.505190372467041,0.42444369196891785,-0.7039757370948792
1740251542671306800,0.514306640625,-1.7805956602096558,-0.4487122893333435,-1.1274313926696777
1740251542681288700,0.524288818359375,-2.0820069313049316,-1.1615363359451294,-1.3977731466293335
1740251542691270000,0.534269775390625,-2.360722541809082,-1.7770272493362427,-1.5768195390701294
1740251542701251800,0.544251953125,-2.625959873199463,-2.301060914993286,-1.7788219451904297
1740251542711233800,0.55423388671875,-2.8580026626586914,-2.3873188495635986,-2.0736355781555176
1740251542721215700,0.5642158203125,-3.073042392730713,-1.9276652336120605,-2.437934398651123
1740251542731198000,0.574197998046875,-3.188697338104248,-1.0078184604644775,-2.656801462173462
1740251542741178600,0.5841787109375,-3.1815147399902344,0.05624889209866524,-2.579564094543457
1740251542751160800,0.594160888671875,-3.1942036151885986,1.0164673328399658,-2.284403085708618
1740251542761142800,0.604142822265625,-3.3147552013397217,1.5485138893127441,-1.872268557548523
1740251542771124700,0.614124755859375,-3.5297317504882812,1.695173978805542,-1.4194883108139038
1740251542781106700,0.624106689453125,-3.879676342010498,1.6763347387313843,-0.9921902418136597
1740251542791087900,0.634087890625,-4.289908409118652,1.677935242652893,-0.6028360724449158
1740251542801069800,0.64406982421875,-4.652949333190918,1.9574519395828247,-0.1974685937166214
1740251542811051800,0.6540517578125,-4.874443531036377,2.45674204826355,0.20253846049308777
1740251542821033700,0.66403369140625,-4.83906364440918,3.0169131755828857,0.5937530994415283
1740251542831016000,0.674015869140625,-4.545164585113525,3.494244337081909,0.97723788022995
1740251542840996900,0.683996826171875,-4.097075462341309,3.8609111309051514,1.3233904838562012
1740251542850978800,0.693978759765625,-3.6697475910186768,4.310577392578125,1.5952675342559814
1740251542860960800,0.703960693359375,-3.3653042316436768,4.935472011566162,1.775730013847351
1740251542870942700,0.713942626953125,-3.2682461738586426,5.401461601257324,1.7201980352401733
1740251542880924700,0.723924560546875,-3.1246581077575684,6.198293685913086,1.635778546333313
1740251542890905900,0.73390576171875,-2.878791570663452,6.936384677886963,1.6388448476791382
1740251542900887800,0.7438876953125,-2.609576463699341,7.351146697998047,1.7535974979400635
1740251542910869800,0.753869873046875,-2.3109524250030518,7.648921489715576,1.983959674835205
1740251542920851700,0.763851806640625,-2.0345335006713867,7.722704887390137,2.2663400173187256
1740251542930834000,0.773833984375,-1.7330715656280518,7.534739017486572,2.618246555328369
1740251542940814800,0.78381494140625,-1.4070239067077637,7.136643886566162,2.978384494781494
1740251542950796800,0.793796875,-1.0985674858093262,6.513752460479736,3.2730331420898438
1740251542960778800,0.80377880859375,-0.8647611737251282,5.703677177429199,3.4559361934661865
1740251542970760700,0.8137607421875,-0.7614715099334717,4.735062599182129,3.495152235031128
1740251542980742700,0.82374267578125,-0.7721800804138184,3.7649898529052734,3.298642158508301
1740251542990724900,0.833724853515625,-0.8454609513282776,2.985384941101074,2.704461097717285
1740251543000705800,0.843705810546875,-0.8883538246154785,2.273747682571411,1.757361650466919
1740251543010687700,0.853687744140625,-0.835260808467865,1.4257919788360596,0.7605881690979004
1740251543020669700,0.863669677734375,-0.7552549242973328,0.4888354539871216,-0.05598284304141998
1740251543030652000,0.87365185546875,-0.7712485194206238,-0.4177740812301636,-0.6983473896980286
1740251543040633600,0.883633544921875,-0.8643217086791992,-1.318986177444458,-1.2463293075561523
1740251543050614800,0.89361474609375,-0.9719225168228149,-2.136186122894287,-1.765594244003296
1740251543060596700,0.9035966796875,-1.0912792682647705,-2.8326330184936523,-2.2652721405029297
1740251543070578700,0.91357861328125,-1.2292048931121826,-3.425116539001465,-2.662452459335327
1740251543080560600,0.923560546875,-1.4301449060440063,-3.8575029373168945,-2.873046875
1740251543090541800,0.933541748046875,-1.7057002782821655,-4.102855205535889,-2.93634295463562
1740251543100523800,0.943523681640625,-1.9805686473846436,-4.232891082763672,-2.9258949756622314
1740251543110505700,0.953505615234375,-2.0675578117370605,-4.314152717590332,-2.9191460609436035
1740251543120487700,0.96348779296875,-1.940347671508789,-4.408236026763916,-2.947787046432495
1740251543130470000,0.973469970703125,-1.7648680210113525,-4.426455020904541,-3.0237081050872803
1740251543140451600,0.98345166015625,-1.7726191282272339,-4.333576202392578,-3.1359524726867676
1740251543150432800,0.993432861328125,-2.0218420028686523,-4.275876998901367,-3.213869571685791
1740251543160414700,1.003414794921875,-2.3484408855438232,-4.282712459564209,-3.1959846019744873
1740251543170397000,1.01339697265625,-2.6619999408721924,-4.262584686279297,-3.0902090072631836
1740251543180378600,1.023378662109375,-2.9546070098876953,-4.141036033630371,-2.909811496734619
1740251543190360800,1.03336083984375,-3.197075605392456,-3.9874677658081055,-2.7001776695251465
1740251543200341800,1.043341796875,-3.3463993072509766,-3.7702879905700684,-2.4379498958587646
1740251543210323700,1.05332373046875,-3.3959999084472656,-3.5668890476226807,-2.0917491912841797
1740251543220305700,1.0633056640625,-3.3428142070770264,-3.449765920639038,-1.6897886991500854
1740251543230288000,1.073287841796875,-3.1559579372406006,-3.448946237564087,-1.2529892921447754
1740251543240269600,1.08326953125,-2.8112118244171143,-3.5077714920043945,-0.7961181998252869
1740251543250250800,1.093250732421875,-2.360931158065796,-3.597754955291748,-0.3127208948135376
1740251543260232700,1.103232666015625,-1.8717797994613647,-3.539614677429199,0.18761703372001648
1740251543270215000,1.11321484375,-1.3670554161071777,-3.175393581390381,0.6715006232261658
1740251543280196600,1.123196533203125,-0.8673673272132874,-2.484717607498169,1.084441065788269
1740251543290178800,1.1331787109375,-0.39321866631507874,-1.5918337106704712,1.4541970491409302
1740251543300159700,1.14315966796875,0.05191166698932648,-0.7829208970069885,1.7791231870651245
1740251543310141700,1.1531416015625,0.4612182080745697,-0.1277821958065033,2.06278395652771
1740251543320123600,1.16312353515625,0.8509926199913025,0.3771992027759552,2.2950494289398193
1740251543330105900,1.17310595703125,1.243613362312317,0.7318851351737976,2.4592649936676025
1740251543340087800,1.183087890625,1.6209851503372192,0.9480376839637756,2.547954559326172
1740251543350068700,1.19306884765625,1.9321616888046265,1.076314926147461,2.5600459575653076
1740251543360050700,1.20305078125,2.130476236343384,1.2014907598495483,2.4966301918029785
1740251543370033000,1.213032958984375,2.215247392654419,1.3767900466918945,2.3405580520629883
1740251543380014800,1.223014892578125,2.1886656284332275,1.7279422283172607,2.035813093185425
1740251543389996800,1.232996826171875,2.045142889022827,2.171525001525879,1.4920719861984253
1740251543399977700,1.242977783203125,1.8931021690368652,2.5461113452911377,0.7991288900375366
1740251543409959700,1.252959716796875,1.8206913471221924,2.7119054794311523,0.17558647692203522
1740251543419941600,1.262941650390625,1.8003432750701904,2.544170618057251,-0.25323280692100525
1740251543429923800,1.272923828125,1.8010934591293335,2.105348587036133,-0.5410643219947815
1740251543439905800,1.28290576171875,1.831248164176941,1.53961181640625,-0.7393537163734436
1740251543449886700,1.29288671875,1.9220139980316162,0.9561432600021362,-0.8605070114135742
1740251543459868700,1.30286865234375,2.0551137924194336,0.4379326105117798,-0.9568926692008972
1740251543469851000,1.312850830078125,2.1686630249023438,0.1263696551322937,-1.038033127784729
1740251543479832800,1.322832763671875,2.2121999263763428,-0.03718891367316246,-1.165747880935669
1740251543489814800,1.332814697265625,2.2390003204345703,-0.06540004163980484,-1.2721734046936035
1740251543499797000,1.342796875,2.1711559295654297,0.05006875842809677,-1.2744349241256714
1740251543509777700,1.352777587890625,2.0121009349823,0.29098522663116455,-1.1460444927215576
1740251543519760000,1.362759765625,1.7272708415985107,0.5773770213127136,-0.9273645877838135
1740251543529741800,1.372741943359375,1.4858391284942627,0.8099575638771057,-0.6032539010047913
1740251543539723800,1.382723876953125,1.3508645296096802,0.8765366077423096,-0.1811804473400116
1740251543549705700,1.392705810546875,1.3991779088974,0.8368799686431885,0.27905213832855225
1740251543559686700,1.402686767578125,1.6105365753173828,0.8194653391838074,0.7087393403053284
1740251543569668900,1.4126689453125,1.9438332319259644,0.9918969869613647,1.0134520530700684
1740251543579650800,1.42265087890625,2.311790704727173,1.407529592514038,1.1562169790267944
1740251543589632800,1.4326328125,2.6524906158447266,2.0567681789398193,1.1395421028137207
1740251543599615000,1.442614990234375,2.9370369911193848,2.893793821334839,1.005768060684204
1740251543609595600,1.452595703125,3.158196210861206,3.749483585357666,0.8095482587814331
1740251543619577900,1.462577880859375,3.294390916824341,4.353407382965088,0.6472506523132324
1740251543629560000,1.47256005859375,3.3077847957611084,4.5102434158325195,0.5501425266265869
1740251543639541800,1.482541748046875,3.188494920730591,4.273265361785889,0.49354633688926697
1740251543649524000,1.49252392578125,2.9804534912109375,3.7454891204833984,0.4630722999572754
1740251543659506000,1.502505859375,2.7323086261749268,3.0552597045898438,0.46553120017051697
1740251543669487000,1.512487060546875,2.5093746185302734,2.3904964923858643,0.4698798954486847
1740251543679468800,1.52246875,2.3590731620788574,1.811464548110962,0.4642033576965332
1740251543689451000,1.532450927734375,2.326911449432373,1.267121434211731,0.44919484853744507
1740251543699433000,1.542432861328125,2.4091646671295166,0.753142237663269,0.44299712777137756
1740251543709415000,1.552414794921875,2.559056043624878,0.24532639980316162,0.44841668009757996
1740251543719395800,1.562395751953125,2.688560724258423,-0.2040170431137085,0.4613471031188965
1740251543729378000,1.5723779296875,2.7482082843780518,-0.5522903203964233,0.4635260999202728
1740251543739359700,1.58235986328125,2.7566845417022705,-0.7802596092224121,0.4509546756744385
1740251543749342000,1.592342041015625,2.7382874488830566,-0.8752723932266235,0.4375786781311035
1740251543759324000,1.602323974609375,2.735093116760254,-0.8747575879096985,0.4347703754901886
1740251543769305000,1.61230517578125,2.7662017345428467,-0.8153190612792969,0.44277769327163696
1740251543779286800,1.622286865234375,2.8148744106292725,-0.7296246290206909,0.4575747549533844
1740251543789269000,1.63226904296875,2.868335485458374,-0.6385509371757507,0.47199949622154236
1740251543799251000,1.6422509765625,2.8965914249420166,-0.5331547260284424,0.4907638728618622
1740251543809233000,1.65223291015625,2.87489652633667,-0.4057144820690155,0.510086178779602
1740251543819213800,1.6622138671875,2.7790744304656982,-0.3217487335205078,0.5435610413551331
1740251543829196000,1.672196044921875,2.6114847660064697,-0.2759562134742737,0.5820748805999756
1740251543839177700,1.682177734375,2.385061502456665,-0.2288760542869568,0.628739595413208
1740251543849160000,1.692159912109375,2.1286215782165527,-0.13200810551643372,0.6926133632659912
1740251543859142000,1.702141845703125,1.8758283853530884,-0.00515827676281333,0.7624049782752991
1740251543869123800,1.712123779296875,1.6569956541061401,0.08431301265954971,0.8260822296142578
1740251543879104800,1.722104736328125,1.475736379623413,0.09503703564405441,0.8679558634757996
1740251543889087000,1.7320869140625,1.333618402481079,0.06175098195672035,0.886446475982666
1740251543899069000,1.74206884765625,1.2243661880493164,0.0056983656249940395,0.8799848556518555
1740251543909051000,1.75205078125,1.1381958723068237,-0.033669546246528625,0.8709098696708679
1740251543919032800,1.76203271484375,1.0466625690460205,-0.08432286977767944,0.8413538336753845
1740251543929014000,1.772013916015625,0.9405390024185181,-0.15353842079639435,0.7959016561508179
1740251543938995700,1.78199560546875,0.8098052144050598,-0.22725951671600342,0.7267151474952698
1740251543948978000,1.79197802734375,0.6359508633613586,-0.3087538480758667,0.6376987099647522
1740251543958959900,1.8019599609375,0.4385371506214142,-0.38094842433929443,0.533998966217041
1740251543968941800,1.81194189453125,0.281984806060791,-0.43576931953430176,0.4198726415634155
1740251543978922800,1.8219228515625,0.2003123164176941,-0.4541560411453247,0.29263079166412354
1740251543988905000,1.831905029296875,0.21072262525558472,-0.45226094126701355,0.1609009951353073
1740251543998887000,1.841886962890625,0.2612217366695404,-0.4292275309562683,0.04109497368335724
1740251544008868900,1.851868896484375,0.30654236674308777,-0.38241180777549744,-0.0541071780025959
1740251544018850800,1.861850830078125,0.27375245094299316,-0.3732319176197052,-0.08998341858386993
1740251544028833000,1.8718330078125,0.19455669820308685,-0.4528505802154541,-0.07094581425189972
1740251544038814000,1.88181396484375,0.11870827525854111,-0.6235426664352417,-0.0070858728140592575
1740251544048796000,1.8917958984375,0.054973501712083817,-0.8440254926681519,0.08857407420873642
1740251544058777900,1.90177783203125,0.005986253265291452,-1.0323659181594849,0.1950608342885971
1740251544068759000,1.911759033203125,-0.0024170849937945604,-1.094002366065979,0.31070035696029663
1740251544078740700,1.92174072265625,0.0312708355486393,-1.030425786972046,0.43605533242225647
1740251544088723000,1.931722900390625,0.07335490733385086,-0.871195375919342,0.5578212141990662
1740251544098705000,1.941704833984375,0.12028619647026062,-0.5870102047920227,0.659382700920105
1740251544108686800,1.951686767578125,0.15705406665802002,-0.2452068328857422,0.7183605432510376
1740251544118667800,1.961667724609375,0.14938922226428986,0.062258314341306686,0.7343243360519409
1740251544128650000,1.97164990234375,0.0879005640745163,0.29070159792900085,0.7340816855430603
1740251544138632000,1.9816318359375,-0.030283337458968163,0.446058452129364,0.7120091319084167
1740251544148614000,1.99161376953125,-0.23765143752098083,0.5305001139640808,0.6739419102668762
1740251544158595800,2.001595947265625,-0.5260257124900818,0.4944704473018646,0.6148197650909424
1740251544168577000,2.011576904296875,-0.8312442302703857,0.3945808708667755,0.5263990759849548
1740251544178558700,2.021558837890625,-1.1212395429611206,0.3166618347167969,0.3662533462047577
1740251544188541000,2.031541015625,-1.3788028955459595,0.30365654826164246,0.11659132689237595
1740251544198523000,2.04152294921875,-1.6033097505569458,0.3942703306674957,-0.2418171614408493
1740251544208504800,2.0515048828125,-1.7780344486236572,0.40254852175712585,-0.6392585039138794
1740251544218485800,2.06148583984375,-1.9655596017837524,0.32988229393959045,-0.9870042204856873
1740251544228468000,2.071468017578125,-2.1766881942749023,0.17604213953018188,-1.2950513362884521
1740251544238450000,2.081449951171875,-2.3909530639648438,-0.037992656230926514,-1.6178152561187744
1740251544248431900,2.091431884765625,-2.682929277420044,-0.20296509563922882,-2.030404806137085
1740251544258413800,2.101413818359375,-3.0922274589538574,-0.3334362804889679,-2.513781785964966
1740251544268395800,2.111395751953125,-3.5610172748565674,-0.49256736040115356,-3.0066754817962646
1740251544278376700,2.121376708984375,-4.026494979858398,-0.727445125579834,-3.4060332775115967
1740251544288359000,2.13135888671875,-4.3773088455200195,-1.0553337335586548,-3.6465628147125244
1740251544298340900,2.1413408203125,-4.543948173522949,-1.3780937194824219,-3.715573310852051
1740251544308322800,2.15132275390625,-4.49345588684082,-1.651036024093628,-3.651226043701172
1740251544318305000,2.161304931640625,-4.382465839385986,-1.8916257619857788,-3.4907071590423584
1740251544328286000,2.171285888671875,-4.327243804931641,-1.953718662261963,-3.227976083755493
1740251544338268000,2.181267822265625,-4.311539649963379,-1.8386248350143433,-2.8802530765533447
1740251544348249900,2.191249755859375,-4.266231536865234,-1.6413929462432861,-2.471134662628174
1740251544358232000,2.201232177734375,-4.154759407043457,-1.4389698505401611,-2.0211374759674072
1740251544368214000,2.211214111328125,-3.974421262741089,-1.1971601247787476,-1.5526487827301025
1740251544378196000,2.221196044921875,-3.678889751434326,-0.9163218140602112,-1.0870081186294556
1740251544388177000,2.231177001953125,-3.392381429672241,-0.7391699552536011,-0.7591918706893921
1740251544398158800,2.241158935546875,-2.938898801803589,-0.582114040851593,-0.643768846988678
1740251544408140800,2.251140869140625,-2.2496249675750732,-0.521088182926178,-0.7095428109169006
1740251544418123000,2.261123046875,-1.5525521039962769,-0.8044642806053162,-0.8408094644546509
1740251544428105000,2.27110498046875,-0.8901690244674683,-1.2566477060317993,-0.922910213470459
1740251544438086000,2.2810859375,-0.40186354517936707,-1.7169958353042603,-0.8602809309959412
1740251544448067800,2.29106787109375,-0.1831815391778946,-2.045366048812866,-0.6443667411804199
1740251544458050000,2.301050048828125,-0.13219958543777466,-2.1734251976013184,-0.3248651623725891
1740251544468032000,2.311031982421875,-0.16618870198726654,-2.168938636779785,0.032955020666122437
1740251544478014000,2.321013916015625,-0.23371954262256622,-2.1639838218688965,0.3676445782184601
1740251544487996000,2.330995849609375,-0.28469377756118774,-2.290128707885742,0.6268359422683716
1740251544497977000,2.34097705078125,-0.3342592120170593,-2.5177550315856934,0.7842918634414673
1740251544507958800,2.350958740234375,-0.35932859778404236,-2.660093307495117,0.8209121823310852
1740251544517941000,2.36094091796875,-0.321433961391449,-2.654313802719116,0.7481759786605835
1740251544527923000,2.3709228515625,-0.23656193912029266,-2.5300283432006836,0.5972748398780823
1740251544537905000,2.38090478515625,-0.15873105823993683,-2.4135749340057373,0.3910447359085083
1740251544547885800,2.3908857421875,-0.13187333941459656,-2.2976431846618652,0.1534726470708847
1740251544557868000,2.400867919921875,-0.17033392190933228,-2.2290239334106445,-0.08720733970403671
1740251544567850000,2.41085009765625,-0.20775212347507477,-2.1913444995880127,-0.31426525115966797
1740251544577832000,2.42083203125,-0.23614968359470367,-2.1351025104522705,-0.5057995319366455
1740251544587814000,2.43081396484375,-0.2321797013282776,-1.9939430952072144,-0.6378646492958069
1740251544597795800,2.4407958984375,-0.22705072164535522,-1.7770602703094482,-0.7403063178062439
1740251544607776800,2.45077685546875,-0.23021109402179718,-1.525512456893921,-0.810083270072937
1740251544617759000,2.460759033203125,-0.230598583817482,-1.3463139533996582,-0.8643597960472107
1740251544627741000,2.470740966796875,-0.14081090688705444,-1.4387059211730957,-0.9623414874076843
1740251544637722600,2.48072265625,-0.028259867802262306,-1.7010235786437988,-1.1420470476150513
1740251544647704800,2.490704833984375,-0.01471529621630907,-1.961410403251648,-1.4686299562454224
1740251544657685800,2.500685791015625,-0.05662493035197258,-2.16599178314209,-1.8647900819778442
1740251544667668000,2.51066796875,-0.029152825474739075,-2.371391534805298,-2.20243763923645
1740251544677649700,2.520649658203125,0.0676693245768547,-2.495088815689087,-2.408233404159546
1740251544687632000,2.5306318359375,0.26444950699806213,-2.4071836471557617,-2.4871985912323
1740251544697613800,2.54061376953125,0.4754011631011963,-1.77977454662323,-2.4523637294769287
1740251544707595800,2.550595703125,0.43832141160964966,-0.670070230960846,-2.328425884246826
1740251544717576700,2.56057666015625,0.14476065337657928,0.3174184262752533,-2.1130197048187256
1740251544727559000,2.570558837890625,-0.15813611447811127,0.8251687288284302,-1.8141040802001953
1740251544737540600,2.58054052734375,-0.28281012177467346,0.9277158975601196,-1.4890090227127075
1740251544747522800,2.590522705078125,-0.20765092968940735,0.683372974395752,-1.1985622644424438
1740251544757505000,2.600505126953125,0.07387475669384003,0.32361534237861633,-0.978127658367157
1740251544767486000,2.61048583984375,0.45477816462516785,0.23525886237621307,-0.8066432476043701
1740251544777467600,2.620467529296875,0.7477344274520874,0.5768662691116333,-0.6956749558448792
1740251544787449900,2.630449951171875,0.7505850791931152,1.25890052318573,-0.5988080501556396
1740251544797431800,2.640431884765625,0.4627370238304138,2.139192819595337,-0.41920605301856995
1740251544807413800,2.650413818359375,0.11721104383468628,3.141730785369873,-0.12136904150247574
1740251544817396000,2.66039599609375,-0.026006566360592842,4.300189971923828,0.296668142080307
1740251544827377000,2.670376953125,0.20884428918361664,5.415168762207031,0.8577740788459778
1740251544837358600,2.680358642578125,0.7403185367584229,5.980830669403076,1.5023083686828613
1740251544847340800,2.6903408203125,1.2486193180084229,5.76593542098999,2.146759510040283
1740251544857323000,2.700322998046875,1.7360845804214478,4.859923839569092,2.7987070083618164
1740251544867304700,2.7103046875,2.175245761871338,3.7931458950042725,3.3450021743774414
1740251544877287000,2.720286865234375,2.5396759510040283,2.9926772117614746,3.695680856704712
1740251544887267800,2.730267822265625,2.758730173110962,2.7772152423858643,3.7281861305236816
1740251544897250000,2.74025,2.824528694152832,3.0679521560668945,3.443608522415161
1740251544907231700,2.750231689453125,2.782525062561035,3.5171585083007812,2.994093894958496
1740251544917214000,2.7602138671875,2.6835038661956787,3.81396746635437,2.607238531112671
1740251544927196000,2.77019580078125,2.5876431465148926,3.736048460006714,2.4025113582611084
1740251544937176800,2.7801767578125,2.5437989234924316,3.3868496417999268,2.359466314315796
1740251544947158800,2.79015869140625,2.577481508255005,2.811201572418213,2.432694911956787
1740251544957141000,2.80014111328125,2.7281603813171387,2.2165274620056152,2.546769857406616
1740251544967122700,2.810122802734375,2.9553356170654297,1.7911508083343506,2.6226296424865723
1740251544977105000,2.82010498046875,3.1788899898529053,1.6013717651367188,2.60823655128479
1740251544987086800,2.8300869140625,3.3552966117858887,1.5475226640701294,2.522242307662964
1740251544997068000,2.840068115234375,3.43491530418396,1.533110499382019,2.407691717147827
1740251545007049700,2.8500498046875,3.428412675857544,1.4920580387115479,2.277111530303955
1740251545017032000,2.860031982421875,3.351402759552002,1.3825441598892212,2.0922768115997314
1740251545027014000,2.870013916015625,3.2467031478881836,1.2274160385131836,1.8314377069473267
1740251545036995800,2.879995849609375,3.136349678039551,1.127049207687378,1.4941917657852173
1740251545046977800,2.889977783203125,3.0113892555236816,1.1145315170288086,1.1077845096588135
1740251545056959000,2.899958984375,2.847991466522217,0.9938003420829773,0.6997737884521484
1740251545066940700,2.909940673828125,2.7077746391296387,0.7924840450286865,0.35316765308380127
1740251545076923000,2.9199228515625,2.615574598312378,0.6421464681625366,0.11675111949443817
1740251545086904800,2.92990478515625,2.5745432376861572,0.5433322787284851,-0.029167473316192627
1740251545096886800,2.93988671875,2.563938617706299,0.4422253668308258,-0.135873943567276
1740251545106867700,2.94986767578125,2.5729620456695557,0.3052096962928772,-0.23143695294857025
1740251545116850000,2.959849853515625,2.60174822807312,0.16283392906188965,-0.3582918345928192
1740251545126831900,2.969831787109375,2.6490070819854736,0.04344281554222107,-0.5065792798995972
1740251545136813800,2.979813720703125,2.702420234680176,-0.03267938271164894,-0.6609595417976379
1740251545146795800,2.989795654296875,2.7457661628723145,-0.05577777698636055,-0.80007404088974
1740251545156778000,2.999778076171875,2.7741239070892334,-0.033669013530015945,-0.9220715761184692
1740251545166758700,3.009758544921875,2.784304618835449,-0.009610283188521862,-1.0020606517791748
1740251545176740900,3.019740966796875,2.7705368995666504,0.008988967165350914,-1.0371630191802979
1740251545186722800,3.029722900390625,2.7428908348083496,0.05224775895476341,-1.025485873222351
1740251545196704800,3.039704833984375,2.710545063018799,0.12171125411987305,-0.9849355220794678
1740251545206686700,3.049686767578125,2.6756348609924316,0.22140562534332275,-0.9290868639945984
1740251545216669000,3.0596689453125,2.625393867492676,0.34051549434661865,-0.8574470281600952
1740251545226649900,3.06964990234375,2.5290074348449707,0.46910837292671204,-0.7532575130462646
1740251545236631800,3.0796318359375,2.332001209259033,0.5702613592147827,-0.5868232846260071
1740251545246613800,3.08961376953125,2.10273814201355,0.6465502381324768,-0.366451233625412
1740251545256596000,3.099595947265625,1.9175238609313965,0.69278484582901,-0.09183857589960098
1740251545266577700,3.10957763671875,1.8133854866027832,0.6300788521766663,0.20995056629180908
1740251545276558800,3.119558837890625,1.7917729616165161,0.36890533566474915,0.5338194370269775
1740251545286540800,3.129540771484375,1.82265043258667,-0.06634946167469025,0.8648413419723511
1740251545296522800,3.139522705078125,1.8557404279708862,-0.5908004641532898,1.2126197814941406
1740251545306504700,3.149504638671875,1.7798174619674683,-1.003090262413025,1.5541856288909912
1740251545316487000,3.15948681640625,1.583124041557312,-1.2066763639450073,1.8528051376342773
1740251545326468600,3.169468505859375,1.2820640802383423,-1.1854521036148071,2.056255578994751
1740251545336449800,3.17944970703125,0.9261137247085571,-1.0003538131713867,2.1406819820404053
1740251545346431700,3.189431640625,0.5347374677658081,-0.7772520780563354,2.109429359436035
1740251545356414000,3.1994140625,0.13696850836277008,-0.644445538520813,2.015011787414551
1740251545366395600,3.209395751953125,-0.28317153453826904,-0.6494139432907104,1.902836561203003
1740251545376377900,3.2193779296875,-0.7448419332504272,-0.7218868136405945,1.7641085386276245
1740251545386359800,3.22935986328125,-1.2535736560821533,-0.7749079465866089,1.5748635530471802
1740251545396340700,3.2393408203125,-1.8564528226852417,-0.7902458906173706,1.31135892868042
1740251545406322700,3.24932275390625,-2.5510404109954834,-0.7649040818214417,0.9944370985031128
1740251545416305000,3.259304931640625,-3.272120237350464,-0.773167610168457,0.6826944351196289
1740251545426286800,3.269286865234375,-3.9514431953430176,-0.8140977025032043,0.39946484565734863
1740251545436268800,3.279268798828125,-4.548196315765381,-0.8568249344825745,0.14414279162883759
1740251545446251000,3.2892509765625,-5.036096096038818,-0.8194069862365723,-0.08804463595151901
1740251545456232000,3.29923193359375,-5.388284206390381,-0.713767409324646,-0.30319130420684814
1740251545466213600,3.309213623046875,-5.599302768707275,-0.5700253844261169,-0.5014436841011047
1740251545476195800,3.31919580078125,-5.696991443634033,-0.4644901752471924,-0.6639617681503296
1740251545486178000,3.329177978515625,-5.697414398193359,-0.45790818333625793,-0.787228524684906
1740251545496159700,3.33915966796875,-5.648892879486084,-0.5402759909629822,-0.8983340263366699
1740251545506140700,3.349140625,-5.594570636749268,-0.7144020199775696,-1.0024290084838867
1740251545516123000,3.359122802734375,-5.5685343742370605,-0.8999859690666199,-1.1070417165756226
1740251545526104800,3.369104736328125,-5.586311340332031,-1.0533190965652466,-1.2213456630706787
1740251545536086800,3.379086669921875,-5.665663242340088,-1.0982245206832886,-1.3487342596054077
1740251545546069000,3.389069091796875,-5.787744522094727,-1.0388381481170654,-1.489702820777893
1740251545556050700,3.39905078125,-5.933415412902832,-0.9122796654701233,-1.61665940284729
1740251545566032000,3.409031982421875,-6.06403923034668,-0.8079457879066467,-1.713716983795166
1740251545576013800,3.419013916015625,-6.171275615692139,-0.7722094058990479,-1.7751984596252441
1740251545585996000,3.42899609375,-6.278467178344727,-0.859184741973877,-1.787171483039856
1740251545595977700,3.438977783203125,-6.330489158630371,-0.9959873557090759,-1.754294514656067
1740251545605960000,3.4489599609375,-6.2953057289123535,-1.093396782875061,-1.6705596446990967
1740251545615942000,3.45894189453125,-6.147444248199463,-1.1456271409988403,-1.542780876159668
1740251545625923600,3.468923583984375,-5.905313014984131,-1.2052891254425049,-1.3657253980636597
1740251545635905500,3.478905517578125,-5.60782527923584,-1.275498390197754,-1.152820110321045
1740251545645887500,3.488887451171875,-5.253740310668945,-1.3764811754226685,-0.937252402305603
1740251545655869400,3.498869384765625,-4.806868076324463,-1.5261430740356445,-0.7028194069862366
1740251545665851600,3.5088515625,-4.28799295425415,-1.6693016290664673,-0.4623686969280243
1740251545675833300,3.518833251953125,-3.7093911170959473,-1.7670761346817017,-0.22026792168617249
1740251545685814500,3.528814453125,-3.1106817722320557,-1.7851043939590454,0.020749486982822418
1740251545695796500,3.53879638671875,-2.5438809394836426,-1.806431770324707,0.22673992812633514
1740251545705778700,3.54877880859375,-2.0432655811309814,-1.807029366493225,0.3940240144729614
1740251545715760400,3.558760498046875,-1.6304641962051392,-1.8054804801940918,0.5216432213783264
1740251545725742600,3.56874267578125,-1.3114113807678223,-1.8110754489898682,0.6147499680519104
1740251545735724800,3.578724853515625,-1.0989161729812622,-1.7768837213516235,0.6667324900627136
1740251545745705700,3.588705810546875,-0.9667783379554749,-1.6918662786483765,0.6642948985099792
1740251545755687400,3.5986875,-0.8829888701438904,-1.5913738012313843,0.6259573698043823
1740251545765669600,3.608669677734375,-0.8118926286697388,-1.4847126007080078,0.5445277690887451
1740251545775651300,3.6186513671875,-0.7413893938064575,-1.4204784631729126,0.4266628921031952
1740251545785633500,3.628633544921875,-0.6650326251983643,-1.4140146970748901,0.24950011074543
1740251545795615700,3.63861572265625,-0.5806652307510376,-1.4474107027053833,0.025729332119226456
1740251545805596700,3.6485966796875,-0.5169637799263,-1.4437155723571777,-0.24795201420783997
1740251545815578400,3.658578369140625,-0.5090965032577515,-1.3642356395721436,-0.5470955967903137
1740251545825560600,3.668560546875,-0.5508109331130981,-1.1785377264022827,-0.8215460181236267
1740251545835542800,3.678542724609375,-0.6191055774688721,-0.9511657953262329,-1.0423367023468018
1740251545845524500,3.6885244140625,-0.6531357169151306,-0.7216519117355347,-1.1961371898651123
1740251545855506700,3.698506591796875,-0.6447914838790894,-0.5160077214241028,-1.2953399419784546
1740251545865487600,3.708487548828125,-0.6262511014938354,-0.34122923016548157,-1.3501076698303223
1740251545875469600,3.718469482421875,-0.6137696504592896,-0.163595050573349,-1.3527460098266602
1740251545885451500,3.728451416015625,-0.5995947122573853,0.06721978634595871,-1.2866082191467285
1740251545895433700,3.738433837890625,-0.5586196184158325,0.3523833453655243,-1.149831771850586
1740251545905415400,3.74841552734375,-0.43917950987815857,0.6520448923110962,-0.9695232510566711
1740251545915397600,3.758397705078125,-0.18863995373249054,0.8854855895042419,-0.77503502368927
1740251545925378600,3.768378662109375,0.22829335927963257,0.9700172543525696,-0.5971792340278625
1740251545935360800,3.77836083984375,0.7974252700805664,0.916488528251648,-0.46121716499328613
1740251545945342500,3.788342529296875,1.4778403043746948,0.8390616774559021,-0.3666040897369385
1740251545955324700,3.79832470703125,2.151982545852661,0.8461152911186218,-0.3140210509300232
1740251545965306600,3.808306640625,2.7155675888061523,0.8936803936958313,-0.2775818109512329
1740251545975288600,3.81828857421875,3.121546745300293,0.8609451055526733,-0.23926344513893127
1740251545985269500,3.82826953125,3.4163832664489746,0.7682234048843384,-0.17004309594631195
1740251545995251700,3.838251708984375,3.631113052368164,0.5748257637023926,-0.07878535985946655
1740251546005233400,3.8482333984375,3.806882381439209,0.3213844299316406,0.02213859185576439
1740251546015215600,3.858215576171875,3.982520818710327,0.11045407503843307,0.09363780915737152
1740251546025197600,3.868197509765625,4.171479225158691,0.05389385670423508,0.12992151081562042
1740251546035179500,3.878179443359375,4.359133720397949,0.15224599838256836,0.11143545061349869
1740251546045161500,3.888161376953125,4.537242412567139,0.3809894323348999,0.05143203213810921
1740251546055143700,3.898143798828125,4.709644794464111,0.683519184589386,-0.015913186594843864
1740251546065125400,3.90812548828125,4.878857135772705,0.9658685922622681,-0.02990943007171154
1740251546075107600,3.918107666015625,5.031296730041504,1.2060575485229492,0.008189219981431961
1740251546085088500,3.928088623046875,5.157583713531494,1.4145814180374146,0.09108810126781464
1740251546095070700,3.93807080078125,5.2229437828063965,1.5716373920440674,0.20913776755332947
1740251546105052400,3.948052490234375,5.1860809326171875,1.6066179275512695,0.37762531638145447
1740251546115034600,3.95803466796875,5.066496849060059,1.5975857973098755,0.5974801778793335
1740251546125016600,3.9680166015625,4.919105529785156,1.5943447351455688,0.8822416067123413
1740251546134998500,3.97799853515625,4.793215751647949,1.5857715606689453,1.20293390750885
1740251546144979500,3.9879794921875,4.6931281089782715,1.4957215785980225,1.537538766860962
1740251546154961700,3.997961669921875,4.626502990722656,1.2543059587478638,1.8259207010269165
1740251546164943400,4.007943359375,4.574406147003174,0.9328648447990417,2.017502546310425
1740251546174925600,4.017925537109375,4.508089542388916,0.6493340730667114,2.090419292449951
1740251546184907800,4.02790771484375,4.418117523193359,0.5073593258857727,2.0380423069000244
1740251546194889500,4.037889404296875,4.305398941040039,0.5393908023834229,1.8675049543380737
1740251546204870400,4.047870361328125,4.159422397613525,0.7024460434913635,1.5782015323638916
1740251546214852600,4.0578525390625,4.018194675445557,0.8134673237800598,1.226186990737915
1740251546224834600,4.06783447265625,3.916006326675415,0.837345540523529,0.9087227582931519
1740251546234816500,4.07781640625,3.8402247428894043,0.757550835609436,0.6575773358345032
1740251546244798700,4.087798828125,3.7773969173431396,0.6014522910118103,0.4672505557537079
1740251546254780400,4.097780517578125,3.7155816555023193,0.48509371280670166,0.3127847909927368
1740251546264761600,4.10776171875,3.6391942501068115,0.4644731283187866,0.16699111461639404
1740251546274743600,4.11774365234375,3.5551681518554688,0.5242667198181152,0.014615427702665329
1740251546284725800,4.127725830078125,3.4714860916137695,0.5927703976631165,-0.1384153962135315
1740251546294707500,4.13770751953125,3.403308868408203,0.5866578817367554,-0.2571500539779663
1740251546304689700,4.147689697265625,3.3427376747131348,0.5104246735572815,-0.3272170126438141
1740251546314671600,4.157671630859375,3.2750017642974854,0.42849355936050415,-0.36936792731285095
1740251546324653600,4.167653564453125,3.2005057334899902,0.3774349093437195,-0.40464654564857483
1740251546334634500,4.177634521484375,3.1320316791534424,0.39912527799606323,-0.4455135464668274
1740251546344616700,4.18761669921875,3.0829341411590576,0.49293166399002075,-0.4948755204677582
1740251546354598400,4.197598388671875,3.079010009765625,0.6596101522445679,-0.554705798625946
1740251546364580600,4.20758056640625,3.1270720958709717,0.8495950102806091,-0.6052448749542236
1740251546374561500,4.2175615234375,3.189164400100708,1.0374953746795654,-0.6457307934761047
1740251546384543700,4.227543701171875,3.220637321472168,1.2172281742095947,-0.6794165968894958
1740251546394525400,4.237525390625,3.1672747135162354,1.2855349779129028,-0.6854270696640015
1740251546404507600,4.247507568359375,3.043720245361328,1.1723793745040894,-0.6495764255523682
1740251546414489600,4.257489501953125,2.8881585597991943,0.9482784271240234,-0.5607160329818726
1740251546424470800,4.267470703125,2.7125658988952637,0.700934112071991,-0.41561585664749146
1740251546434452500,4.277452392578125,2.5177884101867676,0.47786352038383484,-0.2300577014684677
1740251546444434700,4.2874345703125,2.306891441345215,0.2786619961261749,-0.014730743132531643
1740251546454416600,4.297416748046875,2.0847039222717285,0.09945841133594513,0.19686858355998993
1740251546464398600,4.307398681640625,1.8348274230957031,-0.07861411571502686,0.3915853500366211
1740251546474380500,4.317380615234375,1.547831654548645,-0.29526281356811523,0.5358818173408508
1740251546484361700,4.32736181640625,1.2089065313339233,-0.536166787147522,0.6379748582839966
1740251546494343400,4.337343505859375,0.8192451000213623,-0.767784833908081,0.6808515191078186
1740251546504325600,4.34732568359375,0.36170175671577454,-0.9792789220809937,0.6749307513237
1740251546514307600,4.3573076171875,-0.1696247160434723,-1.1372747421264648,0.6471553444862366
1740251546524289500,4.36728955078125,-0.7813565731048584,-1.2761396169662476,0.6302613019943237
1740251546534271500,4.377271484375,-1.4520866870880127,-1.4261078834533691,0.6489066481590271
1740251546544252700,4.387252685546875,-2.1655077934265137,-1.5775279998779297,0.6942123174667358
1740251546554234600,4.397234619140625,-2.9030895233154297,-1.6916407346725464,0.7445223927497864
1740251546564216600,4.407216552734375,-3.616145372390747,-1.7128239870071411,0.7792012691497803
1740251546574198500,4.417198486328125,-4.2367377281188965,-1.6590532064437866,0.7748152613639832
1740251546584180500,4.427180419921875,-4.7335076332092285,-1.561906099319458,0.7354058027267456
1740251546594162400,4.437162353515625,-5.089585304260254,-1.4163150787353516,0.6935827732086182
1740251546604144600,4.44714453125,-5.30571985244751,-1.1701545715332031,0.6517652869224548
1740251546614125600,4.45712548828125,-5.355751037597656,-0.7099452018737793,0.6154322624206543
1740251546624107500,4.467107421875,-5.199984550476074,0.039322905242443085,0.5722659230232239
1740251546634089200,4.477089111328125,-4.812691688537598,0.931799590587616,0.5059798359870911
1740251546644071200,4.4870712890625,-4.28379487991333,1.691317081451416,0.4003407657146454
1740251546654053000,4.49705322265625,-3.877185344696045,2.2047243118286133,0.2690373361110687
1740251546664035000,4.50703515625,-3.8375461101531982,2.4246366024017334,0.09534729272127151
1740251546674017300,4.517017333984375,-4.181766986846924,2.2956252098083496,-0.11232893913984299
1740251546683998200,4.526998291015625,-4.758344650268555,1.82355535030365,-0.3324029743671417
1740251546693980200,4.536980224609375,-5.338409900665283,1.2343999147415161,-0.5167350172996521
1740251546703962000,4.546962158203125,-5.6962127685546875,0.7971794605255127,-0.6869136691093445
1740251546713944300,4.5569443359375,-5.786244869232178,0.28417155146598816,-0.891367495059967
1740251546723926000,4.566926025390625,-5.691948413848877,-0.3543194532394409,-1.1657174825668335
1740251546733908200,4.576908203125,-5.563185691833496,-1.0467109680175781,-1.511474609375
1740251546743889200,4.58688916015625,-5.503910064697266,-1.6787095069885254,-1.9082227945327759
1740251546753871000,4.59687109375,-5.560338497161865,-2.1416540145874023,-2.285590648651123
1740251546763853000,4.60685302734375,-5.731908798217773,-2.4715723991394043,-2.597533702850342
1740251546773835300,4.616835205078125,-5.956021785736084,-2.7228965759277344,-2.8146607875823975
1740251546783817000,4.62681689453125,-6.17919397354126,-2.8307995796203613,-2.87785267829895
1740251546793799200,4.636799072265625,-6.369255065917969,-2.753441333770752,-2.7607548236846924
1740251546803781400,4.646781494140625,-6.464003086090088,-2.5930309295654297,-2.478144645690918
1740251546813762300,4.65676220703125,-6.4768853187561035,-2.4050049781799316,-2.0940542221069336
1740251546823744000,4.666743896484375,-6.391096591949463,-2.172337055206299,-1.6722691059112549
1740251546833726200,4.676726318359375,-6.228214740753174,-1.9577720165252686,-1.2630952596664429
1740251546843708200,4.686708251953125,-5.995295524597168,-1.802996277809143,-0.8543729782104492
1740251546853690000,4.696690185546875,-5.701151371002197,-1.639299988746643,-0.43036043643951416
1740251546863672300,4.70667236328125,-5.362843036651611,-1.4332085847854614,0.012746687978506088
1740251546873654000,4.716654052734375,-4.947152137756348,-1.215191125869751,0.4507986009120941
1740251546883635000,4.726635009765625,-4.450480937957764,-1.0538362264633179,0.8609182238578796
1740251546893617200,4.7366171875,-3.9060099124908447,-0.951605498790741,1.218489646911621
1740251546903599400,4.746599365234375,-3.3229079246520996,-0.8624913692474365,1.5062618255615234
1740251546913581000,4.7565810546875,-2.7599380016326904,-0.8002053499221802,1.7365357875823975
1740251546923563300,4.766563232421875,-2.286281108856201,-0.7343307137489319,1.9189941883087158
1740251546933545200,4.776545166015625,-1.9529402256011963,-0.6617595553398132,2.0682625770568848
1740251546943526100,4.786526123046875,-1.7427688837051392,-0.5969483256340027,2.1760735511779785
1740251546953508000,4.796508056640625,-1.6299242973327637,-0.5452840924263,2.2309062480926514
1740251546963490300,4.806490234375,-1.5906126499176025,-0.5013107657432556,2.211832284927368
1740251546973472000,4.816471923828125,-1.6063984632492065,-0.3804645240306854,2.109304189682007
1740251546983454200,4.8264541015625,-1.6455330848693848,-0.1288120448589325,1.9428085088729858
1740251546993436200,4.836436279296875,-1.652538537979126,0.270137757062912,1.7538551092147827
1740251547003418000,4.846418212890625,-1.5609740018844604,0.6839476823806763,1.5998862981796265
1740251547013399000,4.85639892578125,-1.3454798460006714,0.9571805596351624,1.4982398748397827
1740251547023381200,4.86638134765625,-1.0259404182434082,0.96938157081604,1.3750749826431274
1740251547033363200,4.87636328125,-0.6697536110877991,0.7547758221626282,1.1543657779693604
1740251547043345200,4.88634521484375,-0.3398020565509796,0.49721989035606384,0.7760973572731018
1740251547053327000,4.8963271484375,-0.07053648680448532,0.2841225266456604,0.22606082260608673
1740251547063309300,4.906309326171875,0.12839126586914062,0.07074767351150513,-0.42941367626190186
1740251547073291000,4.916291015625,0.3278180956840515,-0.2201419472694397,-1.038218379020691
1740251547083272200,4.926272216796875,0.5917051434516907,-0.6152514815330505,-1.4865938425064087
1740251547093254100,4.936254150390625,0.9011516571044922,-1.0590858459472656,-1.7399499416351318
1740251547103236000,4.946236083984375,1.2363221645355225,-1.4272713661193848,-1.8410677909851074
1740251547113218000,4.956218017578125,1.6284124851226807,-1.6978904008865356,-1.8493036031723022
1740251547123200300,4.9662001953125,2.08038330078125,-1.8898032903671265,-1.8090773820877075
1740251547133182000,4.976181884765625,2.547255277633667,-1.9410377740859985,-1.744362473487854
1740251547143163100,4.9861630859375,3.0140221118927,-1.8039206266403198,-1.6720882654190063
1740251547153145000,4.99614501953125,3.4539878368377686,-1.5309064388275146,-1.593062162399292
1740251547163127300,5.006127197265625,3.8599438667297363,-1.1461760997772217,-1.4914034605026245
1740251547173109000,5.01610888671875,4.190647602081299,-0.7325786352157593,-1.357177495956421
1740251547183091200,5.02609130859375,4.429366111755371,-0.3544400930404663,-1.1786482334136963
1740251547193073200,5.0360732421875,4.568222522735596,-0.06655345857143402,-0.9589073657989502
1740251547203055000,5.04605517578125,4.668604373931885,0.16661694645881653,-0.7051920294761658
1740251547213036000,5.0560361328125,4.772610664367676,0.38503289222717285,-0.4216007590293884
1740251547223018200,5.066018310546875,4.875047206878662,0.6559783816337585,-0.12276320159435272
1740251547233000000,5.076,4.978034019470215,1.0025835037231445,0.1590045690536499
1740251547242982100,5.085982177734375,5.08437442779541,1.3912668228149414,0.4229065179824829
1740251547252964400,5.09596435546875,5.143227577209473,1.7678358554840088,0.6786144375801086
1740251547262946000,5.105946044921875,5.140028476715088,2.0656063556671143,0.9411216974258423
1740251547272928300,5.11592822265625,5.0849504470825195,2.2878010272979736,1.220725178718567
1740251547282909200,5.1259091796875,4.9875288009643555,2.4742395877838135,1.5267705917358398
1740251547292891100,5.13589111328125,4.898486614227295,2.6193790435791016,1.8471440076828003
1740251547302873000,5.145873046875,4.839217662811279,2.6490495204925537,2.1603200435638428
1740251547312855300,5.155855224609375,4.817564487457275,2.5537686347961426,2.4094998836517334
1740251547322837000,5.1658369140625,4.832023620605469,2.401543378829956,2.5506107807159424
1740251547332819200,5.175819091796875,4.842742919921875,2.2652485370635986,2.564795970916748
1740251547342801200,5.18580126953125,4.788034915924072,2.154895544052124,2.470757007598877
1740251547352782300,5.1957822265625,4.650948524475098,2.0674147605895996,2.2865185737609863
1740251547362764000,5.205763916015625,4.460944652557373,2.0351858139038086,2.0246071815490723
1740251547372746200,5.215746337890625,4.257617950439453,2.0488924980163574,1.6949278116226196
1740251547382728200,5.225728271484375,4.081981182098389,2.0269880294799805,1.337585210800171
1740251547392710100,5.235710205078125,3.937865972518921,1.8911421298980713,0.9989535808563232
1740251547402692000,5.245692138671875,3.835237741470337,1.6470801830291748,0.693152904510498
1740251547412674300,5.25567431640625,3.7437756061553955,1.3595919609069824,0.3951704800128937
1740251547422656000,5.265656005859375,3.623814821243286,1.100968360900879,0.083066925406456
1740251547432637200,5.27563720703125,3.482322931289673,0.9094090461730957,-0.24381345510482788
1740251547442619100,5.285619140625,3.3285021781921387,0.7761207818984985,-0.5726630091667175
1740251547452601000,5.29560107421875,3.2043468952178955,0.6562929153442383,-0.8926063776016235
1740251547462583000,5.3055830078125,3.114403009414673,0.47363388538360596,-1.1759341955184937
1740251547472565200,5.315565185546875,3.044301748275757,0.21539939939975739,-1.4080520868301392
1740251547482547000,5.325546875,2.9868927001953125,-0.0572182834148407,-1.5663610696792603
1740251547492529200,5.335529052734375,2.934023141860962,-0.3056914806365967,-1.6590710878372192
1740251547502510000,5.345510009765625,2.8720319271087646,-0.4958081543445587,-1.6929144859313965
1740251547512492300,5.3554921875,2.801793098449707,-0.63629150390625,-1.6713671684265137
1740251547522474000,5.365473876953125,2.7358665466308594,-0.7903721332550049,-1.5998036861419678
1740251547532456200,5.375456298828125,2.676438808441162,-0.9949556589126587,-1.475517749786377
1740251547542438100,5.385438232421875,2.6175496578216553,-1.22604238986969,-1.314115285873413
1740251547552420000,5.395420166015625,2.5556671619415283,-1.4191604852676392,-1.1186174154281616
1740251547562402300,5.40540234375,2.4788906574249268,-1.5868679285049438,-0.8959547877311707
1740251547572383200,5.41538330078125,2.4054019451141357,-1.720897912979126,-0.6243813037872314
1740251547582365000,5.425364990234375,2.3490052223205566,-1.8399779796600342,-0.29553043842315674
1740251547592347100,5.43534716796875,2.2908272743225098,-1.9527114629745483,0.06332837045192719
1740251547602329300,5.445329345703125,2.16987943649292,-2.120685338973999,0.41588082909584045
1740251547612311000,5.45531103515625,1.9604066610336304,-2.2550137042999268,0.7460635304450989
1740251547622293200,5.465293212890625,1.6636362075805664,-2.2724812030792236,1.03244948387146
1740251547632275500,5.475275390625,1.2959487438201904,-2.1217315196990967,1.2537405490875244
1740251547642256400,5.48525634765625,0.8848949074745178,-1.8436754941940308,1.3926140069961548
1740251547652238300,5.49523828125,0.4527299106121063,-1.4403730630874634,1.411643624305725
1740251547662220300,5.50522021484375,0.00040799626731313765,-0.8605818748474121,1.2258738279342651
1740251547672202200,5.5152021484375,-0.4749966263771057,-0.26625457406044006,0.8651454448699951
1740251547682184200,5.52518408203125,-0.9734399914741516,0.102016381919384,0.530561089515686
1740251547692166400,5.53516650390625,-1.4897733926773071,0.1360212117433548,0.36173078417778015
1740251547702148000,5.545148193359375,-2.0245842933654785,-0.0812157616019249,0.3390941619873047
1740251547712129300,5.55512939453125,-2.544525146484375,-0.4132291078567505,0.38395458459854126
1740251547722111200,5.565111328125,-3.006197214126587,-0.6853152513504028,0.4219762682914734
1740251547732093400,5.575093505859375,-3.3792474269866943,-0.7903918623924255,0.3752833306789398
1740251547742075100,5.5850751953125,-3.67978835105896,-0.7602901458740234,0.24836985766887665
1740251547752057300,5.595057373046875,-3.939972162246704,-0.6722092628479004,0.11268207430839539
1740251547762039300,5.605039306640625,-4.181185722351074,-0.6278005242347717,0.032822128385305405
1740251547772021200,5.615021240234375,-4.3947272300720215,-0.6833212971687317,-0.0007360977469943464
1740251547782003200,5.625003173828125,-4.570504188537598,-0.7851043939590454,-0.023331953212618828
1740251547791984400,5.634984375,-4.702346324920654,-0.7997451424598694,-0.07280442863702774
1740251547801966000,5.644966064453125,-4.821404457092285,-0.6289414167404175,-0.19555191695690155
1740251547811948300,5.6549482421875,-4.963934421539307,-0.2680985629558563,-0.4177575707435608
1740251547821930200,5.66493017578125,-5.1330342292785645,0.15955078601837158,-0.6822518110275269
1740251547831912200,5.674912109375,-5.325860977172852,0.4963626265525818,-0.8817465305328369
1740251547841894400,5.684894287109375,-5.499139308929443,0.6356675028800964,-0.9621673226356506
1740251547851876400,5.69487646484375,-5.650158405303955,0.6176568269729614,-0.9239022135734558
1740251547861857300,5.704857177734375,-5.759087562561035,0.5536554455757141,-0.7978601455688477
1740251547871839200,5.714839111328125,-5.8424296379089355,0.4448744058609009,-0.6074209809303284
1740251547881821400,5.724821533203125,-5.9093756675720215,0.2957163453102112,-0.37194105982780457
1740251547891803400,5.734803466796875,-5.927346229553223,0.13159024715423584,-0.06756892055273056
1740251547901785300,5.744785400390625,-5.89023494720459,0.03151851147413254,0.31954389810562134
1740251547911767300,5.754767333984375,-5.7854413986206055,-0.020747356116771698,0.7719736695289612
1740251547921749200,5.764749267578125,-5.609687805175781,-0.08802706003189087,1.2550405263900757
1740251547931731200,5.774731201171875,-5.359459400177002,-0.2231268286705017,1.7197144031524658
1740251547941712400,5.78471240234375,-5.053020000457764,-0.4684945046901703,2.119267463684082
1740251547951694300,5.7946943359375,-4.710071086883545,-0.7602299451828003,2.4192869663238525
1740251547961676300,5.80467626953125,-4.353221893310547,-1.0366008281707764,2.5942704677581787
1740251547971658200,5.814658203125,-4.010413646697998,-1.2506475448608398,2.6395156383514404
1740251547981640400,5.824640380859375,-3.7034382820129395,-1.383023977279663,2.5774450302124023
1740251547991622100,5.8346220703125,-3.45432448387146,-1.4704822301864624,2.4230403900146484
1740251548001604400,5.844604248046875,-3.2510488033294678,-1.5516133308410645,2.197723627090454
1740251548011585300,5.854585205078125,-3.1149981021881104,-1.6211180686950684,1.8927717208862305
1740251548021567200,5.864567138671875,-3.0622615814208984,-1.648329734802246,1.501894235610962
1740251548031549200,5.874549072265625,-3.073533535003662,-1.64048433303833,1.0406166315078735
1740251548041531400,5.884531494140625,-3.1200149059295654,-1.6222184896469116,0.5648287534713745
1740251548051513000,5.89451318359375,-3.1593286991119385,-1.6292529106140137,0.1156456395983696
1740251548061495300,5.904495361328125,-3.1628191471099854,-1.6915712356567383,-0.2910347580909729
1740251548071477200,5.914477294921875,-3.1211047172546387,-1.7720698118209839,-0.6537903547286987
1740251548081459200,5.924459228515625,-3.035735607147217,-1.825719952583313,-0.9548060894012451
1740251548091440000,5.934440185546875,-2.9264369010925293,-1.8108373880386353,-1.1868422031402588
1740251548101422300,5.94442236328125,-2.795109748840332,-1.7351561784744263,-1.3482513427734375
1740251548111404300,5.954404296875,-2.6337010860443115,-1.5916507244110107,-1.4447331428527832
1740251548121386200,5.96438623046875,-2.421220541000366,-1.429246425628662,-1.4820741415023804
1740251548131368200,5.9743681640625,-2.166918992996216,-1.2527110576629639,-1.468065619468689
1740251548141350100,5.98435009765625,-1.920309066772461,-1.0746054649353027,-1.404738426208496
1740251548151332400,5.994332275390625,-1.6934397220611572,-0.8858901262283325,-1.2909785509109497
1740251548161313300,6.004313232421875,-1.4860789775848389,-0.7128459215164185,-1.1367602348327637
1740251548171295200,6.014295166015625,-1.29642915725708,-0.5484945178031921,-0.9596482515335083
1740251548181277200,6.024277099609375,-1.1554558277130127,-0.4126583933830261,-0.7655506730079651
1740251548191259400,6.03425927734375,-1.0342881679534912,-0.3860848546028137,-0.5773062109947205
1740251548201241300,6.044241455078125,-0.8921770453453064,-0.4449705481529236,-0.3910985291004181
1740251548211223300,6.054223388671875,-0.6904948353767395,-0.4725441038608551,-0.23774944245815277
1740251548221205200,6.064205322265625,-0.43549075722694397,-0.41410183906555176,-0.13226616382598877
1740251548231187500,6.0741875,-0.12474539130926132,-0.3003329336643219,-0.08568694442510605
1740251548241168400,6.08416845703125,0.2717726528644562,-0.18192878365516663,-0.1032872423529625
1740251548251150300,6.094150390625,0.7633586525917053,-0.09842963516712189,-0.18330350518226624
1740251548261132300,6.10413232421875,1.3235719203948975,-0.06684187799692154,-0.35125336050987244
1740251548271114200,6.1141142578125,1.863683819770813,-0.11389274895191193,-0.6029428839683533
1740251548281096200,6.12409619140625,2.3253886699676514,-0.2504575252532959,-0.9064756035804749
1740251548291078400,6.134078369140625,2.6517481803894043,-0.49764201045036316,-1.2194467782974243
1740251548301060000,6.14406005859375,2.8288016319274902,-0.8028285503387451,-1.4871439933776855
1740251548311042300,6.154042236328125,2.9075400829315186,-1.0508599281311035,-1.6827137470245361
1740251548321023200,6.164023193359375,2.955002784729004,-1.169764518737793,-1.789931297302246
1740251548331005400,6.17400537109375,3.023749589920044,-1.15738844871521,-1.8131003379821777
1740251548340987100,6.183987060546875,3.11055064201355,-1.0026206970214844,-1.7494722604751587
1740251548350969300,6.19396923828125,3.2226171493530273,-0.7548189163208008,-1.6225159168243408
1740251548360951300,6.203951416015625,3.3404061794281006,-0.44546401500701904,-1.4405832290649414
1740251548370933200,6.213933349609375,3.5032060146331787,-0.07829081267118454,-1.2167325019836426
1740251548380915200,6.223915283203125,3.692516326904297,0.34980568289756775,-0.9538090229034424
1740251548390897200,6.233897216796875,3.8755998611450195,0.7930941581726074,-0.6588923931121826
1740251548400878000,6.243878173828125,3.9939236640930176,1.1868672370910645,-0.3426066040992737
1740251548410860300,6.2538603515625,4.075916767120361,1.5121638774871826,-0.00917512271553278
1740251548420842200,6.26384228515625,4.137630462646484,1.6994719505310059,0.3262830376625061
1740251548430824200,6.27382421875,4.218130588531494,1.7578482627868652,0.6497032046318054
1740251548440806400,6.283806396484375,4.318684101104736,1.7207744121551514,0.9246702790260315
1740251548450788400,6.293788330078125,4.411667346954346,1.6908018589019775,1.130553960800171
1740251548460770300,6.303770263671875,4.490701198577881,1.7207608222961426,1.2396535873413086
1740251548470752300,6.313752197265625,4.568783760070801,1.8035129308700562,1.261375904083252
1740251548480733400,6.3237333984375,4.660539150238037,1.8966255187988281,1.1933931112289429
1740251548490715400,6.33371533203125,4.751925468444824,1.9641704559326172,1.0438244342803955
1740251548500697300,6.343697265625,4.803443431854248,1.941910743713379,0.8397830724716187
1740251548510679300,6.35367919921875,4.814640522003174,1.8055484294891357,0.6239085793495178
1740251548520661200,6.3636611328125,4.801059246063232,1.5787464380264282,0.43448406457901
1740251548530643200,6.373643310546875,4.7772722244262695,1.2876487970352173,0.2824964225292206
1740251548540625400,6.38362548828125,4.737575531005859,0.9614940881729126,0.15187714993953705
1740251548550607000,6.393607177734375,4.66797399520874,0.6206233501434326,0.0035718316212296486
1740251548560588300,6.40358837890625,4.599370956420898,0.32460683584213257,-0.1723395437002182
1740251548570570200,6.4135703125,4.561086177825928,0.08464217931032181,-0.35990971326828003
1740251548580552400,6.423552490234375,4.5570831298828125,-0.08888006955385208,-0.5397873520851135
1740251548590534100,6.4335341796875,4.563599109649658,-0.21266458928585052,-0.6802411079406738
1740251548600516400,6.443516357421875,4.578305721282959,-0.2833411693572998,-0.7703846096992493
1740251548610498300,6.453498291015625,4.584967136383057,-0.295129656791687,-0.8013161420822144
1740251548620480300,6.463480224609375,4.576938629150391,-0.27324992418289185,-0.7856993675231934
1740251548630461400,6.47346142578125,4.533746719360352,-0.24926522374153137,-0.7203693389892578
1740251548640442600,6.483442626953125,4.47216796875,-0.24050208926200867,-0.6115323305130005
1740251548650424600,6.493424560546875,4.386667728424072,-0.25471776723861694,-0.4672396183013916
1740251548660406500,6.503406494140625,4.282930374145508,-0.30799323320388794,-0.291395366191864
1740251548670388500,6.513388427734375,4.150726318359375,-0.4496198892593384,-0.09033868461847305
1740251548680370700,6.52337060546875,4.008843898773193,-0.624704897403717,0.1317143589258194
1740251548690352400,6.533352294921875,3.866490125656128,-0.7502556443214417,0.36025911569595337
1740251548700334600,6.54333447265625,3.7359373569488525,-0.8037406802177429,0.5688826441764832
1740251548710316500,6.553316650390625,3.6168365478515625,-0.7928137183189392,0.7306009531021118
1740251548720298500,6.563298583984375,3.495833158493042,-0.7300044298171997,0.845953643321991
1740251548730279400,6.573279541015625,3.346677303314209,-0.6217461228370667,0.919546902179718
1740251548740261600,6.58326171875,3.1610093116760254,-0.48003318905830383,0.950931966304779
1740251548750243300,6.593243408203125,2.929684638977051,-0.3429813086986542,0.9526752829551697
1740251548760225500,6.6032255859375,2.6499099731445312,-0.25773194432258606,0.9500406384468079
1740251548770207700,6.613207763671875,2.32063627243042,-0.22171056270599365,0.9581316113471985
1740251548780189400,6.623189453125,1.941137671470642,-0.23000630736351013,0.9791524410247803
1740251548790171600,6.633171630859375,1.5318129062652588,-0.2603333294391632,1.0094765424728394
1740251548800153600,6.643153564453125,1.1243623495101929,-0.2748970687389374,1.0419758558273315
1740251548810134500,6.653134521484375,0.7616920471191406,-0.2915114760398865,1.066434383392334
1740251548820116500,6.663116455078125,0.4115438759326935,-0.2975693643093109,1.0686982870101929
1740251548830098700,6.6730986328125,0.09161460399627686,-0.29042118787765503,1.0457322597503662
1740251548840080400,6.683080322265625,-0.22508610785007477,-0.3414268493652344,0.9834761023521423
1740251548850062600,6.6930625,-0.567778468132019,-0.47141146659851074,0.8953121304512024
1740251548860044500,6.70304443359375,-0.9629241824150085,-0.6588543057441711,0.7919780015945435
1740251548870026500,6.713026611328125,-1.3990381956100464,-0.8741650581359863,0.6953122019767761
1740251548880008400,6.723008544921875,-1.8491560220718384,-1.1027010679244995,0.6223304271697998
1740251548889989600,6.73298974609375,-2.3153419494628906,-1.298958420753479,0.5712464451789856
1740251548899971600,6.7429716796875,-2.750931739807129,-1.4247123003005981,0.5197774171829224
1740251548909953500,6.75295361328125,-3.148484468460083,-1.5003818273544312,0.44530344009399414
1740251548919935500,6.762935546875,-3.4948482513427734,-1.4713051319122314,0.32679063081741333
1740251548929917700,6.772917724609375,-3.7230451107025146,-1.3741205930709839,0.1471274048089981
1740251548939899400,6.7828994140625,-3.799790859222412,-1.2833954095840454,-0.08031001687049866
1740251548949881600,6.792881591796875,-3.8053340911865234,-1.2633644342422485,-0.32472535967826843
1740251548959863600,6.802863525390625,-3.8718886375427246,-1.2928813695907593,-0.596014142036438
1740251548969845500,6.812845458984375,-4.069974899291992,-1.3021576404571533,-0.8873447775840759
1740251548979826400,6.822826416015625,-4.394607067108154,-1.2567009925842285,-1.1647201776504517
1740251548989808600,6.83280859375,-4.814638137817383,-1.1075942516326904,-1.4055615663528442
1740251548999790300,6.842790283203125,-5.259221076965332,-0.8003461956977844,-1.5718759298324585
1740251549009772500,6.8527724609375,-5.628245830535889,-0.4403339624404907,-1.6364831924438477
1740251549019754800,6.862754638671875,-5.832162857055664,-0.19770961999893188,-1.6171326637268066
1740251549029736400,6.872736328125,-5.8413190841674805,-0.1541605442762375,-1.5442546606063843
1740251549039718700,6.88271875,-5.704256534576416,-0.19412127137184143,-1.4550111293792725
1740251549049700600,6.89270068359375,-5.533257007598877,-0.21798372268676758,-1.3970152139663696
1740251549059682600,6.9026826171875,-5.417645454406738,-0.17324049770832062,-1.4176381826400757
1740251549069663500,6.91266357421875,-5.396451473236084,-0.05457695946097374,-1.5223222970962524
1740251549079645700,6.922645751953125,-5.459935188293457,0.08558467775583267,-1.6658484935760498
1740251549089627400,6.93262744140625,-5.565295696258545,0.19738657772541046,-1.777879238128662
1740251549099609600,6.942609619140625,-5.674808025360107,0.2924955189228058,-1.8169251680374146
1740251549109591600,6.952591552734375,-5.75342321395874,0.37115544080734253,-1.757591724395752
1740251549119573500,6.962573486328125,-5.769028663635254,0.4234519302845001,-1.6227130889892578
1740251549129555500,6.972555419921875,-5.702083587646484,0.4226721525192261,-1.4401123523712158
1740251549139537700,6.98253759765625,-5.559147357940674,0.39453667402267456,-1.244787573814392
1740251549149518600,6.9925185546875,-5.340120315551758,0.31858012080192566,-1.061124563217163
1740251549159500500,7.00250048828125,-5.08037805557251,0.19381633400917053,-0.8820725083351135
1740251549169482500,7.012482421875,-4.792651176452637,0.07161267101764679,-0.6988821625709534
1740251549179464700,7.022464599609375,-4.496018886566162,0.00833702553063631,-0.49619564414024353
1740251549189446400,7.0324462890625,-4.203091144561768,-0.0014306501252576709,-0.29168111085891724
1740251549199428600,7.0424287109375,-3.910292863845825,-0.03867948427796364,-0.1151239275932312
1740251549209410300,7.052410400390625,-3.61970591545105,-0.16227573156356812,0.013611682690680027
1740251549219392500,7.062392578125,-3.335867404937744,-0.33584803342819214,0.048229314386844635
1740251549229374700,7.072374755859375,-3.047483444213867,-0.5064871907234192,-0.003969175275415182
1740251549239355600,7.082355712890625,-2.7549502849578857,-0.6326104998588562,-0.1284399926662445
1740251549249337300,7.09233740234375,-2.4577624797821045,-0.7331141829490662,-0.27474740147590637
1740251549259319600,7.102319580078125,-2.183530330657959,-0.837802529335022,-0.4122844934463501
1740251549269301500,7.112301513671875,-1.9530997276306152,-0.9752679467201233,-0.4965524971485138
1740251549279283500,7.122283447265625,-1.7657767534255981,-1.1209346055984497,-0.5249825716018677
1740251549289265700,7.132265625,-1.618314266204834,-1.2432708740234375,-0.5087338089942932
1740251549299247600,7.14224755859375,-1.4932003021240234,-1.32542085647583,-0.4857645630836487
1740251549309229600,7.1522294921875,-1.380266547203064,-1.404097557067871,-0.47653645277023315
1740251549319211500,7.16221142578125,-1.266142725944519,-1.4270786046981812,-0.48175492882728577
1740251549329192700,7.172192626953125,-1.1535756587982178,-1.340110421180725,-0.49366483092308044
1740251549339174400,7.18217431640625,-1.051811695098877,-1.136451244354248,-0.49678874015808105
1740251549349156600,7.192156494140625,-0.9644656181335449,-0.9189652800559998,-0.4745393395423889
1740251549359138600,7.202138671875,-0.8506267070770264,-0.7341448068618774,-0.43004992604255676
1740251549369120500,7.21212060546875,-0.6815202236175537,-0.6003867387771606,-0.389841765165329
1740251549379102500,7.2221025390625,-0.45668739080429077,-0.48685088753700256,-0.3931307792663574
1740251549389084700,7.232084716796875,-0.19096755981445312,-0.34832310676574707,-0.4686196744441986
1740251549399066400,7.24206640625,0.07681941241025925,-0.20958305895328522,-0.6176000833511353
1740251549409048600,7.252048583984375,0.31732630729675293,-0.12350036948919296,-0.7788987159729004
1740251549419029500,7.262029541015625,0.5491060018539429,-0.12863947451114655,-0.8964013457298279
1740251549429011500,7.272011474609375,0.7769615054130554,-0.22658999264240265,-0.9467284679412842
1740251549438993400,7.281993408203125,1.0455777645111084,-0.3917131721973419,-0.9502286314964294
1740251549448975600,7.2919755859375,1.3488322496414185,-0.59131920337677,-0.920899510383606
1740251549458957300,7.301957275390625,1.6592481136322021,-0.7851723432540894,-0.8558981418609619
1740251549468939500,7.311939453125,1.9661481380462646,-0.9386268854141235,-0.7596539258956909
1740251549478921500,7.32192138671875,2.252662420272827,-1.0022660493850708,-0.6534785032272339
1740251549488903400,7.3319033203125,2.53348445892334,-0.9674838185310364,-0.5600465536117554
1740251549498885600,7.3418857421875,2.8154914379119873,-0.874721884727478,-0.4684212803840637
1740251549508867600,7.35186767578125,3.0869088172912598,-0.7801620960235596,-0.3816690742969513
1740251549518848500,7.3618486328125,3.3211629390716553,-0.7041549682617188,-0.2937922179698944
1740251549528830500,7.37183056640625,3.517681121826172,-0.6564183235168457,-0.2015717327594757
1740251549538812700,7.381812744140625,3.66776704788208,-0.5650460720062256,-0.10207124054431915
1740251549548794600,7.391794677734375,3.7761380672454834,-0.38106533885002136,-0.00010226538870483637
1740251549558776600,7.401776611328125,3.871652126312256,-0.13168053328990936,0.12025796622037888
1740251549568758500,7.411758544921875,3.978494644165039,0.13751259446144104,0.27122244238853455
1740251549578740500,7.421740478515625,4.109972953796387,0.38230741024017334,0.4553544819355011
1740251549588722400,7.431722412109375,4.261783123016357,0.5629453659057617,0.6582157015800476
1740251549598704600,7.44170458984375,4.416919708251953,0.6646871566772461,0.8612303137779236
1740251549608685600,7.451685546875,4.569769382476807,0.7145500779151917,1.0585010051727295
1740251549618667500,7.46166748046875,4.689637184143066,0.7441338300704956,1.2073554992675781
1740251549628650800,7.471650634765625,4.768732070922852,0.7707846164703369,1.289760947227478
1740251549638632700,7.4816328125,4.805604934692383,0.7873142957687378,1.2910914421081543
1740251549648614700,7.49161474609375,4.813128471374512,0.8103905916213989,1.2224724292755127
1740251549658596900,7.501596923828125,4.777871131896973,0.8062480688095093,1.1100859642028809
1740251549668578600,7.51157861328125,4.701852321624756,0.7647602558135986,0.9705488085746765
1740251549678560800,7.521560791015625,4.595382213592529,0.7138784527778625,0.8231231570243835
1740251549688542700,7.531542724609375,4.498071193695068,0.6707924604415894,0.6851655840873718
1740251549698523600,7.541523681640625,4.422384262084961,0.5951517820358276,0.5899509191513062
1740251549708505600,7.551505615234375,4.362549304962158,0.44768109917640686,0.5414920449256897
1740251549718487800,7.56148779296875,4.304856777191162,0.2764510214328766,0.5294777154922485
1740251549728469500,7.571469482421875,4.2409868240356445,0.11288660764694214,0.552980363368988
1740251549738451700,7.58145166015625,4.156164169311523,-0.007675496395677328,0.5956218242645264
1740251549748433700,7.59143359375,4.052862644195557,-0.07117298245429993,0.6346579194068909
1740251549758415600,7.60141552734375,3.936998128890991,-0.07491978257894516,0.6585177183151245
1740251549768397800,7.611397705078125,3.80656099319458,-0.034756649285554886,0.6511737704277039
1740251549778379800,7.6213798828125,3.668940782546997,0.010218016803264618,0.6214358806610107
1740251549788361700,7.63136181640625,3.5326194763183594,0.04261244088411331,0.595125675201416
1740251549798342700,7.6413427734375,3.404425859451294,0.04074237123131752,0.6003446578979492
1740251549808324900,7.651324951171875,3.2890563011169434,-0.0030538467690348625,0.6531628966331482
1740251549818306600,7.661306640625,3.1903765201568604,-0.07708253711462021,0.7367243766784668
1740251549828288800,7.671288818359375,3.106868267059326,-0.14427222311496735,0.8421964645385742
1740251549838270700,7.681270751953125,3.042081832885742,-0.16607765853405,0.946149468421936
1740251549848252700,7.691252685546875,2.9751250743865967,-0.13107280433177948,1.0181964635849
1740251549858234600,7.701234619140625,2.8980212211608887,-0.043056655675172806,1.0351941585540771
1740251549868216800,7.711216796875,2.806234836578369,0.06695479899644852,0.9945908188819885
1740251549878198500,7.721198486328125,2.6996750831604004,0.17593854665756226,0.8973619937896729
1740251549888180700,7.7311806640625,2.557943820953369,0.248042032122612,0.757043719291687
1740251549898161700,7.74116162109375,2.377268075942993,0.23266707360744476,0.5990312099456787
1740251549908143900,7.751143798828125,2.158283233642578,0.1383104771375656,0.45277172327041626
1740251549918125600,7.76112548828125,1.9060872793197632,-0.010810303501784801,0.33643901348114014
1740251549928107800,7.771107666015625,1.6326892375946045,-0.1664012223482132,0.25105538964271545
1740251549938089700,7.78108984375,1.3553948402404785,-0.27068954706192017,0.18678505718708038
1740251549948071700,7.79107177734375,1.0764737129211426,-0.33295559883117676,0.12682665884494781
1740251549958053600,7.8010537109375,0.7873393297195435,-0.37475070357322693,0.07933716475963593
1740251549968035600,7.81103564453125,0.46784016489982605,-0.42189398407936096,0.04745939373970032
1740251549978017800,7.821017822265625,0.10327259451150894,-0.4680399000644684,0.030010629445314407
1740251549987999700,7.830999755859375,-0.3011188209056854,-0.5049486756324768,0.03533615171909332
1740251549997980700,7.840980712890625,-0.7366892099380493,-0.5463759899139404,0.027331490069627762
1740251550007963600,7.850963623046875,-1.1959803104400635,-0.6077317595481873,-0.008584166876971722
1740251550017945900,7.86094580078125,-1.6515417098999023,-0.6489197015762329,-0.07895633578300476
1740251550027927600,7.870927490234375,-2.10060453414917,-0.6090068817138672,-0.18770065903663635
1740251550037909800,7.88090966796875,-2.539425849914551,-0.4902309477329254,-0.32288163900375366
1740251550047890700,7.890890625,-2.934079885482788,-0.35643693804740906,-0.45375603437423706
1740251550057873000,7.900872802734375,-3.2262299060821533,-0.26440075039863586,-0.5365915298461914
1740251550067854600,7.9108544921875,-3.4309420585632324,-0.22219525277614594,-0.5686250925064087
1740251550077836800,7.9208369140625,-3.5790834426879883,-0.22243520617485046,-0.5849116444587708
1740251550087818500,7.930818603515625,-3.681659698486328,-0.2635727822780609,-0.6085270047187805
1740251550097800700,7.94080078125,-3.7590079307556152,-0.3002716898918152,-0.6915430426597595
1740251550107782700,7.95078271484375,-3.8698410987854004,-0.2767255902290344,-0.8735562562942505
1740251550117764600,7.9607646484375,-4.031337261199951,-0.17723576724529266,-1.1515604257583618
1740251550127746600,7.97074658203125,-4.21026086807251,-0.051785167306661606,-1.4323058128356934
1740251550137728800,7.980728759765625,-4.379174709320068,0.06779369711875916,-1.6392635107040405
1740251550147709700,7.990709716796875,-4.541069507598877,0.13977813720703125,-1.756680965423584
1740251550157691600,8.000691650390625,-4.697403907775879,0.17565783858299255,-1.8246994018554688
1740251550167673600,8.010673583984374,-4.834213733673096,0.21200573444366455,-1.8803921937942505
1740251550177655800,8.02065576171875,-4.947291374206543,0.2563244700431824,-1.9633609056472778
1740251550187637800,8.0306376953125,-5.042990684509277,0.33980870246887207,-2.0894980430603027
1740251550197619700,8.04061962890625,-5.133281230926514,0.4588994085788727,-2.248599052429199
1740251550207601700,8.0506015625,-5.206064224243164,0.5554861426353455,-2.39726185798645
1740251550217583600,8.06058349609375,-5.2443132400512695,0.6112274527549744,-2.473520278930664
1740251550227565800,8.07056591796875,-5.237312316894531,0.6015899777412415,-2.4437334537506104
1740251550237547500,8.080547607421876,-5.185798645019531,0.5367166996002197,-2.3175463676452637
1740251550247528700,8.09052880859375,-5.0861406326293945,0.43970680236816406,-2.1402547359466553
1740251550257510700,8.1005107421875,-4.917853832244873,0.2829020023345947,-1.9182953834533691
1740251550267492900,8.110492919921874,-4.691463947296143,0.08719854801893234,-1.6707698106765747
1740251550277474600,8.120474609375,-4.429069995880127,-0.11477238684892654,-1.4283432960510254
1740251550287456800,8.130456787109376,-4.157590389251709,-0.2712709307670593,-1.2197898626327515
1740251550297438700,8.140438720703125,-3.8976593017578125,-0.3429704010486603,-1.0553725957870483
1740251550307420700,8.150420654296875,-3.6457910537719727,-0.33372762799263,-0.9287987351417542
1740251550317402600,8.160402587890625,-3.3943753242492676,-0.2886938452720642,-0.8294665217399597
1740251550327384800,8.170384765625,-3.155912160873413,-0.26638054847717285,-0.763472855091095
1740251550337366500,8.180366455078126,-2.9291481971740723,-0.29630595445632935,-0.7263374924659729
1740251550347347700,8.19034765625,-2.7168452739715576,-0.3561232388019562,-0.708619236946106
1740251550357329700,8.20032958984375,-2.526907205581665,-0.39907336235046387,-0.7037432193756104
1740251550367311600,8.2103115234375,-2.3796885013580322,-0.36568132042884827,-0.7213816046714783
1740251550377293600,8.22029345703125,-2.2796549797058105,-0.27432024478912354,-0.750601053237915
1740251550387275800,8.23027587890625,-2.2103583812713623,-0.16979223489761353,-0.7642220258712769
1740251550397257700,8.2402578125,-2.1413276195526123,-0.14114780724048615,-0.7506625652313232
1740251550407239700,8.25023974609375,-2.049455404281616,-0.2534080445766449,-0.7082993984222412
1740251550417222000,8.260221923828125,-1.9350634813308716,-0.4732935130596161,-0.6717099547386169
1740251550427202800,8.270202880859374,-1.7894543409347534,-0.7008795738220215,-0.6795920729637146
1740251550437184800,8.280184814453126,-1.6377090215682983,-0.8195457458496094,-0.7447945475578308
1740251550447166700,8.290166748046875,-1.5092005729675293,-0.7484971284866333,-0.8374083638191223
1740251550457148700,8.300148681640625,-1.4303843975067139,-0.5089391469955444,-0.9177734851837158
1740251550467130600,8.310130615234375,-1.3755346536636353,-0.22512339055538177,-0.9243558049201965
1740251550477112800,8.32011279296875,-1.3140270709991455,0.011227088049054146,-0.8308990597724915
1740251550487094500,8.330094482421876,-1.2044936418533325,0.13599005341529846,-0.6640826463699341
1740251550497076700,8.34007666015625,-1.0538407564163208,0.1517237424850464,-0.4769116938114166
1740251550507058700,8.35005859375,-0.9164198040962219,-0.0014716627774760127,-0.28393983840942383
1740251550517040600,8.36004052734375,-0.7716072201728821,-0.20956574380397797,-0.12194854021072388
1740251550527022600,8.370022705078124,-0.5989729166030884,-0.327861487865448,-0.013917413540184498
1740251550537003800,8.380003662109376,-0.4102138876914978,-0.3041857182979584,0.0011235876008868217
1740251550546985700,8.38998583984375,-0.21826495230197906,-0.20382264256477356,-0.04255198687314987
1740251550556967700,8.3999677734375,-0.017614146694540977,-0.11469435691833496,-0.07692301273345947
1740251550566949600,8.40994970703125,0.20193152129650116,-0.07405079156160355,-0.04282283037900925
1740251550576931800,8.419931884765624,0.42937132716178894,-0.09738141298294067,0.06901342421770096
1740251550586913500,8.42991357421875,0.6703261733055115,-0.18926100432872772,0.2184322029352188
1740251550596895700,8.439895751953125,0.9370103478431702,-0.3697625994682312,0.39281946420669556
1740251550606877700,8.449877685546875,1.2215567827224731,-0.5834242701530457,0.5488460659980774
1740251550616859600,8.459859619140625,1.4991724491119385,-0.7190564274787903,0.6618921756744385
1740251550626841900,8.469841796875,1.7637602090835571,-0.711764931678772,0.7229353189468384
1740251550636822800,8.47982275390625,1.996828556060791,-0.5665209293365479,0.7276296615600586
1740251550646804000,8.489803955078125,2.221139430999756,-0.3482802212238312,0.7111383080482483
1740251550656785700,8.49978564453125,2.444310188293457,-0.13698501884937286,0.7266560196876526
1740251550666768000,8.509767822265625,2.6774518489837646,0.00905661191791296,0.8009137511253357
1740251550676749800,8.519749755859374,2.883256196975708,0.098225899040699,0.906846821308136
1740251550686731800,8.529731689453126,3.08243465423584,0.16664384305477142,1.027195930480957
1740251550696713700,8.539713623046875,3.265662670135498,0.2469796985387802,1.1574878692626953
1740251550706695700,8.54969580078125,3.408884048461914,0.31619712710380554,1.2922368049621582
1740251550716677600,8.559677734375,3.505077600479126,0.391703337430954,1.4362672567367554
1740251550726659800,8.569659912109374,3.557680606842041,0.4891696870326996,1.6037782430648804
1740251550736641800,8.579641845703126,3.5687360763549805,0.5848045945167542,1.7763683795928955
1740251550746622700,8.589622802734375,3.560832977294922,0.6395565271377563,1.9314615726470947
1740251550756604700,8.599604736328125,3.562164545059204,0.6548422574996948,2.0415329933166504
1740251550766587000,8.6095869140625,3.586665153503418,0.6285009384155273,2.0957870483398438
1740251550776568800,8.61956884765625,3.63079571723938,0.6074106097221375,2.0751941204071045
1740251550786550800,8.62955078125,3.6769092082977295,0.6094564199447632,1.9959825277328491
1740251550796533000,8.639532958984375,3.710784673690796,0.6219785809516907,1.8707494735717773
1740251550806514700,8.6495146484375,3.72367525100708,0.626054048538208,1.7017325162887573
1740251550816497000,8.659496826171875,3.7300524711608887,0.6018392443656921,1.4963798522949219
1740251550826478600,8.669478515625,3.742678165435791,0.520919919013977,1.2739300727844238
1740251550836460800,8.679460693359376,3.764827251434326,0.3866893947124481,1.0289496183395386
1740251550846442800,8.68944287109375,3.789189577102661,0.22632980346679688,0.755996584892273
1740251550856424700,8.6994248046875,3.7967941761016846,0.09777502715587616,0.46011701226234436
1740251550866405600,8.709405517578125,3.7893917560577393,0.053167615085840225,0.15937155485153198
1740251550876387800,8.719387939453124,3.7848803997039795,0.05536205694079399,-0.10797999799251556
1740251550886369800,8.729369873046876,3.7823805809020996,0.007132211700081825,-0.3175811469554901
1740251550896351700,8.739351806640625,3.77201771736145,-0.1353519707918167,-0.4788704514503479
1740251550906333700,8.749333740234375,3.742888927459717,-0.3140663206577301,-0.6149771809577942
1740251550916316000,8.75931591796875,3.7068066596984863,-0.46571922302246094,-0.7430400252342224
1740251550926297600,8.769297607421874,3.653899908065796,-0.5446957945823669,-0.8603501915931702
1740251550936279800,8.77927978515625,3.580671548843384,-0.5773589611053467,-0.9498690962791443
1740251550946261800,8.78926171875,3.487097978591919,-0.6362015008926392,-0.9886061549186707
1740251550956243700,8.79924365234375,3.393253803253174,-0.7622553110122681,-0.9713557958602905
1740251550966226000,8.809225830078125,3.3001303672790527,-0.9403475522994995,-0.9266777634620667
1740251550976206800,8.819206787109374,3.207440137863159,-1.1183292865753174,-0.8897511959075928
1740251550986188800,8.829188720703126,3.1034228801727295,-1.2482917308807373,-0.8738723397254944
1740251550996170800,8.839170654296876,2.985947847366333,-1.2917941808700562,-0.881970226764679
1740251551006153000,8.849153076171875,2.8530454635620117,-1.230979323387146,-0.8915672302246094
1740251551016134700,8.859134765625,2.6977744102478027,-1.126949667930603,-0.8767235279083252
1740251551026116900,8.869116943359375,2.525909185409546,-1.004127025604248,-0.804483950138092
1740251551036098800,8.879098876953124,2.353468179702759,-0.9020994901657104,-0.6823580861091614
1740251551046080800,8.889080810546876,2.1820967197418213,-0.8220339417457581,-0.5120643377304077
1740251551056062700,8.899062744140625,2.0044538974761963,-0.7801943421363831,-0.3161846101284027
1740251551066045000,8.909044921875,1.8098808526992798,-0.7364015579223633,-0.12237198650836945
1740251551076026600,8.919026611328125,1.5837219953536987,-0.6748951077461243,0.044919803738594055
1740251551086008800,8.9290087890625,1.3321610689163208,-0.5917748808860779,0.16437296569347382
1740251551095989800,8.93898974609375,1.04633367061615,-0.48489612340927124,0.24780526757240295
1740251551105971700,8.9489716796875,0.7251718640327454,-0.3796064555644989,0.318670392036438
1740251551115953700,8.95895361328125,0.3898252546787262,-0.31336644291877747,0.36815619468688965
1740251551125935900,8.968935791015625,0.047814927995204926,-0.3119397759437561,0.41484618186950684
1740251551135917600,8.97891748046875,-0.2923985719680786,-0.34319090843200684,0.44544538855552673
1740251551145899800,8.988899658203126,-0.6476392149925232,-0.3603089153766632,0.4428972601890564
1740251551155882000,8.998882080078126,-1.0173581838607788,-0.3217117190361023,0.39010754227638245
1740251551165863700,9.00886376953125,-1.405000925064087,-0.22478783130645752,0.2751900255680084
1740251551175846000,9.018845947265625,-1.8173730373382568,-0.09453289955854416,0.11205542832612991
1740251551185827800,9.028827880859374,-2.2459499835968018,0.047153398394584656,-0.0793566107749939
1740251551195809800,9.038809814453124,-2.668450117111206,0.19563154876232147,-0.26483726501464844
1740251551205791700,9.048791748046876,-3.0524401664733887,0.3572729229927063,-0.43885537981987
1740251551215773000,9.05877294921875,-3.395699977874756,0.5204823613166809,-0.5860195159912109
1740251551225754600,9.068754638671875,-3.7025249004364014,0.6766918897628784,-0.6730687022209167
1740251551235736800,9.07873681640625,-3.975381851196289,0.7785199880599976,-0.6801052689552307
1740251551245718800,9.08871875,-4.195276737213135,0.8095514178276062,-0.634944498538971
1740251551255700700,9.09870068359375,-4.335238933563232,0.7813466787338257,-0.5770950317382812
1740251551265682700,9.1086826171875,-4.36190128326416,0.7525736093521118,-0.5386935472488403
1740251551275665000,9.118664794921875,-4.282463550567627,0.7724509239196777,-0.5598955154418945
1740251551285646600,9.128646484375,-4.146642684936523,0.9243072867393494,-0.6570425629615784
1740251551295628800,9.13862890625,-4.039823532104492,1.2212990522384644,-0.8328927159309387
1740251551305611000,9.148611083984376,-4.0229902267456055,1.5719529390335083,-1.0588626861572266
1740251551315592700,9.1585927734375,-4.108412742614746,1.821158766746521,-1.2325758934020996
1740251551325575000,9.168574951171875,-4.2497172355651855,1.8532572984695435,-1.2965152263641357
1740251551335555800,9.178555908203125,-4.41248893737793,1.6615076065063477,-1.2794771194458008
1740251551345537500,9.18853759765625,-4.5438714027404785,1.3172659873962402,-1.2299798727035522
1740251551355519700,9.198519775390626,-4.609599590301514,0.9570154547691345,-1.2088866233825684
1740251551365502000,9.208501953125,-4.596357345581055,0.6511415243148804,-1.2423502206802368
1740251551375483600,9.218483642578125,-4.528873920440674,0.4229600429534912,-1.3181947469711304
1740251551385465900,9.2284658203125,-4.43098783493042,0.2333565652370453,-1.4235868453979492
1740251551395447800,9.23844775390625,-4.323537349700928,0.05392714589834213,-1.5047786235809326
1740251551405429800,9.2484296875,-4.222226619720459,-0.1616663932800293,-1.51578688621521
1740251551415411700,9.25841162109375,-4.124969959259033,-0.42460986971855164,-1.4611533880233765
1740251551425394000,9.268393798828125,-4.023252010345459,-0.706821084022522,-1.3690043687820435
1740251551435375600,9.278375732421875,-3.9097342491149902,-0.9464280605316162,-1.2667772769927979
1740251551445357800,9.28835791015625,-3.794757604598999,-1.0842117071151733,-1.163201093673706
1740251551455339800,9.29833984375,-3.6918842792510986,-1.1151443719863892,-1.0516154766082764
1740251551465320700,9.30832080078125,-3.603200674057007,-1.0690118074417114,-0.9271379709243774
1740251551475302700,9.318302734375,-3.513947010040283,-0.970359206199646,-0.7866224050521851
1740251551485284900,9.328284912109375,-3.413173198699951,-0.8511425256729126,-0.6202917695045471
1740251551495266600,9.3382666015625,-3.2903709411621094,-0.7238993644714355,-0.42342662811279297
1740251551505248800,9.348248779296876,-3.108226776123047,-0.5861399173736572,-0.19849924743175507
1740251551515231000,9.35823095703125,-2.8586266040802,-0.45325857400894165,0.05161765590310097
1740251551525212700,9.368212646484375,-2.576481819152832,-0.30754050612449646,0.29284918308258057
1740251551535195000,9.37819482421875,-2.320204496383667,-0.16323499381542206,0.5170926451683044
1740251551545176800,9.3881767578125,-2.12391996383667,-0.04831693321466446,0.677834153175354
1740251551555158800,9.39815869140625,-2.0098114013671875,0.03170626237988472,0.7521800398826599
1740251551565140700,9.408140625,-1.949232816696167,0.09842883795499802,0.7384918928146362
1740251551575123000,9.418123046875,-1.9162565469741821,0.20256295800209045,0.6542686223983765
1740251551585104000,9.428103759765625,-1.8801560401916504,0.34136372804641724,0.5079492330551147
1740251551595085800,9.4380859375,-1.8213685750961304,0.4998684227466583,0.33902332186698914
1740251551605067800,9.44806787109375,-1.7219644784927368,0.6091237664222717,0.1909627616405487
1740251551615049700,9.4580498046875,-1.611499547958374,0.6206531524658203,0.08385282009840012
1740251551625031700,9.46803173828125,-1.4928951263427734,0.5461735725402832,0.02526327781379223
1740251551635014400,9.478014404296875,-1.371570348739624,0.46494239568710327,0.022650716826319695
1740251551644996000,9.48799609375,-1.2386008501052856,0.41223496198654175,0.06120077148079872
1740251551654978300,9.497978271484374,-1.1021885871887207,0.3865293264389038,0.11892372369766235
1740251551664960500,9.50796044921875,-0.9416884183883667,0.4088338315486908,0.16546912491321564
1740251551674942200,9.517942138671875,-0.7370415329933167,0.46770381927490234,0.19195638597011566
1740251551684924400,9.52792431640625,-0.4899659752845764,0.552909255027771,0.2062849998474121
1740251551694906000,9.537906005859375,-0.20754973590373993,0.6202243566513062,0.217838853597641
1740251551704888300,9.547888427734375,0.09039940685033798,0.6249927878379822,0.23430411517620087
1740251551714869200,9.557869140625,0.4173450469970703,0.5312753319740295,0.2345603108406067
1740251551724851500,9.5678515625,0.7650412321090698,0.30993762612342834,0.18460047245025635
1740251551734833200,9.577833251953125,1.1275520324707031,-0.009256615303456783,0.06942647695541382
1740251551744815400,9.5878154296875,1.5064876079559326,-0.33746084570884705,-0.10358311980962753
1740251551754797300,9.59779736328125,1.8844205141067505,-0.5828725099563599,-0.3012804687023163
1740251551764779300,9.607779296875,2.2344417572021484,-0.7193397879600525,-0.5003232955932617
1740251551774761200,9.61776123046875,2.5850212574005127,-0.776092529296875,-0.6680566072463989
1740251551784743400,9.627743408203125,2.9222776889801025,-0.7939735651016235,-0.7832516431808472
1740251551794725000,9.63772509765625,3.249706745147705,-0.8073692321777344,-0.8400640487670898
1740251551804707300,9.647707275390625,3.5563690662384033,-0.7944390773773193,-0.8368642926216125
1740251551814689300,9.657689208984374,3.8059346675872803,-0.7572194933891296,-0.7856191992759705
1740251551824671200,9.667671142578126,3.975572109222412,-0.658857524394989,-0.6836483478546143
1740251551834653400,9.6776533203125,4.052106857299805,-0.5216419100761414,-0.5338729619979858
1740251551844634400,9.68763427734375,4.033984184265137,-0.35778823494911194,-0.3293328881263733
1740251551854616000,9.697615966796874,3.980257272720337,-0.17681951820850372,-0.08628508448600769
1740251551864598300,9.707598388671874,3.940929889678955,0.020071446895599365,0.16633811593055725
1740251551874580500,9.71758056640625,3.942328691482544,0.20569643378257751,0.4142512381076813
1740251551884562200,9.727562255859375,3.9716455936431885,0.341306209564209,0.6293228268623352
1740251551894544400,9.73754443359375,4.023123741149902,0.42359042167663574,0.7979927659034729
1740251551904526300,9.7475263671875,4.086493015289307,0.46596795320510864,0.9132834076881409
1740251551914508300,9.75750830078125,4.144735813140869,0.48658376932144165,0.9727776646614075
1740251551924490200,9.767490234375,4.178645610809326,0.48830363154411316,0.9870849251747131
1740251551934472400,9.777472412109375,4.17086935043335,0.4688076972961426,0.9554479122161865
1740251551944454100,9.7874541015625,4.1275129318237305,0.4031578302383423,0.8912846446037292
1740251551954436400,9.797436279296875,4.07429313659668,0.27563372254371643,0.8143304586410522
1740251551964418000,9.80741796875,4.008731365203857,0.09678859263658524,0.7187661528587341
1740251551974399200,9.817399169921876,3.938488245010376,-0.09193524718284607,0.6139276027679443
1740251551984381200,9.827381103515625,3.8612828254699707,-0.2565644085407257,0.4821855425834656
1740251551994363400,9.83736328125,3.7769134044647217,-0.35468992590904236,0.3435709476470947
1740251552004345000,9.847344970703125,3.704124689102173,-0.37465110421180725,0.21333996951580048
1740251552014327300,9.857327392578124,3.6437952518463135,-0.36088308691978455,0.11877086013555527
1740251552024309500,9.8673095703125,3.5857691764831543,-0.34345510601997375,0.06692630052566528
1740251552034291200,9.877291259765625,3.535735845565796,-0.38088342547416687,0.05781296640634537
1740251552044273400,9.8872734375,3.4818687438964844,-0.48161908984184265,0.06499684602022171
1740251552054255400,9.89725537109375,3.43894100189209,-0.6294705867767334,0.07716961950063705
1740251552064237300,9.9072373046875,3.4156651496887207,-0.7482520937919617,0.07249976694583893
1740251552074219300,9.91721923828125,3.388546943664551,-0.8102214932441711,0.048889510333538055
1740251552084201200,9.927201171875,3.3524837493896484,-0.7806912660598755,0.012722985818982124
1740251552094183200,9.93718310546875,3.30901837348938,-0.658937931060791,-0.012797554023563862
1740251552104165400,9.947165283203125,3.2431836128234863,-0.49267441034317017,0.0003057308786083013
1740251552114146300,9.957146240234374,3.159921646118164,-0.36747920513153076,0.08164479583501816
1740251552124128300,9.967128173828126,3.095399856567383,-0.33096060156822205,0.22655057907104492
1740251552134110200,9.977110107421876,3.0376951694488525,-0.3494677245616913,0.4117838144302368
1740251552144092400,9.987092529296875,2.9459502696990967,-0.4261108338832855,0.6112924218177795
1740251552154074000,9.99707421875,2.798200845718384,-0.5938076972961426,0.7856972217559814
1740251552164056300,10.007056396484375,2.65549373626709,-0.8205047249794006,0.8975414633750916
1740251552174038300,10.017038330078124,2.533923625946045,-0.991874098777771,0.9314797520637512
1740251552184020200,10.027020263671876,2.4021170139312744,-1.0422539710998535,0.8868033289909363
1740251552194002400,10.03700244140625,2.242823600769043,-0.9364840984344482,0.7223914861679077
1740251552203984400,10.046984375,2.0749125480651855,-0.6480051279067993,0.38469868898391724
1740251552213966300,10.05696630859375,1.9090420007705688,-0.2669896185398102,-0.06322024762630463
1740251552223948300,10.0669482421875,1.759825587272644,0.07447290420532227,-0.49630749225616455
1740251552233930200,10.07693017578125,1.6047619581222534,0.25528237223625183,-0.8328266739845276
1740251552243912200,10.086912109375,1.4000884294509888,0.25335049629211426,-1.0471951961517334
1740251552253893400,10.096893310546875,1.151103138923645,0.13825561106204987,-1.1652182340621948
1740251552263875300,10.106875244140625,0.8712824583053589,-0.003665042342618108,-1.2289154529571533
1740251552273857300,10.116857177734374,0.5362858176231384,-0.15084756910800934,-1.266607642173767
1740251552283839200,10.126839111328126,0.1407776176929474,-0.33365440368652344,-1.2661868333816528
1740251552293821400,10.136821533203126,-0.349569708108902,-0.5548219084739685,-1.2321412563323975
1740251552303803100,10.14680322265625,-0.9304259419441223,-0.7586211562156677,-1.1579645872116089
1740251552313785300,10.156785400390625,-1.5621591806411743,-0.9030014872550964,-1.0702182054519653
1740251552323767300,10.166767333984374,-2.198976993560791,-0.9338275790214539,-1.0011000633239746
1740251552333749200,10.176749267578124,-2.774780035018921,-0.8393479585647583,-0.9647929668426514
1740251552343731200,10.186731201171876,-3.249218702316284,-0.6964235305786133,-0.9717568755149841
1740251552353713200,10.196713134765625,-3.6301541328430176,-0.5726518034934998,-1.0213004350662231
1740251552363695400,10.2066953125,-3.9391114711761475,-0.5371771454811096,-1.1145139932632446
1740251552373677300,10.21667724609375,-4.201586723327637,-0.6073828935623169,-1.2734445333480835
1740251552383659300,10.2266591796875,-4.435714244842529,-0.7871377468109131,-1.5149815082550049
1740251552393641200,10.23664111328125,-4.652777194976807,-1.0049717426300049,-1.8955848217010498
1740251552403622400,10.246622314453125,-4.853299617767334,-1.1706990003585815,-2.469186782836914
1740251552413604400,10.256604248046875,-4.983606338500977,-1.1649854183197021,-3.1978816986083984
1740251552423586300,10.26658642578125,-5.053198337554932,-0.9129353165626526,-3.970832109451294
1740251552433568300,10.276568359375,-5.099077224731445,-0.46494051814079285,-4.622775554656982
1740251552443550500,10.286550537109376,-5.152215480804443,0.044207409024238586,-4.9592695236206055
1740251552453532200,10.2965322265625,-5.170959949493408,0.5058197975158691,-4.933160781860352
1740251552463514400,10.306514404296875,-5.072717666625977,0.8554384708404541,-4.616464138031006
1740251552473496300,10.316496337890625,-4.797815799713135,1.0726099014282227,-4.1074395179748535
1740251552483478300,10.326478271484374,-4.374281883239746,1.2898160219192505,-3.535320520401001
1740251552493460200,10.336460205078126,-3.915165662765503,1.6510003805160522,-3.0326435565948486
1740251552503442200,10.346442138671875,-3.551821231842041,2.156229257583618,-2.6311490535736084
1740251552513424400,10.35642431640625,-3.3379106521606445,2.68935489654541,-2.288954019546509
1740251552523406300,10.36640625,-3.2453835010528564,3.1203408241271973,-1.9321084022521973
1740251552533388300,10.37638818359375,-3.2391066551208496,3.3827457427978516,-1.5110142230987549
1740251552543370200,10.386370361328124,-3.2674899101257324,3.5061702728271484,-1.0206650495529175
1740251552553351200,10.39635107421875,-3.291797399520874,3.508054494857788,-0.5045318603515625
1740251552563333400,10.40633349609375,-3.2517309188842773,3.3702409267425537,0.008597482927143574
1740251552573315300,10.4163154296875,-3.135828733444214,3.069685935974121,0.5011997222900391
1740251552583297300,10.42629736328125,-2.933608055114746,2.6786108016967773,0.9632959961891174
1740251552593279500,10.436279541015624,-2.6537225246429443,2.2100706100463867,1.3808255195617676
1740251552603261200,10.44626123046875,-2.3510732650756836,1.6989761590957642,1.7379964590072632
1740251552613243400,10.456243408203125,-2.0708961486816406,1.2106319665908813,2.024172306060791
1740251552623225000,10.46622509765625,-1.852175235748291,0.8027632832527161,2.232949733734131
1740251552633207300,10.476207275390625,-1.7069804668426514,0.4898993968963623,2.3677585124969482
1740251552643189200,10.486189208984374,-1.635062336921692,0.26198074221611023,2.4348011016845703
1740251552653171200,10.496171142578126,-1.6252137422561646,0.08882041275501251,2.4449076652526855
1740251552663153200,10.506153076171875,-1.64991295337677,-0.05595514550805092,2.3969879150390625
1740251552673135400,10.51613525390625,-1.6802096366882324,-0.16546592116355896,2.2973711490631104
1740251552683117300,10.526117431640625,-1.6932774782180786,-0.2514719069004059,2.1626014709472656
1740251552693099300,10.536099365234374,-1.6884769201278687,-0.2817126512527466,1.9773215055465698
1740251552703081500,10.54608154296875,-1.677405595779419,-0.24322357773780823,1.7445787191390991
1740251552713062400,10.5560625,-1.6613142490386963,-0.11718467622995377,1.4842238426208496
1740251552723044400,10.56604443359375,-1.6339284181594849,0.07890227437019348,1.2196968793869019
1740251552733026300,10.5760263671875,-1.6126494407653809,0.29287955164909363,0.9720599055290222
1740251552743008300,10.58600830078125,-1.5821584463119507,0.4822758436203003,0.731471836566925
1740251552752990200,10.595990234375,-1.5216084718704224,0.6242846250534058,0.498369038105011
1740251552762972400,10.605972412109375,-1.4163718223571777,0.724022388458252,0.2483925074338913
1740251552772954000,10.6159541015625,-1.2888586521148682,0.7837110161781311,-0.019164640456438065
1740251552782936300,10.625936279296875,-1.157362699508667,0.8364874124526978,-0.2787695825099945
1740251552792918300,10.635918212890624,-1.0414576530456543,0.9069610834121704,-0.47637027502059937
1740251552802900200,10.645900146484376,-0.943909227848053,0.9863222241401672,-0.5876086354255676
1740251552812882200,10.655882080078126,-0.8410795331001282,1.0283894538879395,-0.6199186444282532
1740251552822864400,10.665864501953125,-0.724235475063324,0.9931761026382446,-0.6282516717910767
1740251552832846000,10.67584619140625,-0.5855321884155273,0.8823422789573669,-0.6558985114097595
1740251552842828300,10.685828369140625,-0.36844512820243835,0.6637271046638489,-0.6827511191368103
1740251552852810500,10.695810546875,-0.08103866130113602,0.35773950815200806,-0.7044729590415955
1740251552862791400,10.70579150390625,0.234576016664505,0.055412657558918,-0.7015698552131653
1740251552872773000,10.715773193359375,0.5409420728683472,-0.1795591115951538,-0.6792855858802795
1740251552882755300,10.72575537109375,0.8075628280639648,-0.33366212248802185,-0.6375578045845032
1740251552892737300,10.7357373046875,1.0312728881835938,-0.4444922208786011,-0.5561013221740723
1740251552902719200,10.74571923828125,1.231945276260376,-0.5388685464859009,-0.4217730760574341
1740251552912701400,10.755701416015626,1.443178415298462,-0.6056987047195435,-0.24064643681049347
1740251552922683100,10.76568310546875,1.666209101676941,-0.6380633115768433,-0.04946395754814148
1740251552932665300,10.775665283203125,1.8896554708480835,-0.6107062697410583,0.13429681956768036
1740251552942647300,10.785647216796875,2.1333389282226562,-0.5137323141098022,0.30624568462371826
1740251552952629200,10.795629150390624,2.3774232864379883,-0.36017441749572754,0.4662255048751831
1740251552962611200,10.805611083984376,2.603994846343994,-0.18110240995883942,0.6244018077850342
1740251552972593400,10.815593505859376,2.8083889484405518,0.0158266332000494,0.780348002910614
1740251552982575000,10.8255751953125,2.996800661087036,0.20774626731872559,0.9357796907424927
1740251552992557300,10.835557373046875,3.1641407012939453,0.3734494745731354,1.0949407815933228
1740251553002539500,10.84553955078125,3.2798449993133545,0.5187246799468994,1.2484174966812134
1740251553012521200,10.855521240234374,3.3402910232543945,0.6422905325889587,1.3833750486373901
1740251553022503400,10.86550341796875,3.3434784412384033,0.730809211730957,1.4870010614395142
1740251553032484400,10.875484375,3.300507068634033,0.8200341463088989,1.5509557723999023
1740251553042466000,10.885466064453125,3.235048294067383,0.9352731108665466,1.5763252973556519
1740251553052448300,10.8954482421875,3.181774854660034,1.1061007976531982,1.5701600313186646
1740251553062430500,10.905430419921874,3.1576240062713623,1.3175816535949707,1.5419899225234985
1740251553072412200,10.915412109375,3.1594972610473633,1.4912290573120117,1.487392544746399
1740251553082394400,10.925394287109375,3.170642137527466,1.5352108478546143,1.4090428352355957
1740251553092376300,10.935376220703125,3.19683837890625,1.4371099472045898,1.2937804460525513
1740251553102358300,10.945358154296875,3.247666120529175,1.2689182758331299,1.1401575803756714
1740251553112340200,10.95534033203125,3.305279016494751,1.1025390625,0.9423140287399292
1740251553122322400,10.965322509765626,3.346510410308838,0.9684204459190369,0.7064263820648193
1740251553132304100,10.97530419921875,3.3775062561035156,0.8608596324920654,0.45959609746932983
1740251553142286300,10.985286376953125,3.374000072479248,0.7452582120895386,0.23159754276275635
1740251553152268300,10.995268310546875,3.3464536666870117,0.5924044847488403,0.04975344240665436
1740251553162250200,11.005250244140624,3.3074498176574707,0.42884403467178345,-0.07691049575805664
1740251553172232400,11.015232421875,3.2596499919891357,0.24194099009037018,-0.15071627497673035
1740251553182214100,11.025214111328125,3.1832823753356934,0.016456738114356995,-0.2047121375799179
1740251553192195000,11.035195068359375,3.0779170989990234,-0.21799145638942719,-0.262741357088089
1740251553202177300,11.04517724609375,2.9568381309509277,-0.4344257414340973,-0.3252989947795868
1740251553212159500,11.055159423828124,2.831289291381836,-0.6167082190513611,-0.38862311840057373
1740251553222141200,11.06514111328125,2.719845771789551,-0.7543845772743225,-0.4395714998245239
1740251553232123400,11.075123291015625,2.6329398155212402,-0.8223029375076294,-0.4839365780353546
1740251553242105300,11.085105224609375,2.9603819847106934,-0.23267585039138794,-0.6854419708251953
1740251553252087300,11.09508740234375,4.0196003913879395,0.5524653196334839,-1.0242986679077148
1740251553262069200,11.1050693359375,4.8219804763793945,0.9000341892242432,-1.0924936532974243
1740251553272051500,11.115051513671874,4.786343097686768,1.0490851402282715,-1.2413218021392822
1740251553282033200,11.125033203125,4.092977523803711,0.4358324408531189,-1.4715791940689087
1740251553292015400,11.135015380859375,3.2913296222686768,-0.6159207224845886,-1.5179122686386108
1740251553301997300,11.144997314453125,2.4805612564086914,-1.5880908966064453,-1.384892225265503
1740251553311979300,11.154979248046875,1.69033944606781,-2.1782028675079346,-1.163146734237671
1740251553321961200,11.164961181640624,1.0825512409210205,-2.397000551223755,-0.9074739813804626
1740251553331943200,11.174943115234376,0.7327245473861694,-2.344775915145874,-0.6541735529899597
1740251553341925400,11.18492529296875,0.6768040657043457,-2.177600383758545,-0.3694435656070709
1740251553351907300,11.1949072265625,0.8789499402046204,-2.015657663345337,-0.039152730256319046
1740251553361889300,11.20488916015625,1.2064508199691772,-1.8756909370422363,0.2964572310447693
1740251553371871200,11.214871337890624,1.4433538913726807,-1.684804916381836,0.5708373785018921
1740251553381852400,11.224852294921876,1.4742913246154785,-1.402053952217102,0.7244027256965637
1740251553391834400,11.23483447265625,1.2473609447479248,-0.9862471222877502,0.7323985695838928
1740251553401816300,11.24481640625,0.8119522929191589,-0.5566334128379822,0.6320618391036987
1740251553411798300,11.25479833984375,0.2287578135728836,-0.23395390808582306,0.5377960801124573
1740251553421780200,11.2647802734375,-0.4459308683872223,-0.06555157899856567,0.49850672483444214
1740251553431762200,11.27476220703125,-1.1674107313156128,0.06753989309072495,0.49652642011642456
1740251553441744400,11.284744384765625,-1.891976237297058,0.23119407892227173,0.5008577704429626
1740251553451726000,11.29472607421875,-2.544729709625244,0.4535307288169861,0.49895069003105164
1740251553461708300,11.304708251953125,-3.057408094406128,0.6749531626701355,0.4957791268825531
1740251553471690200,11.314690185546874,-3.443815231323242,0.8158628344535828,0.5045137405395508
1740251553481672200,11.324672119140626,-3.7523434162139893,0.859702467918396,0.5158495306968689
1740251553491654400,11.334654296875,-4.0109734535217285,0.8512144684791565,0.5084221959114075
1740251553501636400,11.34463623046875,-4.209001064300537,0.8206698894500732,0.46831101179122925
1740251553511618300,11.354618408203125,-4.337698936462402,0.839820146560669,0.36273184418678284
1740251553521600300,11.364600341796875,-4.39949369430542,0.9922786355018616,0.18505267798900604
1740251553531582500,11.37458251953125,-4.403975486755371,1.2762682437896729,-0.026577549055218697
1740251553541564200,11.384564208984376,-4.377655029296875,1.6007992029190063,-0.17523519694805145
1740251553551546400,11.39454638671875,-4.35811185836792,1.879378080368042,-0.19080963730812073
1740251553561527300,11.40452734375,-4.3316569328308105,2.082409381866455,-0.07559462636709213
1740251553571509200,11.41450927734375,-4.276285648345947,2.1938962936401367,0.13074176013469696
1740251553581491200,11.4244912109375,-4.224302768707275,2.132678985595703,0.38633304834365845
1740251553591473400,11.434473388671876,-4.155869960784912,1.9039775133132935,0.6375471949577332
1740251553601455000,11.444455078125,-4.062563896179199,1.624214768409729,0.8069140911102295
1740251553611437300,11.454437255859375,-3.9388115406036377,1.42327082157135,0.8479965329170227
1740251553621419300,11.464419189453125,-3.7663612365722656,1.3938015699386597,0.7673578858375549
1740251553631401200,11.474401123046874,-3.5336527824401855,1.5483269691467285,0.5579455494880676
1740251553641383700,11.4843837890625,-3.1810142993927,1.714456558227539,0.30203762650489807
1740251553651365600,11.49436572265625,-2.719696521759033,1.7194100618362427,0.11501606553792953
1740251553661347600,11.50434765625,-2.2135093212127686,1.490025281906128,0.018131598830223083
1740251553671329500,11.51432958984375,-1.7309763431549072,1.076830267906189,-0.025739718228578568
1740251553681311500,11.5243115234375,-1.2955418825149536,0.5842821002006531,-0.06444477289915085
1740251553691293400,11.53429345703125,-0.9238486886024475,0.08201897144317627,-0.12319783121347427
1740251553701275600,11.544275634765626,-0.6392518877983093,-0.3838360905647278,-0.20531374216079712
1740251553711257300,11.55425732421875,-0.42329081892967224,-0.7743095755577087,-0.29610517621040344
1740251553721239600,11.564239501953125,-0.2738232910633087,-1.0794481039047241,-0.3692086637020111
1740251553731221500,11.574221435546875,-0.18339166045188904,-1.2840588092803955,-0.4005793631076813
1740251553741203500,11.584203369140624,-0.13056519627571106,-1.4306706190109253,-0.39500245451927185
1740251553751185400,11.594185302734376,-0.12425324320793152,-1.5428194999694824,-0.3603810966014862
1740251553761166600,11.60416650390625,-0.2762632668018341,-1.547776699066162,-0.28182050585746765
1740251553771148500,11.6141484375,-1.0176939964294434,-1.1853386163711548,-0.19086235761642456
1740251553781130500,11.624130615234375,-1.8654614686965942,-0.5581556558609009,-0.30009084939956665
1740251553791112400,11.634112548828124,-2.3087100982666016,0.2792833149433136,-0.31187665462493896
1740251553801094700,11.6440947265625,-2.3565824031829834,0.9983386397361755,-0.10951823741197586
1740251553811076600,11.65407666015625,-2.143385648727417,1.3886011838912964,0.2819821536540985
1740251553821058600,11.66405859375,-1.8091886043548584,1.297091007232666,0.7254754304885864
1740251553831040500,11.67404052734375,-1.3751226663589478,0.6722633242607117,1.1463552713394165
1740251553841022500,11.6840224609375,-0.8743919730186462,-0.359017014503479,1.4547789096832275
1740251553851004700,11.694004638671874,-0.36926859617233276,-1.5378458499908447,1.5827081203460693
1740251553860986400,11.703986328125,0.012072907760739326,-2.4822072982788086,1.5205429792404175
1740251553870968600,11.713968505859375,0.17648369073867798,-2.8106842041015625,1.235984206199646
1740251553880950500,11.723950439453125,0.13479803502559662,-2.4956674575805664,0.7201400399208069
1740251553890932500,11.733932373046875,-0.030651120468974113,-1.821751356124878,0.14830078184604645
1740251553900914400,11.74391455078125,-0.24045415222644806,-1.1130026578903198,-0.28253981471061707
1740251553910896600,11.753896728515626,-0.3733575940132141,-0.6838629841804504,-0.5329331755638123
1740251553920878300,11.76387841796875,-0.3911576271057129,-0.4952763319015503,-0.6682350635528564
1740251553930860500,11.773860595703125,-0.29770171642303467,-0.46627289056777954,-0.7513744235038757
1740251553940842800,11.7838427734375,-0.15860748291015625,-0.5277115106582642,-0.8120124340057373
1740251553950824400,11.793824462890624,-0.04339833930134773,-0.6044139862060547,-0.8582127094268799
1740251553960805400,11.803805419921876,-0.008100803010165691,-0.5896182656288147,-0.8919951915740967
1740251553970787600,11.81378759765625,-0.07719545066356659,-0.4752885103225708,-0.9111353158950806
1740251553980769500,11.82376953125,-0.2209789901971817,-0.3023761212825775,-0.9216102957725525
1740251553990751500,11.83375146484375,-0.3824581503868103,-0.115886390209198,-0.9175207614898682
1740251554000733700,11.843733642578124,-0.4984910190105438,0.050277817994356155,-0.8974863290786743
1740251554010715400,11.85371533203125,-0.547832727432251,0.1436045616865158,-0.852606475353241
1740251554020697600,11.863697509765625,-0.5425559282302856,0.1429414451122284,-0.7665999531745911
1740251554030679600,11.873679443359375,-0.5256875157356262,0.04957527667284012,-0.6393541097640991
1740251554040661500,11.88366162109375,-0.513910710811615,-0.061763498932123184,-0.4811594486236572
1740251554050643500,11.8936435546875,-0.5051771402359009,-0.12434352189302444,-0.30247437953948975
1740251554060625700,11.903625732421874,-0.5003781318664551,-0.10501589626073837,-0.12018419802188873
1740251554070607400,11.913607421875,-0.5053310990333557,-0.01854092814028263,0.07981280982494354
1740251554080589600,11.923589599609375,-0.50846266746521,0.11966168880462646,0.3030794560909271
1740251554090571500,11.933571533203125,-0.4792499542236328,0.2770920693874359,0.5547124743461609
1740251554100553500,11.943553466796875,-0.40171414613723755,0.41586723923683167,0.804112434387207
1740251554110535700,11.95353564453125,-0.24950942397117615,0.5349640846252441,1.0421159267425537
1740251554120517400,11.963517333984376,-0.026524551212787628,0.6559986472129822,1.2599633932113647
1740251554130499600,11.97349951171875,0.25171640515327454,0.8299896121025085,1.4503988027572632
1740251554140481500,11.9834814453125,0.5525635480880737,1.036022663116455,1.6159530878067017
1740251554150463500,11.99346337890625,0.8436681032180786,1.2588152885437012,1.7578705549240112
1740251554160445400,12.003445556640624,1.0699816942214966,1.4733099937438965,1.899470567703247
1740251554170427600,12.013427734375,1.2379515171051025,1.6505789756774902,2.05623197555542
1740251554180409300,12.023409423828125,1.3628058433532715,1.8012197017669678,2.205045700073242
1740251554190391600,12.0333916015625,1.4618911743164062,1.9309343099594116,2.328730821609497
1740251554200373500,12.04337353515625,1.549622893333435,2.019503593444824,2.4013707637786865
1740251554210355500,12.05335546875,1.6414893865585327,2.0442469120025635,2.3999879360198975
1740251554220337700,12.063337646484374,1.75631844997406,2.029581308364868,2.325737476348877
1740251554230319600,12.073319580078126,1.876467227935791,1.8105719089508057,2.1511638164520264
1740251554240300500,12.083300537109375,2.0811638832092285,1.2189258337020874,1.8326681852340698
1740251554250282500,12.093282470703125,2.26413893699646,1.9808986186981201,1.6114643812179565
1740251554260264700,12.1032646484375,2.275181293487549,2.3638968467712402,1.3312740325927734
1740251554270246400,12.113246337890626,2.206470489501953,1.6012005805969238,0.9433635473251343
1740251554280228600,12.123228515625,2.2609574794769287,1.0506274700164795,0.5033456683158875
1740251554290210600,12.13321044921875,2.464694023132324,1.1693642139434814,0.09356030821800232
1740251554300192500,12.143192626953125,2.667346239089966,1.3585660457611084,-0.20347829163074493
1740251554310174500,12.153174560546875,2.7385435104370117,1.310102939605713,-0.34037622809410095
1740251554320156700,12.16315673828125,2.7263970375061035,1.051649808883667,-0.38636714220046997
1740251554330138400,12.173138427734376,2.743594169616699,0.680152416229248,-0.40846365690231323
1740251554340120600,12.18312060546875,2.798823595046997,0.3227514326572418,-0.4708450138568878
1740251554350102500,12.1931025390625,2.8566277027130127,0.03592151403427124,-0.6090471148490906
1740251554360084500,12.20308447265625,2.891502618789673,-0.10721806436777115,-0.8073788285255432
1740251554370066700,12.213066650390624,2.8998804092407227,-0.09388681501150131,-1.043225646018982
1740251554380047600,12.223047607421876,2.8784542083740234,-0.013682522810995579,-1.2779085636138916
1740251554390029300,12.233029296875,2.8238236904144287,0.047154463827610016,-1.48231840133667
1740251554400011500,12.243011474609375,2.757826328277588,0.03345063328742981,-1.6257023811340332
1740251554409993500,12.252993408203125,2.6813952922821045,-0.05685609206557274,-1.6881370544433594
1740251554419975400,12.262975341796874,2.5955731868743896,-0.20988106727600098,-1.6891506910324097
1740251554429957600,12.27295751953125,2.5099074840545654,-0.38828036189079285,-1.6579546928405762
1740251554439939600,12.282939697265626,2.427483081817627,-0.5471416711807251,-1.6219077110290527
1740251554449921500,12.292921630859375,2.3565618991851807,-0.6467089653015137,-1.6109570264816284
1740251554459903500,12.302903564453125,2.287997007369995,-0.6617582440376282,-1.6311742067337036
1740251554469885700,12.3128857421875,2.2086715698242188,-0.6152818202972412,-1.6621456146240234
1740251554479867400,12.322867431640624,2.1145126819610596,-0.554701030254364,-1.6660727262496948
1740251554489849600,12.332849609375,2.0089094638824463,-0.5200290679931641,-1.611807942390442
1740251554499831600,12.34283154296875,1.8924411535263062,-0.526534914970398,-1.5065404176712036
1740251554509813500,12.3528134765625,1.7746301889419556,-0.5767719745635986,-1.3691942691802979
1740251554519795500,12.36279541015625,1.6577389240264893,-0.6476472020149231,-1.2288559675216675
1740251554529777400,12.37277734375,1.5322086811065674,-0.6892801523208618,-1.112533688545227
1740251554539758300,12.38275830078125,1.3891305923461914,-0.6635329723358154,-1.047153115272522
1740251554549740500,12.392740478515625,1.2103172540664673,-0.5960849523544312,-1.0158095359802246
1740251554559722500,12.402722412109375,0.9861243367195129,-0.5480734705924988,-0.9947212934494019
1740251554569704400,12.412704345703125,0.7304419875144958,-0.5507664680480957,-0.9547578692436218
1740251554579686700,12.422686767578124,0.47667786478996277,-0.608349084854126,-0.9009796380996704
1740251554589668600,12.432668701171876,0.23071710765361786,-0.6977953314781189,-0.8604031801223755
1740251554599650600,12.442650634765625,0.006296245381236076,-0.7917932271957397,-0.8647651672363281
1740251554609632500,12.452632568359375,-0.1878812164068222,-0.8428830504417419,-0.9222023487091064
1740251554619614700,12.46261474609375,-0.3812330961227417,-0.8050379157066345,-1.0048195123672485
1740251554629596400,12.472596435546874,-0.598922848701477,-0.6587451696395874,-1.0933001041412354
1740251554639578000,12.482578125,-0.8563833832740784,-0.48067793250083923,-1.14818274974823
1740251554649560300,12.492560302734375,-1.1924335956573486,-0.36584562063217163,-1.133544921875
1740251554659542000,12.5025419921875,-1.5714091062545776,-0.3466458320617676,-1.0360937118530273
1740251554669524200,12.512524169921875,-1.8967204093933105,-0.41783052682876587,-0.8911235332489014
1740251554679506200,12.522506103515624,-2.1383614540100098,-0.5033851265907288,-0.7295119762420654
1740251554689488100,12.532488037109376,-2.3036420345306396,-0.5623514652252197,-0.5830919146537781
1740251554699470300,12.54247021484375,-2.4144160747528076,-0.4849930703639984,-0.46678048372268677
1740251554709452000,12.5524521484375,-2.4813454151153564,-0.21127016842365265,-0.3754492402076721
1740251554719434200,12.562434326171875,-2.5024945735931396,0.24113458395004272,-0.29507237672805786
1740251554729416200,12.572416259765625,-2.4941141605377197,0.6891086101531982,-0.20823310315608978
