time,seconds_elapsed,z,y,x
1740251542205906000,0.048906005859375,0.592841625213623,2.1277999877929688,-0.8733276128768921
1740251542215888000,0.058887939453125,0.47076448798179626,0.44424644112586975,-1.2370483875274658
1740251542225868800,0.068868896484375,0.5230998992919922,-1.3480238914489746,-1.3871031999588013
1740251542235850800,0.078850830078125,0.8717555999755859,-2.763169050216675,-1.5680418014526367
1740251542245833000,0.0888330078125,1.3256220817565918,-4.092130661010742,-1.7165895700454712
1740251542255815000,0.09881494140625,1.7458163499832153,-4.186338424682617,-2.132380962371826
1740251542265796900,0.108796875,1.8910603523254395,-0.7397689819335938,-3.2450826168060303
1740251542275777800,0.11877783203125,2.0027167797088623,1.529984474182129,-3.6371171474456787
1740251542285760000,0.128760009765625,2.146475076675415,1.9065120220184326,-3.6520960330963135
1740251542295741700,0.13874169921875,2.2302322387695312,1.5549418926239014,-3.633599042892456
1740251542305724000,0.148723876953125,1.8992514610290527,0.7960291504859924,-3.4444832801818848
1740251542315704800,0.158704833984375,1.4306063652038574,0.7119735479354858,-3.321019172668457
1740251542325687000,0.16868701171875,0.8659621477127075,0.9857488870620728,-3.131953239440918
1740251542335668700,0.178668701171875,0.1424987018108368,0.7056260108947754,-2.805044412612915
1740251542345651000,0.18865087890625,-0.7406697273254395,-0.2501651644706726,-2.6360044479370117
1740251542355633000,0.1986328125,-1.1771608591079712,-0.5099839568138123,-2.5081498622894287
1740251542365613800,0.20861376953125,-1.3572741746902466,-0.49016499519348145,-2.458202362060547
1740251542375595800,0.218595703125,-1.4412446022033691,-0.2915305495262146,-2.4474868774414062
1740251542385578000,0.228577880859375,-1.4843744039535522,0.11873874068260193,-2.4410862922668457
1740251542395559700,0.2385595703125,-1.530106782913208,0.4280973970890045,-2.3371269702911377
1740251542405542000,0.2485419921875,-1.6161764860153198,-0.18260829150676727,-1.8732142448425293
1740251542415522800,0.258522705078125,-1.6367321014404297,-0.7801368832588196,-1.4219450950622559
1740251542425505000,0.268505126953125,-1.6822545528411865,-1.6391973495483398,-0.9329102039337158
1740251542435486700,0.27848681640625,-1.6818177700042725,-2.488927125930786,-0.4839351773262024
1740251542445469000,0.288468994140625,-1.6502854824066162,-2.575835704803467,-0.08804161846637726
1740251542455451000,0.298450927734375,-1.6046684980392456,-1.4383774995803833,0.31277796626091003
1740251542465431800,0.308431884765625,-1.6824660301208496,-0.0968455821275711,0.7556190490722656
1740251542475413800,0.318413818359375,-1.8009790182113647,0.6372354626655579,1.2599313259124756
1740251542485396000,0.32839599609375,-1.7546932697296143,1.2557051181793213,1.8173019886016846
1740251542495377700,0.338377685546875,-1.541301965713501,2.3600831031799316,2.40655255317688
1740251542505360000,0.34835986328125,-1.1457793712615967,4.017866611480713,3.0096213817596436
1740251542515340800,0.3583408203125,-0.547455370426178,5.770259380340576,3.582622528076172
1740251542525323000,0.368322998046875,0.16309918463230133,7.207397937774658,4.126957416534424
1740251542535304700,0.3783046875,0.8413217663764954,7.8985595703125,4.695287227630615
1740251542545287000,0.388286865234375,1.2981665134429932,6.3597412109375,5.209772109985352
1740251542555268900,0.398268798828125,0.915970504283905,3.6318881511688232,4.797730922698975
1740251542565249800,0.408249755859375,0.5686047673225403,4.0316596031188965,4.968506336212158
1740251542575231700,0.418231689453125,-0.16145049035549164,4.268075466156006,4.767496109008789
1740251542585214000,0.4282138671875,-1.116240382194519,5.035913944244385,4.200546741485596
1740251542595195600,0.438195556640625,-2.153928756713867,5.7356109619140625,3.245849132537842
1740251542605176800,0.4481767578125,-2.682535409927368,5.9192986488342285,2.3909811973571777
1740251542615158800,0.45815869140625,-2.688495635986328,5.478320598602295,1.666877031326294
1740251542625140700,0.468140625,-2.3384833335876465,4.689404010772705,1.1106274127960205
1740251542635122700,0.478122802734375,-1.8286609649658203,3.5600690841674805,0.6535893678665161
1740251542645105000,0.48810498046875,-1.4536296129226685,2.2925500869750977,0.15800650417804718
1740251542655085800,0.4980859375,-1.397428274154663,1.079347014427185,-0.3803545832633972
1740251542665067800,0.50806787109375,-1.6006485223770142,0.06356415152549744,-0.8834542036056519
1740251542675049700,0.5180498046875,-1.8927196264266968,-0.7415251135826111,-1.2422841787338257
1740251542685032000,0.528031982421875,-2.187711238861084,-1.4024535417556763,-1.4716068506240845
1740251542695014000,0.538013916015625,-2.4646294116973877,-2.0103554725646973,-1.6454731225967407
1740251542704994600,0.54799462890625,-2.7111616134643555,-2.4035251140594482,-1.8746570348739624
1740251542714976800,0.557976806640625,-2.9428818225860596,-2.281142234802246,-2.2102150917053223
1740251542724959000,0.567958984375,-3.130514621734619,-1.6336010694503784,-2.5490221977233887
1740251542734940700,0.577940673828125,-3.1979334354400635,-0.6105998158454895,-2.6649272441864014
1740251542744923000,0.5879228515625,-3.1743850708007812,0.4307810962200165,-2.4834887981414795
1740251542754903800,0.59790380859375,-3.228851318359375,1.2769721746444702,-2.1406993865966797
1740251542764885800,0.6078857421875,-3.3786468505859375,1.6280745267868042,-1.7031883001327515
1740251542774867700,0.61786767578125,-3.645235300064087,1.6948041915893555,-1.2532764673233032
1740251542784850000,0.627849853515625,-4.034091949462891,1.6485298871994019,-0.8471837639808655
1740251542794832000,0.637831787109375,-4.433672904968262,1.742205023765564,-0.4525443911552429
1740251542804812500,0.6478125,-4.754877090454102,2.1203999519348145,-0.045524682849645615
1740251542814794800,0.657794677734375,-4.89073371887207,2.6601626873016357,0.3476768136024475
1740251542824777000,0.66777685546875,-4.755438327789307,3.2052693367004395,0.7366629242897034
1740251542834758700,0.677758544921875,-4.384912014007568,3.6315083503723145,1.1130774021148682
1740251542844740900,0.687740966796875,-3.923877239227295,4.00482177734375,1.4323365688323975
1740251542854721800,0.6977216796875,-3.5378541946411133,4.518637657165527,1.676118016242981
1740251542864704000,0.7077041015625,-3.2963597774505615,5.131128311157227,1.7966185808181763
1740251542874685700,0.717685791015625,-3.2419559955596924,5.652400016784668,1.6712952852249146
1740251542884668000,0.72766796875,-3.0298995971679688,6.504184246063232,1.6315172910690308
1740251542894649900,0.73764990234375,-2.782801628112793,7.10869836807251,1.66257643699646
1740251542904630800,0.747630859375,-2.489480495452881,7.467004776000977,1.83613121509552
1740251542914612700,0.75761279296875,-2.20664381980896,7.699352741241455,2.0811479091644287
1740251542924595000,0.767594970703125,-1.9256322383880615,7.674280643463135,2.392641067504883
1740251542934576600,0.77757666015625,-1.6083210706710815,7.402778148651123,2.7580816745758057
1740251542944558800,0.787558837890625,-1.2847896814346313,6.920453071594238,3.0968050956726074
1740251542954539800,0.797539794921875,-0.9945012331008911,6.226504325866699,3.355959415435791
1740251542964522000,0.80752197265625,-0.8098328709602356,5.342614650726318,3.489943742752075
1740251542974503700,0.817503662109375,-0.7538992762565613,4.354114055633545,3.455737829208374
1740251542984486000,0.82748583984375,-0.7930520176887512,3.4410488605499268,3.1280620098114014
1740251542994467800,0.8374677734375,-0.8667292594909668,2.7200562953948975,2.3809306621551514
1740251543004448800,0.84744873046875,-0.8766154646873474,1.9661155939102173,1.3732627630233765
1740251543014430700,0.8574306640625,-0.8017706274986267,1.0697320699691772,0.4283537268638611
1740251543024413000,0.867412841796875,-0.7455422282218933,0.13010787963867188,-0.3089296519756317
1740251543034394600,0.87739453125,-0.8005784749984741,-0.7608593106269836,-0.9151737093925476
1740251543044376800,0.887376953125,-0.9007471799850464,-1.6507703065872192,-1.4380179643630981
1740251543054357800,0.897357666015625,-1.0151896476745605,-2.4184324741363525,-1.9600976705551147
1740251543064340000,0.907340087890625,-1.136976718902588,-3.072435140609741,-2.43212890625
1740251543074321700,0.91732177734375,-1.292571783065796,-3.6182541847229004,-2.762821912765503
1740251543084304000,0.927303955078125,-1.5241743326187134,-3.9715399742126465,-2.9093940258026123
1740251543094285800,0.937285888671875,-1.8216334581375122,-4.1688103675842285,-2.9341535568237305
1740251543104267000,0.94726708984375,-2.0430314540863037,-4.269907474517822,-2.9248759746551514
1740251543114248700,0.957248779296875,-2.03694748878479,-4.358237266540527,-2.9222047328948975
1740251543124231000,0.96723095703125,-1.8622958660125732,-4.437913417816162,-2.971341371536255
1740251543134212600,0.977212646484375,-1.7351516485214233,-4.402517318725586,-3.0625994205474854
1740251543144194800,0.98719482421875,-1.8413957357406616,-4.310340881347656,-3.1740212440490723
1740251543154176800,0.9971767578125,-2.1456730365753174,-4.281769275665283,-3.218557357788086
1740251543164158000,1.007157958984375,-2.466618061065674,-4.287147521972656,-3.167875051498413
1740251543174139600,1.0171396484375,-2.7720882892608643,-4.2393903732299805,-3.033851146697998
1740251543184121900,1.027121826171875,-3.0553698539733887,-4.076321601867676,-2.8265836238861084
1740251543194103800,1.037103759765625,-3.2648680210113525,-3.9215917587280273,-2.6124789714813232
1740251543204085800,1.047085693359375,-3.3740453720092773,-3.6914219856262207,-2.3175718784332275
1740251543214066700,1.057066650390625,-3.385554790496826,-3.5188798904418945,-1.9460902214050293
1740251543224049000,1.067048828125,-3.28924560546875,-3.438819169998169,-1.5333635807037354
1740251543234030800,1.07703076171875,-3.0434651374816895,-3.4751992225646973,-1.0835990905761719
1740251543244012800,1.0870126953125,-2.647698163986206,-3.548064947128296,-0.6209228038787842
1740251543253994800,1.096994873046875,-2.182199716567993,-3.6164770126342773,-0.12713290750980377
1740251543263976000,1.106975830078125,-1.6830352544784546,-3.4395198822021484,0.3763408660888672
1740251543273957600,1.11695751953125,-1.1792019605636597,-2.975379228591919,0.8299517631530762
1740251543283939800,1.12693994140625,-0.6875027418136597,-2.154902696609497,1.228945255279541
1740251543293921800,1.136921875,-0.21969537436962128,-1.2820775508880615,1.582404375076294
1740251543303903700,1.14690380859375,0.21246935427188873,-0.5218862891197205,1.890167474746704
1740251543313884700,1.156884765625,0.6060440540313721,0.07292599976062775,2.1572093963623047
1740251543323867000,1.166866943359375,0.9974909424781799,0.5207090973854065,2.364205837249756
1740251543333848800,1.176848876953125,1.3898365497589111,0.8192241191864014,2.4990100860595703
1740251543343830800,1.186830810546875,1.7522281408309937,0.9997634887695312,2.5596935749053955
1740251543353812700,1.196812744140625,2.021179437637329,1.1098650693893433,2.547044038772583
1740251543363794000,1.2067939453125,2.1751813888549805,1.251670479774475,2.4456984996795654
1740251543373775600,1.216775634765625,2.219532012939453,1.4716975688934326,2.2501206398010254
1740251543383757800,1.2267578125,2.148937940597534,1.8957833051681519,1.8634543418884277
1740251543393739800,1.23673974609375,1.983402132987976,2.320035457611084,1.2387044429779053
1740251543403721700,1.2467216796875,1.8581502437591553,2.6379802227020264,0.5450588464736938
1740251543413702700,1.25670263671875,1.8105274438858032,2.6828272342681885,-0.005610823165625334
1740251543423684900,1.266684814453125,1.796570897102356,2.3971660137176514,-0.37456008791923523
1740251543433666800,1.276666748046875,1.8090448379516602,1.8981291055679321,-0.6271060705184937
1740251543443648800,1.286648681640625,1.862179160118103,1.3070751428604126,-0.7914034128189087
1740251543453630700,1.296630615234375,1.9704277515411377,0.745492160320282,-0.8973140716552734
1740251543463612700,1.30661279296875,2.107887029647827,0.263592392206192,-0.9936054348945618
1740251543473593600,1.316593505859375,2.190717935562134,0.04953073337674141,-1.0779404640197754
1740251543483575800,1.326575927734375,2.2314741611480713,-0.0636938288807869,-1.2188997268676758
1740251543493557800,1.336557861328125,2.225806474685669,-0.04916570335626602,-1.2871482372283936
1740251543503539700,1.346539794921875,2.1339681148529053,0.13601000607013702,-1.236009120941162
1740251543513521700,1.356521728515625,1.9098397493362427,0.3855799436569214,-1.074670672416687
1740251543523502800,1.3665029296875,1.6324797868728638,0.6748002767562866,-0.819667398929596
1740251543533484800,1.37648486328125,1.4171744585037231,0.8465866446495056,-0.4522657096385956
1740251543543466800,1.386466796875,1.350522756576538,0.8613150119781494,-0.009610512293875217
1740251543553448700,1.39644873046875,1.4633972644805908,0.8144941926002502,0.4506434500217438
1740251543563431000,1.406430908203125,1.729300618171692,0.8515475392341614,0.8408588767051697
1740251543573411600,1.41641162109375,2.082160711288452,1.1174700260162354,1.087404727935791
1740251543583393800,1.426393798828125,2.450279951095581,1.614894986152649,1.1695512533187866
1740251543593375700,1.436375732421875,2.7668962478637695,2.3476853370666504,1.1030415296554565
1740251543603357700,1.446357666015625,3.0286571979522705,3.221289873123169,0.9333445429801941
1740251543613339600,1.456339599609375,3.222928047180176,4.008878707885742,0.7425989508628845
1740251543623320800,1.46632080078125,3.313044309616089,4.459386825561523,0.6018948554992676
1740251543633303000,1.476302978515625,3.2779855728149414,4.456961631774902,0.5256324410438538
1740251543643284700,1.48628466796875,3.1189606189727783,4.098122596740723,0.4770609438419342
1740251543653267000,1.496266845703125,2.890352964401245,3.4885683059692383,0.4623509645462036
1740251543663249000,1.506248779296875,2.6458749771118164,2.789055824279785,0.46912258863449097
1740251543673230800,1.51623095703125,2.4427242279052734,2.1595265865325928,0.46893852949142456
1740251543683211800,1.526211669921875,2.3355674743652344,1.596936821937561,0.45892104506492615
1740251543693194000,1.536194091796875,2.344909429550171,1.0665671825408936,0.445455938577652
1740251543703176000,1.546176025390625,2.4614920616149902,0.5541409254074097,0.441980242729187
1740251543713158000,1.556157958984375,2.6159615516662598,0.06087177246809006,0.45498934388160706
1740251543723140000,1.56614013671875,2.7186596393585205,-0.35419413447380066,0.4605388343334198
1740251543733121000,1.57612109375,2.7586405277252197,-0.6590584516525269,0.45830658078193665
1740251543743102700,1.586102783203125,2.7498726844787598,-0.8376151323318481,0.44289565086364746
1740251543753085000,1.5960849609375,2.732626438140869,-0.8935707211494446,0.43244579434394836
1740251543763067000,1.60606689453125,2.743837594985962,-0.865280270576477,0.43775269389152527
1740251543773048800,1.616048828125,2.7821245193481445,-0.7927791476249695,0.4467695355415344
1740251543783029800,1.62602978515625,2.836064100265503,-0.7017917633056641,0.46395865082740784
1740251543793012000,1.636011962890625,2.8867712020874023,-0.6088478565216064,0.47996777296066284
1740251543802994000,1.645993896484375,2.896561622619629,-0.49149519205093384,0.49477654695510864
1740251543812975900,1.655975830078125,2.852630615234375,-0.37161245942115784,0.5237051248550415
1740251543822958000,1.6659580078125,2.7247908115386963,-0.30855706334114075,0.5561719536781311
1740251543832939000,1.67593896484375,2.5336902141571045,-0.26968494057655334,0.5978122353553772
1740251543842921000,1.6859208984375,2.2933828830718994,-0.20612619817256927,0.6508155465126038
1740251543852903000,1.69590283203125,2.030738115310669,-0.09036554396152496,0.7173191905021667
1740251543862885000,1.705885009765625,1.786668300628662,0.028902258723974228,0.7873696684837341
1740251543872866800,1.71586669921875,1.5848808288574219,0.08720725774765015,0.8454091548919678
1740251543882849000,1.72584912109375,1.418397068977356,0.07703691720962524,0.876921534538269
1740251543892830000,1.735829833984375,1.290700078010559,0.032575830817222595,0.8855845928192139
1740251543902812000,1.74581201171875,1.1913009881973267,-0.016900107264518738,0.8764235973358154
1740251543912793900,1.7557939453125,1.1048461198806763,-0.056524548679590225,0.8599056005477905
1740251543922776000,1.765776123046875,1.0095534324645996,-0.11424483358860016,0.8263399004936218
1740251543932757800,1.7757578125,0.8989461660385132,-0.187517911195755,0.770469605922699
1740251543942739000,1.785739013671875,0.749902069568634,-0.2655014097690582,0.6925526857376099
1740251543952721000,1.795720947265625,0.5610806345939636,-0.34400033950805664,0.6013467907905579
1740251543962703000,1.805703125,0.37484604120254517,-0.4125410318374634,0.4936591684818268
1740251543972684800,1.815684814453125,0.24231481552124023,-0.45370104908943176,0.37341219186782837
1740251543982667000,1.8256669921875,0.1960541158914566,-0.4629267752170563,0.24378444254398346
1740251543992648000,1.83564794921875,0.22655276954174042,-0.4528392553329468,0.11167147755622864
1740251544002630000,1.8456298828125,0.2895655632019043,-0.42342597246170044,0.0025708244647830725
1740251544012611800,1.85561181640625,0.3073752820491791,-0.3742330074310303,-0.07350572943687439
1740251544022594000,1.865593994140625,0.2466520220041275,-0.40417200326919556,-0.08679091185331345
1740251544032575700,1.87557568359375,0.16753174364566803,-0.5146486759185791,-0.051875341683626175
1740251544042558000,1.885557861328125,0.09547567367553711,-0.7124163508415222,0.028103912249207497
1740251544052539000,1.895538818359375,0.03394176438450813,-0.9287899136543274,0.12823721766471863
1740251544062519800,1.905519775390625,0.0002687564119696617,-1.079811692237854,0.23985908925533295
1740251544072502000,1.915501953125,0.010589837096631527,-1.087793231010437,0.3576216697692871
1740251544082484000,1.92548388671875,0.04307214543223381,-0.9908782839775085,0.4837321937084198
1740251544092466000,1.9354658203125,0.09148456156253815,-0.7835596799850464,0.600276529788971
1740251544102447900,1.94544775390625,0.13630209863185883,-0.4642639458179474,0.6894833445549011
1740251544112428800,1.9554287109375,0.162186399102211,-0.1301722377538681,0.726590633392334
1740251544122411000,1.965410888671875,0.1324695199728012,0.15067221224308014,0.7364190816879272
1740251544132393000,1.97539306640625,0.05245180055499077,0.3504669964313507,0.7283291816711426
1740251544142375000,1.985375,-0.09386946260929108,0.4829515218734741,0.700057864189148
1740251544152356900,1.99535693359375,-0.3358019292354584,0.5270894169807434,0.6544619202613831
1740251544162339000,2.005339111328125,-0.6379286646842957,0.4527137279510498,0.5879647731781006
1740251544172320000,2.015320068359375,-0.944489598274231,0.3537546992301941,0.4745715856552124
1740251544182302000,2.025302001953125,-1.2178151607513428,0.29787757992744446,0.2843742370605469
1740251544192284000,2.035283935546875,-1.4643855094909668,0.3101882338523865,-0.002524713287129998
1740251544202265900,2.045265869140625,-1.6699628829956055,0.41305258870124817,-0.3953271210193634
1740251544212247800,2.055247802734375,-1.8429147005081177,0.37031733989715576,-0.7759699821472168
1740251544222229000,2.06522900390625,-2.0421087741851807,0.2856791317462921,-1.1075156927108765
1740251544232211000,2.0752109375,-2.250850200653076,0.09051182866096497,-1.408400297164917
1740251544242193000,2.08519287109375,-2.485442876815796,-0.11795029789209366,-1.7616363763809204
1740251544252174800,2.0951748046875,-2.821927785873413,-0.2566289007663727,-2.2052817344665527
1740251544262157000,2.105156982421875,-3.2594387531280518,-0.3954959809780121,-2.7045764923095703
1740251544272138000,2.115137939453125,-3.7419354915618896,-0.5777558088302612,-3.1737351417541504
1740251544282120000,2.125119873046875,-4.175244331359863,-0.8486840128898621,-3.517880916595459
1740251544292102000,2.135101806640625,-4.465340614318848,-1.1929656267166138,-3.690646171569824
1740251544302084000,2.145083984375,-4.54496955871582,-1.489580750465393,-3.704340934753418
1740251544312065800,2.155065673828125,-4.453301429748535,-1.7561479806900024,-3.603792667388916
1740251544322048000,2.165048095703125,-4.354882717132568,-1.9490090608596802,-3.401233196258545
1740251544332029000,2.17502880859375,-4.313359260559082,-1.938456654548645,-3.1045968532562256
1740251544342011000,2.185010986328125,-4.302765369415283,-1.7678889036178589,-2.731607675552368
1740251544351992800,2.194992919921875,-4.228700160980225,-1.5777746438980103,-2.3052618503570557
1740251544361975000,2.20497509765625,-4.098671913146973,-1.3635674715042114,-1.8445919752120972
1740251544371956700,2.214956787109375,-3.867525100708008,-1.080809473991394,-1.371695876121521
1740251544381938000,2.22493798828125,-3.5627095699310303,-0.850006103515625,-0.9406780004501343
1740251544391919900,2.234919921875,-3.2845640182495117,-0.6873762607574463,-0.688640832901001
1740251544401902000,2.244902099609375,-2.674635648727417,-0.5480050444602966,-0.6509989500045776
1740251544411883800,2.2548837890625,-1.9906810522079468,-0.5960525870323181,-0.7548532485961914
1740251544421866000,2.264865966796875,-1.2902451753616333,-0.9664008617401123,-0.8870898485183716
1740251544431848000,2.274847900390625,-0.6772138476371765,-1.4460920095443726,-0.9172623753547668
1740251544441828900,2.284828857421875,-0.29097509384155273,-1.8630956411361694,-0.7955545783042908
1740251544451810800,2.294810791015625,-0.14937303960323334,-2.1235032081604004,-0.5339741110801697
1740251544461793000,2.30479296875,-0.13453976809978485,-2.18967342376709,-0.19117788970470428
1740251544471774700,2.314774658203125,-0.18978959321975708,-2.164956569671631,0.16569103300571442
1740251544481757000,2.3247568359375,-0.25072216987609863,-2.196965217590332,0.4743492603302002
1740251544491737900,2.33473779296875,-0.29972490668296814,-2.3837897777557373,0.6992576718330383
1740251544501720000,2.344719970703125,-0.347220242023468,-2.5935614109039307,0.811281144618988
1740251544511701800,2.35470166015625,-0.35264620184898376,-2.6789073944091797,0.8032754063606262
1740251544521684000,2.36468408203125,-0.29151013493537903,-2.6207194328308105,0.7002827525138855
1740251544531666000,2.374666015625,-0.2013566941022873,-2.493619441986084,0.5269231796264648
1740251544541648000,2.38464794921875,-0.13879291713237762,-2.3757543563842773,0.30298325419425964
1740251544551628800,2.39462890625,-0.1380067765712738,-2.2725040912628174,0.06213460490107536
1740251544561611000,2.404611083984375,-0.18454605340957642,-2.222191095352173,-0.1775355190038681
1740251544571592700,2.4145927734375,-0.21980352699756622,-2.18371319770813,-0.3907347023487091
1740251544581575000,2.424574951171875,-0.23666132986545563,-2.101138114929199,-0.5621488094329834
1740251544591556900,2.434556884765625,-0.22741909325122833,-1.9243597984313965,-0.67964106798172
1740251544601538000,2.4445380859375,-0.22572772204875946,-1.6957839727401733,-0.7696895003318787
1740251544611519700,2.454519775390625,-0.23157666623592377,-1.4497554302215576,-0.8303765058517456
1740251544621502000,2.464501953125,-0.19912739098072052,-1.3674858808517456,-0.8955190777778625
1740251544631484000,2.47448388671875,-0.09292971342802048,-1.525193452835083,-1.015612244606018
1740251544641465900,2.4844658203125,-0.004049642011523247,-1.822637915611267,-1.2501789331436157
1740251544651447800,2.49444775390625,-0.03562595695257187,-2.0406506061553955,-1.6143829822540283
1740251544661429000,2.504428955078125,-0.05666971951723099,-2.2523691654205322,-2.0037765502929688
1740251544671410700,2.51441064453125,-0.0010710619390010834,-2.43894100189209,-2.2964982986450195
1740251544681393000,2.524392822265625,0.13363616168498993,-2.5098190307617188,-2.4522359371185303
1740251544691374800,2.534374755859375,0.3563590943813324,-2.2556004524230957,-2.4809072017669678
1740251544701356800,2.544356689453125,0.4966115355491638,-1.4061007499694824,-2.4125900268554688
1740251544711337700,2.554337646484375,0.34991705417633057,-0.25744006037712097,-2.2597692012786865
1740251544721320000,2.56431982421875,0.01596173457801342,0.564866840839386,-2.0091004371643066
1740251544731302000,2.574302001953125,-0.22204071283340454,0.893068253993988,-1.69215989112854
1740251544741283800,2.584283935546875,-0.2763281762599945,0.865430474281311,-1.3705661296844482
1740251544751265800,2.594265869140625,-0.12227775156497955,0.5328801870346069,-1.1108955144882202
1740251544761248000,2.604248046875,0.21284139156341553,0.23865172266960144,-0.9067836999893188
1740251544771228700,2.614228759765625,0.5876334309577942,0.31064286828041077,-0.7586215138435364
1740251544781211000,2.6242109375,0.7908658981323242,0.788692831993103,-0.6631274819374084
1740251544791192800,2.63419287109375,0.6673195362091064,1.5690627098083496,-0.5444238781929016
1740251544801174800,2.6441748046875,0.33008742332458496,2.489013910293579,-0.32026904821395874
1740251544811156700,2.65415673828125,0.028642678633332253,3.5532422065734863,0.01898958534002304
1740251544821139000,2.664138916015625,0.013172641396522522,4.7430949211120605,0.4904966652393341
1740251544831120000,2.674119873046875,0.3928767442703247,5.702337265014648,1.0941928625106812
1740251544841101800,2.684101806640625,0.9381294250488281,6.0009846687316895,1.743780493736267
1740251544851083800,2.694083740234375,1.4339594841003418,5.470585346221924,2.399298667907715
1740251544861066000,2.70406591796875,1.910332202911377,4.444567680358887,3.021061897277832
1740251544871047700,2.714047607421875,2.324645519256592,3.432551860809326,3.5065226554870605
1740251544881028900,2.72402880859375,2.6380345821380615,2.827927589416504,3.7494606971740723
1740251544891010800,2.7340107421875,2.799258232116699,2.836050510406494,3.6545944213867188
1740251544900992800,2.74399267578125,2.8215556144714355,3.2270607948303223,3.2816646099090576
1740251544910974700,2.753974609375,2.7500507831573486,3.654561996459961,2.8313732147216797
1740251544920957000,2.76395703125,2.6442854404449463,3.8181402683258057,2.5072665214538574
1740251544930938600,2.773938720703125,2.566131353378296,3.6267521381378174,2.367906093597412
1740251544940919800,2.783919921875,2.5437629222869873,3.183353900909424,2.378199815750122
1740251544950901800,2.79390185546875,2.6207144260406494,2.5740320682525635,2.4740381240844727
1740251544960884000,2.803884033203125,2.808440923690796,2.022916078567505,2.585134744644165
1740251544970865700,2.81386572265625,3.0443015098571777,1.6873937845230103,2.630589723587036
1740251544980847900,2.823847900390625,3.2566866874694824,1.567997932434082,2.580134630203247
1740251544990828800,2.833828857421875,3.398308038711548,1.5341287851333618,2.4820549488067627
1740251545000810800,2.843810791015625,3.4434547424316406,1.5177801847457886,2.361834764480591
1740251545010792700,2.853792724609375,3.4051990509033203,1.4535213708877563,2.212049961090088
1740251545020775000,2.86377490234375,3.3156228065490723,1.315549373626709,2.0005404949188232
1740251545030756600,2.873756591796875,3.2049825191497803,1.1731358766555786,1.7119492292404175
1740251545040738800,2.88373876953125,3.093179702758789,1.110568642616272,1.3534300327301025
1740251545050719700,2.8937197265625,2.9525864124298096,1.0853931903839111,0.9538736343383789
1740251545060702000,2.903701904296875,2.791055202484131,0.9098886847496033,0.5585574507713318
1740251545070683600,2.91368359375,2.6699652671813965,0.7202768325805664,0.25129014253616333
1740251545080665900,2.923665771484375,2.5989317893981934,0.5910349488258362,0.05054507032036781
1740251545090647800,2.933647705078125,2.5678482055664062,0.5019053816795349,-0.07096445560455322
1740251545100629800,2.943629638671875,2.56661057472229,0.38722535967826843,-0.16834640502929688
1740251545110610700,2.953610595703125,2.581641912460327,0.2430262267589569,-0.2808275818824768
1740251545120593000,2.963593017578125,2.6198840141296387,0.10845161974430084,-0.41170036792755127
1740251545130574600,2.97357470703125,2.6720523834228516,0.0054502468556165695,-0.563024640083313
1740251545140556800,2.983556884765625,2.720470905303955,-0.05301386117935181,-0.7129582166671753
1740251545150539000,2.9935390625,2.7599282264709473,-0.057254016399383545,-0.8491660952568054
1740251545160520000,3.00352001953125,2.779813766479492,-0.030220801010727882,-0.955662727355957
1740251545170501600,3.013501708984375,2.7834584712982178,-0.011562968604266644,-1.0219234228134155
1740251545180483800,3.02348388671875,2.764482259750366,0.013947984203696251,-1.0396171808242798
1740251545190466000,3.033466064453125,2.7344346046447754,0.06707805395126343,-1.016182780265808
1740251545200447700,3.04344775390625,2.7012150287628174,0.14703308045864105,-0.965300977230072
1740251545210430000,3.053429931640625,2.65956974029541,0.25807520747184753,-0.9038074612617493
1740251545220411000,3.063410888671875,2.5997209548950195,0.37962985038757324,-0.8249848484992981
1740251545230392800,3.073392822265625,2.4648544788360596,0.5060132741928101,-0.6978604197502136
1740251545240374800,3.083374755859375,2.2483651638031006,0.5936288833618164,-0.5120271444320679
1740251545250357000,3.09335693359375,2.027066946029663,0.6624309420585632,-0.2674156129360199
1740251545260338700,3.103338623046875,1.8683319091796875,0.6808011531829834,0.01892746426165104
1740251545270321000,3.11332080078125,1.796712875366211,0.5497475862503052,0.32804596424102783
1740251545280301800,3.1233017578125,1.80093514919281,0.22398672997951508,0.6547572016716003
1740251545290284000,3.133283935546875,1.8425906896591187,-0.275542676448822,0.9934473037719727
1740251545300265700,3.143265625,1.8461931943893433,-0.773242712020874,1.3418323993682861
1740251545310248000,3.153248046875,1.720872402191162,-1.1112827062606812,1.6746808290481567
1740251545320230000,3.16322998046875,1.4804044961929321,-1.2315016984939575,1.9417409896850586
1740251545330210800,3.1732109375,1.153667688369751,-1.1398499011993408,2.106858015060425
1740251545340192800,3.18319287109375,0.7809572219848633,-0.9183304905891418,2.1419179439544678
1740251545350175000,3.193175048828125,0.3884289264678955,-0.720865786075592,2.0774075984954834
1740251545360156700,3.20315673828125,-0.014801609329879284,-0.6384199261665344,1.9728636741638184
1740251545370139000,3.213138916015625,-0.44989311695098877,-0.6841733455657959,1.8550477027893066
1740251545380120800,3.223120849609375,-0.922630786895752,-0.7438608407974243,1.7015635967254639
1740251545390102000,3.23310205078125,-1.4677015542984009,-0.7942312955856323,1.4867054224014282
1740251545400083700,3.243083740234375,-2.1085474491119385,-0.7909606695175171,1.1954714059829712
1740251545410066000,3.25306591796875,-2.8202364444732666,-0.7715227603912354,0.8741576075553894
1740251545420048000,3.2630478515625,-3.5324954986572266,-0.7960390448570251,0.5713301301002502
1740251545430029800,3.27302978515625,-4.1890997886657715,-0.8434413075447083,0.3033563494682312
1740251545440011800,3.28301171875,-4.744865417480469,-0.8617897033691406,0.05568317323923111
1740251545449993000,3.292992919921875,-5.182704448699951,-0.7925378084182739,-0.1726713329553604
1740251545459974700,3.302974609375,-5.481968879699707,-0.6703647375106812,-0.38282617926597595
1740251545469956900,3.312956787109375,-5.650005340576172,-0.527087390422821,-0.5658896565437317
1740251545479938800,3.322938720703125,-5.702749729156494,-0.46102258563041687,-0.7103884816169739
1740251545489920800,3.332920654296875,-5.680790424346924,-0.48513567447662354,-0.8279131054878235
1740251545499902700,3.34290283203125,-5.627015113830566,-0.6048325300216675,-0.9372372031211853
1740251545509884000,3.3528837890625,-5.581920623779297,-0.7881684899330139,-1.0408954620361328
1740251545519865900,3.362865966796875,-5.5665364265441895,-0.9748629927635193,-1.1479982137680054
1740251545529847800,3.372847900390625,-5.607396125793457,-1.0911189317703247,-1.2654086351394653
1740251545539829800,3.382829833984375,-5.707771301269531,-1.0950905084609985,-1.4036424160003662
1740251545549812000,3.39281201171875,-5.841593265533447,-1.0001236200332642,-1.539647102355957
1740251545559793700,3.402793701171875,-5.984434127807617,-0.872363269329071,-1.6594444513320923
1740251545569774800,3.41277490234375,-6.103240966796875,-0.7906675934791565,-1.743385672569275
1740251545579756800,3.4227568359375,-6.211759567260742,-0.7986823916435242,-1.7840771675109863
1740251545589738800,3.43273876953125,-6.308423042297363,-0.9165624976158142,-1.7801527976989746
1740251545599720700,3.442720703125,-6.325869560241699,-1.0468480587005615,-1.7281628847122192
1740251545609703000,3.452702880859375,-6.252998352050781,-1.122639775276184,-1.6291699409484863
1740251545619684900,3.462684814453125,-6.0668792724609375,-1.1759016513824463,-1.4855791330337524
1740251545629666600,3.47266650390625,-5.799961566925049,-1.2376307249069214,-1.2882145643234253
1740251545639648800,3.482648681640625,-5.481988906860352,-1.3146319389343262,-1.0753536224365234
1740251545649630500,3.49263037109375,-5.094776630401611,-1.4380385875701904,-0.8505603075027466
1740251545659612700,3.50261279296875,-4.619157314300537,-1.5901522636413574,-0.6112694144248962
1740251545669594600,3.5125947265625,-4.06945276260376,-1.7190356254577637,-0.37143346667289734
1740251545679576600,3.52257666015625,-3.4809465408325195,-1.7885822057724,-0.1302216649055481
1740251545689557500,3.5325576171875,-2.8898704051971436,-1.8009397983551025,0.10438909381628036
1740251545699539700,3.542539794921875,-2.343474864959717,-1.8184950351715088,0.2936248183250427
1740251545709521400,3.552521484375,-1.878122329711914,-1.8122942447662354,0.44679468870162964
1740251545719503600,3.562503662109375,-1.4969291687011719,-1.815961480140686,0.5612884759902954
1740251545729485600,3.572485595703125,-1.2171381711959839,-1.811409592628479,0.6397940516471863
1740251545739467500,3.582467529296875,-1.0407730340957642,-1.7551900148391724,0.669835090637207
1740251545749448400,3.592448486328125,-0.929686427116394,-1.6642529964447021,0.6551751494407654
1740251545759430700,3.6024306640625,-0.8543953895568848,-1.5591236352920532,0.5977116227149963
1740251545769412600,3.61241259765625,-0.782073438167572,-1.4606772661209106,0.5065101385116577
1740251545779394600,3.62239453125,-0.7117859721183777,-1.4159544706344604,0.3662954568862915
1740251545789376500,3.63237646484375,-0.6329573392868042,-1.4315739870071411,0.17058032751083374
1740251545799358700,3.642358642578125,-0.5495447516441345,-1.45951509475708,-0.07272447645664215
1740251545809339600,3.652339599609375,-0.5036793351173401,-1.4305477142333984,-0.35821041464805603
1740251545819321600,3.662321533203125,-0.5146451592445374,-1.3132432699203491,-0.6521314978599548
1740251545829303600,3.672303466796875,-0.5740991234779358,-1.102684736251831,-0.9105908274650574
1740251545839285500,3.682285400390625,-0.6376959085464478,-0.8690823316574097,-1.1066341400146484
1740251545849267500,3.692267333984375,-0.6524840593338013,-0.6494601964950562,-1.236297845840454
1740251545859249700,3.702249755859375,-0.6335899829864502,-0.45390450954437256,-1.3203115463256836
1740251545869230600,3.712230712890625,-0.6161060333251953,-0.28749507665634155,-1.354882836341858
1740251545879212500,3.722212646484375,-0.6081453561782837,-0.09131038188934326,-1.3356794118881226
1740251545889194500,3.732194580078125,-0.5880127549171448,0.16180221736431122,-1.2417081594467163
1740251545899176700,3.7421767578125,-0.5251810550689697,0.4610496461391449,-1.0861457586288452
1740251545909158400,3.752158447265625,-0.3641783893108368,0.7436742186546326,-0.8987249135971069
1740251545919139600,3.7621396484375,-0.05258989706635475,0.9284493923187256,-0.708192765712738
1740251545929121500,3.77212158203125,0.42670881748199463,0.954666256904602,-0.5406267046928406
1740251545939103500,3.782103515625,1.047692894935608,0.8734363913536072,-0.4196414351463318
1740251545949085400,3.79208544921875,1.7382667064666748,0.8206955790519714,-0.3431462347507477
1740251545959067600,3.802067626953125,2.380413055419922,0.8605716228485107,-0.29804107546806335
1740251545969049300,3.81204931640625,2.8857593536376953,0.8850966095924377,-0.26781997084617615
1740251545979031600,3.822031494140625,3.244472026824951,0.8272956013679504,-0.21607501804828644
1740251545989012500,3.832012451171875,3.507520914077759,0.7000154256820679,-0.1404910534620285
1740251545998994700,3.84199462890625,3.7006571292877197,0.47703590989112854,-0.03990212827920914
1740251546008977700,3.851977783203125,3.870147943496704,0.22387751936912537,0.05066222697496414
1740251546018959600,3.861959716796875,4.051839828491211,0.0615200474858284,0.11308512091636658
1740251546028941600,3.871941650390625,4.241910457611084,0.06901776045560837,0.12955553829669952
1740251546038922500,3.881922607421875,4.428987503051758,0.21589109301567078,0.09327823668718338
1740251546048904700,3.89190478515625,4.603901386260986,0.4824386239051819,0.022657064720988274
1740251546058886700,3.90188671875,4.773372173309326,0.7880935668945312,-0.028056712821125984
1740251546068868600,3.91186865234375,4.938984394073486,1.05587637424469,-0.02510315552353859
1740251546078850600,3.9218505859375,5.083098888397217,1.2774862051010132,0.03574234992265701
1740251546088832500,3.93183251953125,5.1943769454956055,1.4813421964645386,0.132688969373703
1740251546098813400,3.9418134765625,5.220739841461182,1.5901567935943604,0.2647322118282318
1740251546108795600,3.951795654296875,5.149492263793945,1.5988988876342773,0.4518912434577942
1740251546118777600,3.961777587890625,5.014313697814941,1.5871000289916992,0.6974552273750305
1740251546128759600,3.971759521484375,4.8704023361206055,1.5893065929412842,1.0001511573791504
1740251546138741500,3.981741455078125,4.751060485839844,1.5620582103729248,1.327669620513916
1740251546148723700,3.9917236328125,4.6666388511657715,1.4143849611282349,1.6556580066680908
1740251546158704600,4.00170458984375,4.60890531539917,1.1296675205230713,1.9160935878753662
1740251546168686600,4.0116865234375,4.551502227783203,0.8114768266677856,2.0582435131073
1740251546178668500,4.02166845703125,4.478208541870117,0.5694679021835327,2.083209991455078
1740251546188650500,4.031650390625,4.380116939544678,0.49255526065826416,1.9893494844436646
1740251546198632400,4.041632568359375,4.254181385040283,0.5874873399734497,1.7686370611190796
1740251546208614700,4.05161474609375,4.107077121734619,0.7473135590553284,1.4469255208969116
1740251546218595600,4.061595703125,3.97458553314209,0.8248317837715149,1.100582480430603
1740251546228577500,4.07157763671875,3.8855013847351074,0.8109162449836731,0.8089186549186707
1740251546238559500,4.0815595703125,3.8172719478607178,0.6961832642555237,0.5821092128753662
1740251546248541700,4.091541748046875,3.7588307857513428,0.5422111749649048,0.4056500494480133
1740251546258523400,4.1015234375,3.691772699356079,0.4601570665836334,0.2580493986606598
1740251546268505600,4.111505615234375,3.6090571880340576,0.47722458839416504,0.11145993322134018
1740251546278487800,4.12148779296875,3.524177074432373,0.5458393692970276,-0.04417147859930992
1740251546288468500,4.131468505859375,3.4443094730377197,0.5917830467224121,-0.18478736281394958
1740251546298450400,4.141450439453125,3.3814499378204346,0.5568516850471497,-0.28671613335609436
1740251546308432600,4.1514326171875,3.319444417953491,0.47141435742378235,-0.34580686688423157
1740251546318414600,4.16141455078125,3.2478690147399902,0.3955960273742676,-0.38257235288619995
1740251546328396500,4.171396484375,3.173816442489624,0.3701498210430145,-0.4190053343772888
1740251546338378800,4.181378662109375,3.111415386199951,0.4210937023162842,-0.46419331431388855
1740251546348359700,4.191359619140625,3.081552028656006,0.539061963558197,-0.5175867080688477
1740251546358341400,4.20134130859375,3.093893527984619,0.7247375249862671,-0.5721375942230225
1740251546368322600,4.211322509765625,3.1514570713043213,0.9080731272697449,-0.619461178779602
1740251546378304500,4.221304443359375,3.2109532356262207,1.099252700805664,-0.662270188331604
1740251546388286500,4.231286376953125,3.2139415740966797,1.2595051527023315,-0.6866095662117004
1740251546398268400,4.241268310546875,3.1249959468841553,1.2526699304580688,-0.6776453852653503
1740251546408250600,4.251250732421875,2.9888436794281006,1.087839126586914,-0.6222085356712341
1740251546418231600,4.2612314453125,2.8266193866729736,0.849714457988739,-0.5089291334152222
1740251546428213500,4.271213623046875,2.641089916229248,0.6064590215682983,-0.3495655655860901
1740251546438195500,4.281195556640625,2.440270185470581,0.39211446046829224,-0.15152649581432343
1740251546448177700,4.291177734375,2.2272393703460693,0.20211933553218842,0.06171784922480583
1740251546458159600,4.30115966796875,1.9964830875396729,0.02722182124853134,0.2717943787574768
1740251546468141600,4.3111416015625,1.7350212335586548,-0.16216503083705902,0.4531158208847046
1740251546478123800,4.321123779296875,1.4250903129577637,-0.38802266120910645,0.5815057158470154
1740251546488104700,4.331104736328125,1.0752754211425781,-0.6291539669036865,0.66114342212677
1740251546498086400,4.34108642578125,0.6565682291984558,-0.8562840819358826,0.6820995807647705
1740251546508068600,4.351068603515625,0.17081165313720703,-1.0516856908798218,0.6633428335189819
1740251546518050600,4.361050537109375,-0.3898841440677643,-1.1936023235321045,0.6393717527389526
1740251546528032500,4.371032470703125,-1.026667594909668,-1.3395012617111206,0.6328924894332886
1740251546538014700,4.3810146484375,-1.7128993272781372,-1.4907829761505127,0.6618865728378296
1740251546547995600,4.39099560546875,-2.442869186401367,-1.6342092752456665,0.7131121158599854
1740251546557977600,4.4009775390625,-3.1757919788360596,-1.7159559726715088,0.7632442712783813
1740251546567959600,4.41095947265625,-3.8590147495269775,-1.7069042921066284,0.7836185693740845
1740251546577941800,4.420941650390625,-4.438555717468262,-1.6345254182815552,0.7630858421325684
1740251546587923500,4.43092333984375,-4.879700183868408,-1.5223132371902466,0.7181565165519714
1740251546597905700,4.44090576171875,-5.186246871948242,-1.347908854484558,0.6736886501312256
1740251546607887600,4.4508876953125,-5.345794677734375,-1.037780523300171,0.6369321346282959
1740251546617868500,4.46086865234375,-5.325384140014648,-0.46254414319992065,0.6025251746177673
1740251546627850000,4.47085009765625,-5.080429553985596,0.36476990580558777,0.5511198043823242
1740251546637832200,4.480832275390625,-4.620599746704102,1.2370002269744873,0.46987658739089966
1740251546647814100,4.490814208984375,-4.099330425262451,1.9041085243225098,0.35313281416893005
1740251546657796000,4.500796142578125,-3.814147710800171,2.3188865184783936,0.2087082415819168
1740251546667778300,4.5107783203125,-3.927764415740967,2.4187886714935303,0.021282009780406952
1740251546677759200,4.52075927734375,-4.379976272583008,2.14408016204834,-0.19761544466018677
1740251546687741000,4.530740966796875,-4.985490798950195,1.5866817235946655,-0.4036901295185089
1740251546697723100,4.54072314453125,-5.50636100769043,1.0512075424194336,-0.5789357423782349
1740251546707705300,4.550705322265625,-5.756959438323975,0.6196823120117188,-0.7574055790901184
1740251546717687000,4.56068701171875,-5.760678768157959,0.051457006484270096,-0.9818999767303467
1740251546727669200,4.570669189453125,-5.638636589050293,-0.6165439486503601,-1.28452467918396
1740251546737651200,4.580651123046875,-5.527228832244873,-1.3050389289855957,-1.6574671268463135
1740251546747632400,4.59063232421875,-5.508237361907959,-1.8780848979949951,-2.0573489665985107
1740251546757614000,4.600614013671875,-5.612292289733887,-2.284525156021118,-2.4106616973876953
1740251546767596300,4.61059619140625,-5.815405368804932,-2.5791172981262207,-2.6952478885650635
1740251546777578200,4.620578125,-6.039584159851074,-2.794506311416626,-2.8604140281677246
1740251546787560200,4.630560302734375,-6.257687568664551,-2.825547933578491,-2.8571696281433105
1740251546797542100,4.640542236328125,-6.412669658660889,-2.703073263168335,-2.6722021102905273
1740251546807523300,4.6505234375,-6.477737903594971,-2.5407767295837402,-2.342379570007324
1740251546817505000,4.660505126953125,-6.452693462371826,-2.3284597396850586,-1.9352426528930664
1740251546827487200,4.6704873046875,-6.339175701141357,-2.0887391567230225,-1.5194118022918701
1740251546837469200,4.68046923828125,-6.147398948669434,-1.9053953886032104,-1.1100006103515625
1740251546847451100,4.690451171875,-5.887406826019287,-1.7556071281433105,-0.6955268979072571
1740251546857433000,4.70043310546875,-5.581232070922852,-1.5708026885986328,-0.2635611295700073
1740251546867415300,4.710415283203125,-5.210564136505127,-1.3540011644363403,0.17691642045974731
1740251546877396200,4.720396240234375,-4.764581203460693,-1.153112769126892,0.6063892245292664
1740251546887378200,4.730378173828125,-4.252435684204102,-1.0202417373657227,1.0005784034729004
1740251546897360100,4.740360107421875,-3.691345691680908,-0.9227166175842285,1.3342317342758179
1740251546907342000,4.750342041015625,-3.1054203510284424,-0.8474167585372925,1.6004546880722046
1740251546917324000,4.760323974609375,-2.5655148029327393,-0.7840971946716309,1.8111159801483154
1740251546927306200,4.77030615234375,-2.1423099040985107,-0.7107706069946289,1.9801331758499146
1740251546937288000,4.780287841796875,-1.8595325946807861,-0.6424903273582458,2.114508867263794
1740251546947269000,4.79026904296875,-1.6898019313812256,-0.581085741519928,2.199157953262329
1740251546957251000,4.8002509765625,-1.6033656597137451,-0.5356415510177612,2.2329907417297363
1740251546967233300,4.8102333984375,-1.591442584991455,-0.4733496308326721,2.1827495098114014
1740251546977215000,4.820215087890625,-1.6212491989135742,-0.3120076358318329,2.053752899169922
1740251546987197200,4.830197265625,-1.6534581184387207,0.0037595974281430244,1.8716522455215454
1740251546997179400,4.840179443359375,-1.632426142692566,0.4248192012310028,1.6875982284545898
1740251547007161000,4.8501611328125,-1.4940537214279175,0.803903341293335,1.560241937637329
1740251547017142000,4.86014208984375,-1.233634352684021,0.986884593963623,1.4590086936950684
1740251547027124200,4.870124267578125,-0.8875288963317871,0.9016754031181335,1.3115710020065308
1740251547037106000,4.88010595703125,-0.5384969115257263,0.6418384909629822,1.034543752670288
1740251547047088000,4.890088134765625,-0.22789347171783447,0.40767794847488403,0.5880233645439148
1740251547057070300,4.9000703125,0.010948137380182743,0.197745218873024,-0.01875685527920723
1740251547067052000,4.910052001953125,0.19972483813762665,-0.027504142373800278,-0.6675386428833008
1740251547077033000,4.920032958984375,0.4196459949016571,-0.3649176061153412,-1.2272104024887085
1740251547087015200,4.93001513671875,0.704996645450592,-0.7911508083343506,-1.6005403995513916
1740251547096997400,4.939997314453125,1.0245288610458374,-1.2169761657714844,-1.793446660041809
1740251547106979000,4.94997900390625,1.3757959604263306,-1.5465282201766968,-1.852309226989746
1740251547116961300,4.959961181640625,1.7925657033920288,-1.786353588104248,-1.836611270904541
1740251547126943200,4.969943115234375,2.2576608657836914,-1.9370076656341553,-1.7855302095413208
1740251547136925200,4.97992529296875,2.727475643157959,-1.916913628578186,-1.7158570289611816
1740251547146906000,4.989906005859375,3.183504343032837,-1.723266363143921,-1.6407934427261353
1740251547156888300,4.999888427734375,3.611896514892578,-1.4021674394607544,-1.5564277172088623
1740251547166870000,5.0098701171875,3.9958691596984863,-0.9952861666679382,-1.4454189538955688
1740251547176852200,5.019852294921875,4.293487548828125,-0.5930271148681641,-1.2955105304718018
1740251547186834200,5.029834228515625,4.492175102233887,-0.2404680997133255,-1.0988978147506714
1740251547196816100,5.039816162109375,4.607489109039307,0.017045726999640465,-0.8680468201637268
1740251547206798000,5.049798095703125,4.708935737609863,0.23647193610668182,-0.6007965207099915
1740251547216779300,5.059779296875,4.8125762939453125,0.46877121925354004,-0.3119055926799774
1740251547226761200,5.06976123046875,4.914474964141846,0.7713829874992371,-0.013353854417800903
1740251547236743200,5.0797431640625,5.0216240882873535,1.1376386880874634,0.25613993406295776
1740251547246725000,5.08972509765625,5.111804962158203,1.5305577516555786,0.5220433473587036
1740251547256707000,5.09970703125,5.148478984832764,1.8828701972961426,0.7774181365966797
1740251547266689000,5.10968896484375,5.124898910522461,2.153456211090088,1.0448886156082153
1740251547276671200,5.119671142578125,5.0485639572143555,2.3495843410491943,1.3360650539398193
1740251547286652200,5.129652099609375,4.95475959777832,2.5306923389434814,1.6473346948623657
1740251547296634000,5.139634033203125,4.874820232391357,2.63619327545166,1.9702928066253662
1740251547306616000,5.149615966796875,4.82805061340332,2.616194486618042,2.2638494968414307
1740251547316598300,5.159598388671875,4.822100639343262,2.4916043281555176,2.4775214195251465
1740251547326580000,5.169580078125,4.839587688446045,2.33882737159729,2.5730528831481934
1740251547336562200,5.179562255859375,4.833924293518066,2.2174837589263916,2.5414116382598877
1740251547346544400,5.18954443359375,4.747950077056885,2.1095917224884033,2.4097371101379395
1740251547356525000,5.199525146484375,4.583171367645264,2.038797378540039,2.195427417755127
1740251547366507000,5.209507080078125,4.383761882781982,2.034538984298706,1.905673623085022
1740251547376489200,5.2194892578125,4.189200401306152,2.0470519065856934,1.5602967739105225
1740251547386471200,5.22947119140625,4.023656845092773,1.9851891994476318,1.207560658454895
1740251547396453000,5.239453125,3.8977558612823486,1.802056074142456,0.8820430040359497
1740251547406435300,5.249435302734375,3.8003385066986084,1.5365798473358154,0.5819064974784851
1740251547416417000,5.2594169921875,3.701895236968994,1.2487483024597168,0.28049370646476746
1740251547426398000,5.26939794921875,3.5752384662628174,1.0136557817459106,-0.03613850846886635
1740251547436380200,5.279380126953125,3.4226419925689697,0.8464081287384033,-0.368781179189682
1740251547446362400,5.2893623046875,3.2807066440582275,0.728212833404541,-0.6933633685112
1740251547456344000,5.299343994140625,3.168447971343994,0.5914784073829651,-1.004919409751892
1740251547466326300,5.309326171875,3.0890190601348877,0.3770417869091034,-1.2718688249588013
1740251547476308200,5.31930810546875,3.025712728500366,0.1025625616312027,-1.4733707904815674
1740251547486290200,5.329290283203125,2.968918561935425,-0.16210085153579712,-1.6077927350997925
1740251547496271000,5.33927099609375,2.908982753753662,-0.39246323704719543,-1.6768817901611328
1740251547506253300,5.34925341796875,2.846489667892456,-0.5600993633270264,-1.6925381422042847
1740251547516235000,5.359235107421875,2.781398057937622,-0.6970162391662598,-1.6515673398971558
1740251547526217200,5.36921728515625,2.716499090194702,-0.8723514676094055,-1.561171531677246
1740251547536199200,5.37919921875,2.6530113220214844,-1.085562825202942,-1.421309232711792
1740251547546181000,5.38918115234375,2.5974223613739014,-1.3095518350601196,-1.2422831058502197
1740251547556163000,5.3991630859375,2.531649589538574,-1.4932392835617065,-1.0390764474868774
1740251547566144300,5.409144287109375,2.4492101669311523,-1.6459884643554688,-0.8013771772384644
1740251547576126200,5.419126220703125,2.387040615081787,-1.7792028188705444,-0.5084385275840759
1740251547586108200,5.429108154296875,2.332963228225708,-1.884586215019226,-0.16083718836307526
1740251547596090000,5.439090087890625,2.2585155963897705,-2.0192205905914307,0.19806638360023499
1740251547606072000,5.449072021484375,2.1016790866851807,-2.186142683029175,0.5466104745864868
1740251547616054000,5.459053955078125,1.858290433883667,-2.284764051437378,0.8570998907089233
1740251547626036200,5.4690361328125,1.5348294973373413,-2.2420804500579834,1.125434398651123
1740251547636018200,5.47901806640625,1.1449238061904907,-2.0400209426879883,1.3174374103546143
1740251547645999000,5.4889990234375,0.7251805663108826,-1.7177033424377441,1.4161547422409058
1740251547655981300,5.498981201171875,0.2849440574645996,-1.2494271993637085,1.367265224456787
1740251547665963300,5.50896337890625,-0.17770391702651978,-0.6307224035263062,1.1013070344924927
1740251547675945200,5.5189453125,-0.6594167351722717,-0.09654714912176132,0.7249579429626465
1740251547685927400,5.528927490234375,-1.1613781452178955,0.14571304619312286,0.44636157155036926
1740251547695909400,5.538909423828125,-1.6879655122756958,0.07092509418725967,0.3408961296081543
1740251547705891300,5.548891357421875,-2.2207510471343994,-0.21090099215507507,0.3524185121059418
1740251547715872300,5.558872314453125,-2.723054885864258,-0.535881757736206,0.40318503975868225
1740251547725854500,5.5688544921875,-3.1546897888183594,-0.7502961158752441,0.4128827452659607
1740251547735836200,5.578836181640625,-3.496708393096924,-0.7964444756507874,0.33726468682289124
1740251547745818400,5.588818359375,-3.7785584926605225,-0.7340337038040161,0.1949549913406372
1740251547755800300,5.59880029296875,-4.034237861633301,-0.6547279953956604,0.07415053248405457
1740251547765782300,5.6087822265625,-4.263909339904785,-0.6457286477088928,0.01731315813958645
1740251547775764200,5.61876416015625,-4.464059829711914,-0.7328952550888062,-0.006623334251344204
1740251547785745400,5.628745361328125,-4.620605945587158,-0.810772716999054,-0.03835849463939667
1740251547795727400,5.638727294921875,-4.746757984161377,-0.7682652473449707,-0.10928859561681747
1740251547805709300,5.648709228515625,-4.869363307952881,-0.5198447108268738,-0.2689957618713379
1740251547815691300,5.658691162109375,-5.02420711517334,-0.11568047106266022,-0.5163789391517639
1740251547825673200,5.668673095703125,-5.2047038078308105,0.296916127204895,-0.7697789669036865
1740251547835655200,5.6786552734375,-5.39453649520874,0.5675897002220154,-0.9268351793289185
1740251547845637400,5.688637451171875,-5.5561442375183105,0.6307650208473206,-0.9609602093696594
1740251547855619000,5.698619140625,-5.695758819580078,0.5924800038337708,-0.8857828974723816
1740251547865600300,5.708600341796875,-5.787021636962891,0.5087000131607056,-0.7345707416534424
1740251547875582200,5.718582275390625,-5.870296001434326,0.3891669511795044,-0.5288575291633606
1740251547885564400,5.728564453125,-5.919598579406738,0.2230934053659439,-0.2688377797603607
1740251547895546000,5.738546142578125,-5.917762279510498,0.07978390157222748,0.07022734731435776
1740251547905528300,5.7485283203125,-5.854092597961426,0.004684699699282646,0.48370251059532166
1740251547915510300,5.75851025390625,-5.726755619049072,-0.049121808260679245,0.9523932933807373
1740251547925492200,5.7684921875,-5.522010326385498,-0.13390296697616577,1.4340012073516846
1740251547935473200,5.77847314453125,-5.24984884262085,-0.31424397230148315,1.880768060684204
1740251547945455400,5.788455322265625,-4.926677227020264,-0.5847066640853882,2.2436470985412598
1740251547955437000,5.79843701171875,-4.57451868057251,-0.8752908110618591,2.4952785968780518
1740251547965419300,5.808419189453125,-4.220037937164307,-1.1347848176956177,2.6232919692993164
1740251547975401200,5.818401123046875,-3.889252185821533,-1.3132678270339966,2.6272971630096436
1740251547985383200,5.828383056640625,-3.6021788120269775,-1.4249638319015503,2.53159499168396
1740251547995365400,5.838365478515625,-3.3689427375793457,-1.5057710409164429,2.3491928577423096
1740251548005347300,5.848347412109375,-3.1885101795196533,-1.5914525985717773,2.0961413383483887
1740251548015328300,5.858328369140625,-3.0836312770843506,-1.6395630836486816,1.7557697296142578
1740251548025310200,5.868310302734375,-3.0585954189300537,-1.6553279161453247,1.3318511247634888
1740251548035292400,5.87829248046875,-3.0862984657287598,-1.6374837160110474,0.8619645237922668
1740251548045274400,5.8882744140625,-3.1382598876953125,-1.6226550340652466,0.3914768099784851
1740251548055256300,5.89825634765625,-3.165541887283325,-1.654494285583496,-0.04197555407881737
1740251548065238300,5.90823828125,-3.152445077896118,-1.7287765741348267,-0.432928204536438
1740251548075220200,5.91822021484375,-3.092494249343872,-1.8077869415283203,-0.7755745053291321
1740251548085201200,5.928201171875,-2.9976441860198975,-1.835748314857483,-1.0482354164123535
1740251548095183400,5.938183349609375,-2.8806777000427246,-1.7978967428207397,-1.255597710609436
1740251548105165300,5.948165283203125,-2.7392399311065674,-1.69009530544281,-1.3931912183761597
1740251548115147300,5.958147216796875,-2.5588130950927734,-1.5392900705337524,-1.4674755334854126
1740251548125129200,5.968129150390625,-2.3264877796173096,-1.372624158859253,-1.4864895343780518
1740251548135111400,5.978111328125,-2.070673704147339,-1.192396879196167,-1.4516234397888184
1740251548145093000,5.988093017578125,-1.8303529024124146,-1.0068663358688354,-1.3711920976638794
1740251548155075300,5.998075439453125,-1.6127147674560547,-0.8255164623260498,-1.2364695072174072
1740251548165056300,6.00805615234375,-1.4097890853881836,-0.655363917350769,-1.072485089302063
1740251548175038500,6.01803857421875,-1.2388849258422852,-0.49574145674705505,-0.8871906399726868
1740251548185020200,6.028020263671875,-1.106552004814148,-0.3978160321712494,-0.694861888885498
1740251548195002400,6.03800244140625,-0.9816276431083679,-0.41048842668533325,-0.5052573084831238
1740251548204984000,6.047984130859375,-0.8195623159408569,-0.473405122756958,-0.32811251282691956
1740251548214966300,6.05796630859375,-0.6000531315803528,-0.46803218126296997,-0.19395285844802856
1740251548224948200,6.0679482421875,-0.32565152645111084,-0.3812241852283478,-0.10907655954360962
1740251548234930200,6.07793017578125,0.014630692079663277,-0.26134493947029114,-0.08656086027622223
1740251548244911000,6.0879111328125,0.44401589035987854,-0.15440241992473602,-0.12330924719572067
1740251548254893300,6.097893310546875,0.9718852639198303,-0.0853935107588768,-0.229671910405159
1740251548264875300,6.107875244140625,1.5332285165786743,-0.08214034140110016,-0.43564262986183167
1740251548274857200,6.117857177734375,2.048290252685547,-0.15784814953804016,-0.7131631970405579
1740251548284839400,6.12783935546875,2.466416597366333,-0.33574771881103516,-1.0290277004241943
1740251548294821400,6.1378212890625,2.7337799072265625,-0.6174536943435669,-1.3266456127166748
1740251548304803300,6.14780322265625,2.867138385772705,-0.9136805534362793,-1.570412039756775
1740251548314784300,6.1577841796875,2.924099922180176,-1.119398593902588,-1.7339293956756592
1740251548324766500,6.167766357421875,2.9824090003967285,-1.1930094957351685,-1.8061251640319824
1740251548334748200,6.177748046875,3.0562398433685303,-1.120507001876831,-1.7971172332763672
1740251548344730400,6.18773046875,3.1554911136627197,-0.9244269728660583,-1.7055294513702393
1740251548354712300,6.19771240234375,3.266594171524048,-0.6458182334899902,-1.5598918199539185
1740251548364694300,6.2076943359375,3.4015941619873047,-0.3244134187698364,-1.360084056854248
1740251548374676200,6.21767626953125,3.5733344554901123,0.0692947581410408,-1.1216709613800049
1740251548384658400,6.227658447265625,3.767899751663208,0.510802149772644,-0.8489054441452026
1740251548394639400,6.237639404296875,3.930159330368042,0.9396824240684509,-0.5435937643051147
1740251548404621300,6.247621337890625,4.029602527618408,1.3130031824111938,-0.2198234498500824
1740251548414603300,6.257603271484375,4.100882530212402,1.593982458114624,0.11682941019535065
1740251548424585200,6.267585205078125,4.166898250579834,1.7302910089492798,0.4507410228252411
1740251548434567200,6.277567138671875,4.253320693969727,1.7444236278533936,0.7569893598556519
1740251548444549400,6.28754931640625,4.357396602630615,1.6976369619369507,1.0129040479660034
1740251548454531000,6.297531005859375,4.445060729980469,1.6868019104003906,1.182839035987854
1740251548464513300,6.30751318359375,4.519983291625977,1.7391338348388672,1.2572022676467896
1740251548474495200,6.3174951171875,4.601912498474121,1.8316256999969482,1.2475751638412476
1740251548484476400,6.327476318359375,4.697566509246826,1.919851303100586,1.1461035013198853
1740251548494458000,6.3374580078125,4.77896785736084,1.9645780324935913,0.9696304202079773
1740251548504440300,6.3474404296875,4.813418388366699,1.895464301109314,0.7571055889129639
1740251548514422300,6.35742236328125,4.812160491943359,1.7240190505981445,0.5495185256004333
1740251548524404200,6.367404296875,4.795409679412842,1.4692665338516235,0.3737821578979492
1740251548534386400,6.377386474609375,4.767293453216553,1.1599103212356567,0.23143140971660614
1740251548544368400,6.387368408203125,4.716676712036133,0.8248286843299866,0.09818243980407715
1740251548554350300,6.397350341796875,4.638252258300781,0.49734774231910706,-0.05860317870974541
1740251548564331300,6.407331298828125,4.581347465515137,0.21882875263690948,-0.24272248148918152
1740251548574313200,6.417313232421875,4.560020923614502,0.00816631130874157,-0.4295442998409271
1740251548584295200,6.427295166015625,4.5588297843933105,-0.14586789906024933,-0.5993200540542603
1740251548594277400,6.43727734375,4.570303916931152,-0.2516036629676819,-0.7225583791732788
1740251548604259300,6.44725927734375,4.585338115692139,-0.3025413155555725,-0.7846061587333679
1740251548614241300,6.4572412109375,4.585505962371826,-0.2988296449184418,-0.8015539646148682
1740251548624222500,6.467222412109375,4.564260959625244,-0.2715926468372345,-0.7686128616333008
1740251548634204700,6.47720458984375,4.516059875488281,-0.25092676281929016,-0.6851163506507874
1740251548644185600,6.487185546875,4.444648265838623,-0.2508868873119354,-0.5620233416557312
1740251548654167300,6.497167236328125,4.352062225341797,-0.27003365755081177,-0.4039604961872101
1740251548664149500,6.5071494140625,4.2386474609375,-0.3597348928451538,-0.21980033814907074
1740251548674131700,6.517131591796875,4.102406024932861,-0.5237408876419067,-0.008227112703025341
1740251548684113400,6.527113525390625,3.9540159702301025,-0.6867565512657166,0.21619996428489685
1740251548694095600,6.537095703125,3.819089651107788,-0.7843161225318909,0.44266027212142944
1740251548704077600,6.54707763671875,3.692406415939331,-0.8111220598220825,0.6358394622802734
1740251548714059500,6.5570595703125,3.5747621059417725,-0.7838110327720642,0.7814067602157593
1740251548724040400,6.56704052734375,3.444197177886963,-0.7010868191719055,0.8805530071258545
1740251548734022700,6.577022705078125,3.281663656234741,-0.5745448470115662,0.9355904459953308
1740251548744004600,6.587004638671875,3.0824925899505615,-0.4310404360294342,0.9535183310508728
1740251548753986600,6.596986572265625,2.8335750102996826,-0.31472739577293396,0.9551771879196167
1740251548763968500,6.606968505859375,2.5316214561462402,-0.2413116693496704,0.9542886018753052
1740251548773950500,6.616950439453125,2.1837151050567627,-0.22782622277736664,0.9620344042778015
1740251548783932400,6.626932373046875,1.7923564910888672,-0.2501737177371979,0.990522563457489
1740251548793914600,6.63691455078125,1.3790080547332764,-0.27799999713897705,1.0203795433044434
1740251548803895600,6.6468955078125,0.9874556660652161,-0.28072771430015564,1.050537109375
1740251548813877500,6.65687744140625,0.6277028322219849,-0.3047254681587219,1.071608066558838
1740251548823859500,6.666859375,0.28981345891952515,-0.29992273449897766,1.0619103908538818
1740251548833841700,6.676841552734375,-0.02367628552019596,-0.30654388666152954,1.0261057615280151
1740251548843823400,6.6868232421875,-0.34603115916252136,-0.38904187083244324,0.955011248588562
1740251548853805600,6.6968056640625,-0.7065960168838501,-0.5433395504951477,0.8556191325187683
1740251548863787500,6.70678759765625,-1.1220027208328247,-0.7478485107421875,0.752188503742218
1740251548873769500,6.71676953125,-1.5643647909164429,-0.9602060317993164,0.6648194789886475
1740251548883751700,6.726751708984375,-2.0242533683776855,-1.1969971656799316,0.6015661954879761
1740251548893732600,6.736732666015625,-2.4851701259613037,-1.3577176332473755,0.5511866211891174
1740251548903714300,6.74671435546875,-2.90090274810791,-1.4694150686264038,0.4945065975189209
1740251548913696500,6.756696533203125,-3.2881932258605957,-1.5092357397079468,0.40728169679641724
1740251548923678700,6.7666787109375,-3.5964715480804443,-1.4443062543869019,0.2646954357624054
1740251548933660400,6.776660400390625,-3.7664217948913574,-1.3418911695480347,0.06262224912643433
1740251548943642600,6.786642578125,-3.8000736236572266,-1.273769497871399,-0.17131121456623077
1740251548953624600,6.79662451171875,-3.8149049282073975,-1.2814016342163086,-0.42030078172683716
1740251548963606500,6.8066064453125,-3.927004814147949,-1.3086814880371094,-0.703277051448822
1740251548973587500,6.81658740234375,-4.182077884674072,-1.2981159687042236,-0.9920558333396912
1740251548983569700,6.826569580078125,-4.5427775382995605,-1.2269549369812012,-1.2587523460388184
1740251548993551600,6.836551513671875,-4.981945991516113,-1.0120793581008911,-1.47928786277771
1740251549003533600,6.846533447265625,-5.408896446228027,-0.6718407273292542,-1.608820915222168
1740251549013515500,6.856515625,-5.7248077392578125,-0.3313864767551422,-1.6371841430664062
1740251549023497500,6.86649755859375,-5.857484817504883,-0.16708241403102875,-1.5934935808181763
1740251549033479400,6.8764794921875,-5.7988128662109375,-0.17308810353279114,-1.513139009475708
1740251549043461600,6.886461669921875,-5.635890483856201,-0.216781884431839,-1.42686128616333
1740251549053443300,6.896443359375,-5.476412773132324,-0.21625058352947235,-1.3916369676589966
1740251549063424500,6.906424560546875,-5.396407127380371,-0.14016619324684143,-1.4445559978485107
1740251549073406500,6.916406494140625,-5.410055160522461,-0.009300848469138145,-1.5735679864883423
1740251549083388700,6.926388671875,-5.49461555480957,0.12406156957149506,-1.7144818305969238
1740251549093370400,6.936370361328125,-5.606804847717285,0.22926095128059387,-1.8025182485580444
1740251549103352600,6.9463525390625,-5.709988594055176,0.31798821687698364,-1.8069872856140137
1740251549113334500,6.95633447265625,-5.766356945037842,0.3906190097332001,-1.714756727218628
1740251549123316500,6.96631640625,-5.751682281494141,0.4226161241531372,-1.558056354522705
1740251549133298700,6.976298583984375,-5.656052589416504,0.4078606069087982,-1.3662781715393066
1740251549143279600,6.986279541015625,-5.480652332305908,0.367499440908432,-1.1746917963027954
1740251549153261300,6.99626123046875,-5.244857311248779,0.2684503495693207,-0.9943041205406189
1740251549163243500,7.006243408203125,-4.973326683044434,0.13523520529270172,-0.8167765140533447
1740251549173225700,7.016225830078125,-4.681816577911377,0.03422549366950989,-0.6221449971199036
1740251549183207400,7.02620751953125,-4.383618354797363,-0.002254024613648653,-0.41947177052497864
1740251549193189600,7.036189697265625,-4.090445041656494,-0.014990059658885002,-0.2226380854845047
1740251549203171600,7.046171630859375,-3.8022360801696777,-0.0843207836151123,-0.05448853224515915
1740251549213153500,7.056153564453125,-3.510420799255371,-0.23025880753993988,0.0374419242143631
1740251549223135500,7.066135498046875,-3.2242953777313232,-0.41303586959838867,0.0373012013733387
1740251549233117700,7.07611767578125,-2.9360873699188232,-0.5663780570030212,-0.04484054073691368
1740251549243098600,7.0860986328125,-2.6413631439208984,-0.6793721318244934,-0.18021216988563538
1740251549253080600,7.09608056640625,-2.350377321243286,-0.7766856551170349,-0.33346617221832275
1740251549263062500,7.1060625,-2.0877339839935303,-0.8934375643730164,-0.4493009150028229
1740251549273044500,7.11604443359375,-1.876363754272461,-1.0374661684036255,-0.5170484185218811
1740251549283026400,7.1260263671875,-1.7058842182159424,-1.179187297821045,-0.5234329104423523
1740251549293008600,7.136008544921875,-1.5686683654785156,-1.2847651243209839,-0.4998745322227478
1740251549302990300,7.145990234375,-1.4503109455108643,-1.3638498783111572,-0.4796885550022125
1740251549312972500,7.15597265625,-1.3359603881835938,-1.4319117069244385,-0.4774666726589203
1740251549322954500,7.16595458984375,-1.221122145652771,-1.4168319702148438,-0.48620402812957764
1740251549332935700,7.175935791015625,-1.1100308895111084,-1.280752420425415,-0.4975919723510742
1740251549342917400,7.18591748046875,-1.017529845237732,-1.0582365989685059,-0.49197638034820557
1740251549352899600,7.195899658203125,-0.9237240552902222,-0.8508818745613098,-0.4629359245300293
1740251549362881500,7.205881591796875,-0.7907888889312744,-0.6845492720603943,-0.4135313332080841
1740251549372863500,7.215863525390625,-0.603736400604248,-0.5642952919006348,-0.3831087052822113
1740251549382845700,7.225845703125,-0.35956916213035583,-0.44344362616539,-0.4108727276325226
1740251549392827400,7.235827392578125,-0.08601965755224228,-0.3013051450252533,-0.5183728337287903
1740251549402809600,7.2458095703125,0.1708371490240097,-0.17753709852695465,-0.6814534664154053
1740251549412791600,7.25579150390625,0.406004399061203,-0.12382832914590836,-0.8303055167198181
1740251549422772700,7.265772705078125,0.6346756815910339,-0.1632481813430786,-0.9214840531349182
1740251549432754400,7.27575439453125,0.8721324801445007,-0.2915603518486023,-0.9538204669952393
1740251549442736600,7.285736572265625,1.1569489240646362,-0.4655938744544983,-0.9455880522727966
1740251549452718600,7.295718505859375,1.467600703239441,-0.6766970753669739,-0.9012051224708557
1740251549462700500,7.305700439453125,1.777065634727478,-0.8589272499084473,-0.8233306407928467
1740251549472682500,7.3156826171875,2.0768189430236816,-0.9793956279754639,-0.7237566113471985
1740251549482664700,7.325664794921875,2.360091209411621,-1.0042986869812012,-0.6215245723724365
1740251549492646400,7.335646484375,2.639587163925171,-0.9441565275192261,-0.5245881676673889
1740251549502628600,7.345628662109375,2.9203288555145264,-0.8435128927230835,-0.4351125657558441
1740251549512609500,7.355609619140625,3.185153007507324,-0.7513288855552673,-0.34835368394851685
1740251549522591500,7.365591552734375,3.403764486312866,-0.6957283616065979,-0.259135365486145
1740251549532573400,7.375573486328125,3.5809361934661865,-0.6389995813369751,-0.1648022085428238
1740251549542555600,7.3855556640625,3.7142789363861084,-0.5112254023551941,-0.06380755454301834
1740251549552537300,7.395537353515625,3.8114025592803955,-0.30250898003578186,0.039666105061769485
1740251549562519600,7.40551953125,3.910413980484009,-0.03853118419647217,0.17258183658123016
1740251549572501500,7.41550146484375,4.024588584899902,0.23040813207626343,0.33893805742263794
1740251549582483500,7.4254833984375,4.165401458740234,0.4510924220085144,0.5305919647216797
1740251549592465700,7.435465576171875,4.323602676391602,0.6053509712219238,0.7336699962615967
1740251549602446600,7.445446533203125,4.481341361999512,0.6835384368896484,0.9347345232963562
1740251549612428500,7.455428466796875,4.619581699371338,0.7199414372444153,1.119760274887085
1740251549622410500,7.465410400390625,4.728008270263672,0.7474384903907776,1.246504306793213
1740251549632393500,7.4753935546875,4.788294792175293,0.7704697847366333,1.3024011850357056
1740251549642375700,7.485375732421875,4.815017223358154,0.7900353074073792,1.2722265720367432
1740251549652357600,7.495357666015625,4.8075666427612305,0.8075131177902222,1.184368371963501
1740251549662339600,7.505339599609375,4.7560529708862305,0.7850971817970276,1.0590425729751587
1740251549672321800,7.51532177734375,4.664633274078369,0.7409936189651489,0.9118176698684692
1740251549682303700,7.5253037109375,4.559337615966797,0.689501166343689,0.7690548896789551
1740251549692285700,7.53528564453125,4.470816135406494,0.6421651244163513,0.6464579105377197
1740251549702266600,7.5452666015625,4.400722503662109,0.5383156538009644,0.5667846202850342
1740251549712248800,7.555248779296875,4.3434157371521,0.3778831362724304,0.5347955226898193
1740251549722230800,7.565230712890625,4.2864460945129395,0.20447027683258057,0.5391209721565247
1740251549732212700,7.575212646484375,4.214823246002197,0.053009118884801865,0.5713182687759399
1740251549742194700,7.585194580078125,4.122231960296631,-0.04490247368812561,0.6114408373832703
1740251549752176600,7.5951767578125,4.013429164886475,-0.08659559488296509,0.6476776599884033
1740251549762158600,7.60515869140625,3.8910012245178223,-0.07017488032579422,0.6581854224205017
1740251549772140800,7.615140869140625,3.756770610809326,-0.02383241057395935,0.6386814713478088
1740251549782122500,7.62512255859375,3.6174325942993164,0.015200486406683922,0.6096441149711609
1740251549792104700,7.635104736328125,3.4841794967651367,0.0402645617723465,0.5933141112327576
1740251549802085600,7.645085693359375,3.3607120513916016,0.01906657963991165,0.6141019463539124
1740251549812067800,7.65506787109375,3.248605966567993,-0.0371820442378521,0.6781474947929382
1740251549822049500,7.665049560546875,3.1564905643463135,-0.11343909800052643,0.7763350605964661
1740251549832031700,7.67503173828125,3.084185838699341,-0.1656133532524109,0.883172869682312
1740251549842013700,7.685013671875,3.019745349884033,-0.16642697155475616,0.9765127897262573
1740251549851995600,7.69499560546875,2.948054790496826,-0.10959404706954956,1.0290831327438354
1740251549861977600,7.7049775390625,2.86735200881958,-0.012468993663787842,1.027621865272522
1740251549871959800,7.714959716796875,2.769961357116699,0.10268343240022659,0.9656039476394653
1740251549881941800,7.724941650390625,2.6503584384918213,0.20557910203933716,0.8501763939857483
1740251549891922700,7.734922607421875,2.4947361946105957,0.24864374101161957,0.6954648494720459
1740251549901904600,7.744904541015625,2.303338050842285,0.20011331140995026,0.5404400825500488
1740251549911886600,7.754886474609375,2.0713796615600586,0.07701002806425095,0.4039381742477417
1740251549921868800,7.764868896484375,1.806792974472046,-0.0799548327922821,0.30285534262657166
1740251549931850800,7.774850830078125,1.52889084815979,-0.21634623408317566,0.22745725512504578
1740251549941832700,7.784832763671875,1.2532795667648315,-0.3032669126987457,0.16042062640190125
1740251549951814700,7.794814697265625,0.9710413217544556,-0.3548366129398346,0.10699387639760971
1740251549961796900,7.804796875,0.6746656894683838,-0.39984428882598877,0.06501387804746628
1740251549971778600,7.814778564453125,0.3422190248966217,-0.4475521445274353,0.039836350828409195
1740251549981760800,7.8247607421875,-0.04250412434339523,-0.49055016040802,0.03271549940109253
1740251549991741700,7.83474169921875,-0.4591849744319916,-0.5243241190910339,0.03152000531554222
1740251550001723600,7.8447236328125,-0.9055705666542053,-0.5748381614685059,0.018382694572210312
1740251550011706600,7.85470654296875,-1.3667395114898682,-0.6366661190986633,-0.03183040767908096
1740251550021688600,7.8646884765625,-1.8182992935180664,-0.6534876823425293,-0.11488347500562668
1740251550031670800,7.8746708984375,-2.269371271133423,-0.5774171948432922,-0.23266656696796417
1740251550041652700,7.88465283203125,-2.6938538551330566,-0.44883477687835693,-0.373865008354187
1740251550051634700,7.894634765625,-3.052135467529297,-0.3229679465293884,-0.48942890763282776
1740251550061616600,7.90461669921875,-3.310746192932129,-0.24656741321086884,-0.5506572723388672
1740251550071597800,7.914597900390625,-3.489356756210327,-0.22548209130764008,-0.5727087259292603
1740251550081579800,7.924579833984375,-3.619819402694702,-0.24346323311328888,-0.5886636972427368
1740251550091561700,7.934561767578125,-3.7091262340545654,-0.288565456867218,-0.6303815841674805
1740251550101543700,7.944543701171875,-3.7913572788238525,-0.30631357431411743,-0.7452794313430786
1740251550111526000,7.95452587890625,-3.921172857284546,-0.252737432718277,-0.9702590703964233
1740251550121507600,7.964507568359375,-4.098118782043457,-0.13760161399841309,-1.26188063621521
1740251550131489800,7.97448974609375,-4.271761894226074,-0.009223926812410355,-1.5212568044662476
1740251550141471700,7.9844716796875,-4.44139289855957,0.09327325224876404,-1.690792202949524
1740251550151453700,7.99445361328125,-4.6015625,0.14939697086811066,-1.7854063510894775
1740251550161435600,8.004435546875,-4.748936176300049,0.18293488025665283,-1.8437880277633667
1740251550171416800,8.014416748046875,-4.874418258666992,0.217084601521492,-1.9055256843566895
1740251550181398500,8.0243984375,-4.982650279998779,0.2747850716114044,-2.006291627883911
1740251550191380700,8.034380615234374,-5.074166297912598,0.37501394748687744,-2.1479854583740234
1740251550201362700,8.04436279296875,-5.163482189178467,0.492497056722641,-2.3118860721588135
1740251550211344600,8.0543447265625,-5.225459575653076,0.5751514434814453,-2.4392590522766113
1740251550221326600,8.06432666015625,-5.244211196899414,0.6093222498893738,-2.475292682647705
1740251550231308800,8.074308837890625,-5.219348430633545,0.5746026635169983,-2.406505584716797
1740251550241290800,8.084290771484374,-5.153648376464844,0.4975826144218445,-2.2555506229400635
1740251550251272700,8.094272705078126,-5.03179931640625,0.381695955991745,-2.0605413913726807
1740251550261255000,8.1042548828125,-4.836284637451172,0.20037509500980377,-1.8271375894546509
1740251550271235600,8.114235595703125,-4.593648433685303,0.004015960264950991,-1.5780577659606934
1740251550281217800,8.1242177734375,-4.324532508850098,-0.18962641060352325,-1.3438680171966553
1740251550291199700,8.13419970703125,-4.0584869384765625,-0.31779608130455017,-1.1539641618728638
1740251550301181700,8.144181640625,-3.801832437515259,-0.3499596118927002,-1.00363028049469
1740251550311163600,8.15416357421875,-3.5471348762512207,-0.3255845010280609,-0.8850213885307312
1740251550321145900,8.164145751953125,-3.301013946533203,-0.2832760810852051,-0.8013754487037659
1740251550331127600,8.17412744140625,-3.0673372745513916,-0.2788512408733368,-0.7470054030418396
1740251550341109800,8.18410986328125,-2.84541392326355,-0.326103538274765,-0.7175652980804443
1740251550351091700,8.194091796875,-2.640704870223999,-0.38585981726646423,-0.7041696310043335
1740251550361073700,8.20407373046875,-2.464491128921509,-0.40170198678970337,-0.7064199447631836
1740251550371054600,8.2140546875,-2.337027072906494,-0.34150442481040955,-0.7299745678901672
1740251550381036800,8.224036865234375,-2.252408504486084,-0.23777298629283905,-0.7597360610961914
1740251550391018800,8.234018798828124,-2.18323016166687,-0.1504356861114502,-0.7659114003181458
1740251550401000700,8.244000732421876,-2.1072444915771484,-0.17240525782108307,-0.7380897998809814
1740251550410982700,8.253982666015625,-2.0102078914642334,-0.3333169221878052,-0.6915941834449768
1740251550420964600,8.263964599609375,-1.8806304931640625,-0.5721021890640259,-0.6687819361686707
1740251550430945500,8.273945556640625,-1.729602336883545,-0.7743048667907715,-0.6979120969772339
1740251550440927700,8.283927734375,-1.5846625566482544,-0.8237521648406982,-0.777009904384613
1740251550450909700,8.29390966796875,-1.4768282175064087,-0.6780557036399841,-0.871087372303009
1740251550460891600,8.3038916015625,-1.407052755355835,-0.40971696376800537,-0.9309338927268982
1740251550470873600,8.31387353515625,-1.354045033454895,-0.1297777146100998,-0.9004665017127991
1740251550480855800,8.323855712890625,-1.279410719871521,0.06464023143053055,-0.7730787396430969
1740251550490837800,8.333837646484374,-1.149338960647583,0.1507205218076706,-0.5975037217140198
1740251550500819700,8.34381982421875,-0.9984866380691528,0.10414573550224304,-0.40280988812446594
1740251550510802000,8.353802001953126,-0.8632100224494934,-0.0891084149479866,-0.218751922249794
1740251550520783600,8.36378369140625,-0.7072337865829468,-0.2800842225551605,-0.07147351652383804
1740251550530764500,8.3737646484375,-0.5295780301094055,-0.34088605642318726,0.0021652805153280497
1740251550540746800,8.383746826171874,-0.33878326416015625,-0.2798354923725128,-0.012442690320312977
1740251550550728700,8.393728759765626,-0.14272989332675934,-0.17044880986213684,-0.061446983367204666
1740251550560710700,8.403710693359375,0.06439318507909775,-0.09900335967540741,-0.07421843707561493
1740251550570692900,8.41369287109375,0.28378838300704956,-0.08110664784908295,-0.01049298420548439
1740251550580674600,8.423674560546875,0.5186331272125244,-0.13456588983535767,0.11837658286094666
1740251550590656800,8.43365673828125,0.771358847618103,-0.25244298577308655,0.2816650867462158
1740251550600638700,8.443638671875,1.044466495513916,-0.4611210227012634,0.45551395416259766
1740251550610620700,8.45362060546875,1.3272675275802612,-0.6550356149673462,0.5971656441688538
1740251550620602600,8.4636025390625,1.6033949851989746,-0.7418859601020813,0.6905189752578735
1740251550630583800,8.473583740234375,1.8531239032745361,-0.674881100654602,0.7311968803405762
1740251550640564700,8.483564697265624,2.0853779315948486,-0.4951713979244232,0.7204583287239075
1740251550650546700,8.493546630859376,2.3064541816711426,-0.2701606750488281,0.707056999206543
1740251550660529000,8.50352880859375,2.5345818996429443,-0.08301233500242233,0.7466053366661072
1740251550670510800,8.5135107421875,2.757075548171997,0.04124250262975693,0.8372998237609863
1740251550680492800,8.523492919921875,2.959202289581299,0.11502955108880997,0.9507712125778198
1740251550690474800,8.533474853515624,3.1573410034179688,0.1892838180065155,1.0757049322128296
1740251550700457000,8.54345703125,3.328033924102783,0.26664888858795166,1.2107045650482178
1740251550710438700,8.553438720703125,3.4525835514068604,0.3341781497001648,1.345358967781067
1740251550720420900,8.5634208984375,3.5354738235473633,0.4178633689880371,1.4976249933242798
1740251550730402800,8.57340283203125,3.5668444633483887,0.5167795419692993,1.6699029207229614
1740251550740384800,8.583384765625,3.5657718181610107,0.6057767868041992,1.8386046886444092
1740251550750365700,8.59336572265625,3.5599496364593506,0.6447622776031494,1.981481671333313
1740251550760348000,8.603347900390625,3.570805549621582,0.6414340138435364,2.06850004196167
1740251550770329600,8.61332958984375,3.6063971519470215,0.6151765584945679,2.094817876815796
1740251550780311800,8.623311767578125,3.650967597961426,0.601817786693573,2.0526440143585205
1740251550790293800,8.633293701171874,3.6921017169952393,0.6086634397506714,1.9533241987228394
1740251550800275700,8.643275634765626,3.718510866165161,0.6184677481651306,1.8129754066467285
1740251550810257700,8.653257568359376,3.7290477752685547,0.6151808500289917,1.6278940439224243
1740251550820240000,8.663239990234375,3.7358405590057373,0.5730220675468445,1.4160118103027344
1740251550830221800,8.673221923828125,3.7546584606170654,0.4718586802482605,1.184552788734436
1740251550840203800,8.683203857421875,3.778698682785034,0.31993040442466736,0.9274926781654358
1740251550850186000,8.69318603515625,3.794875383377075,0.16279351711273193,0.6442722082138062
1740251550860167000,8.7031669921875,3.7990188598632812,0.0626826137304306,0.34668779373168945
1740251550870148900,8.71314892578125,3.790013313293457,0.04937639832496643,0.05296989157795906
1740251550880130800,8.723130859375,3.785613775253296,0.041684940457344055,-0.19090715050697327
1740251550890112800,8.73311279296875,3.781679391860962,-0.04500947520136833,-0.38278496265411377
1740251550900094700,8.7430947265625,3.7633650302886963,-0.21096329391002655,-0.53062903881073
1740251550910077000,8.753076904296876,3.734393358230591,-0.383055180311203,-0.6624659299850464
1740251550920058600,8.76305859375,3.692845582962036,-0.5116275548934937,-0.7899385094642639
1740251550930040800,8.773040771484375,3.630509376525879,-0.5671701431274414,-0.8966886401176453
1740251550940022800,8.783022705078125,3.548989772796631,-0.6054319739341736,-0.9704799056053162
1740251550950004700,8.793004638671874,3.454463481903076,-0.6831201314926147,-0.9878929853439331
1740251550959986700,8.802986572265626,3.356987476348877,-0.8306167125701904,-0.9594709277153015
1740251550969969000,8.812968994140626,3.267197370529175,-1.0142043828964233,-0.90825355052948
1740251550979949800,8.82294970703125,3.167747974395752,-1.1799492835998535,-0.8792786598205566
1740251550989931800,8.832931884765625,3.062814712524414,-1.2829406261444092,-0.8750039935112
1740251550999913700,8.842913818359374,2.9396841526031494,-1.2870161533355713,-0.8875826001167297
1740251551009895700,8.852895751953126,2.797825574874878,-1.201633334159851,-0.8939605951309204
1740251551019877600,8.862877685546875,2.6377463340759277,-1.0912315845489502,-0.8535236716270447
1740251551029859800,8.87285986328125,2.4640626907348633,-0.9723057746887207,-0.7652116417884827
1740251551039841800,8.882841796875,2.2915401458740234,-0.8765366077423096,-0.6254338622093201
1740251551049823700,8.89282373046875,2.1154279708862305,-0.8120167851448059,-0.4419460892677307
1740251551059806000,8.902805908203124,1.933006763458252,-0.7726390361785889,-0.2417796403169632
1740251551069787600,8.91278759765625,1.7266268730163574,-0.7246302366256714,-0.055885400623083115
1740251551079769900,8.922769775390625,1.4946446418762207,-0.6562859416007996,0.09342429786920547
1740251551089750800,8.932750732421875,1.2285187244415283,-0.5597655177116394,0.20045940577983856
1740251551099733000,8.94273291015625,0.9317007660865784,-0.44845205545425415,0.2769489288330078
1740251551109714700,8.952714599609376,0.6023164987564087,-0.354878693819046,0.33706551790237427
1740251551119697000,8.96269677734375,0.2650432288646698,-0.3136053681373596,0.38885363936424255
1740251551129678800,8.972678955078125,-0.07486186176538467,-0.3279891014099121,0.43104395270347595
1740251551139660800,8.982660888671875,-0.4218171536922455,-0.36165550351142883,0.44859880208969116
1740251551149642800,8.992642822265625,-0.783959150314331,-0.3581753075122833,0.4300842583179474
1740251551159624700,9.002624755859374,-1.159317135810852,-0.2961779236793518,0.355439156293869
1740251551169606700,9.012606689453126,-1.5553947687149048,-0.19024667143821716,0.21572014689445496
1740251551179588900,9.0225888671875,-1.9776546955108643,-0.048703767359256744,0.04119056463241577
1740251551189570600,9.032570556640625,-2.4031834602355957,0.09585661441087723,-0.1487703174352646
1740251551199552800,9.042552734375,-2.8157076835632324,0.24685165286064148,-0.3325185477733612
1740251551209533700,9.05253369140625,-3.183401584625244,0.4092405438423157,-0.49821457266807556
1740251551219516000,9.062515869140626,-3.513148069381714,0.5742896795272827,-0.6288163065910339
1740251551229497600,9.07249755859375,-3.807749032974243,0.718383252620697,-0.6832214593887329
1740251551239479800,9.082479736328125,-4.065502643585205,0.7913274765014648,-0.6679154634475708
1740251551249462000,9.0924619140625,-4.258971691131592,0.7980242967605591,-0.6119006872177124
1740251551259443700,9.102443603515624,-4.355593681335449,0.7614997029304504,-0.5595108866691589
1740251551269426000,9.112426025390626,-4.342353343963623,0.7435478568077087,-0.5416959524154663
1740251551279407600,9.12240771484375,-4.231295108795166,0.8021772503852844,-0.587779700756073
1740251551289389800,9.132389892578125,-4.096050262451172,1.0147398710250854,-0.7134339809417725
1740251551299371800,9.142371826171875,-4.0185956954956055,1.3488166332244873,-0.9183128476142883
1740251551309353700,9.152353759765624,-4.042121410369873,1.6788020133972168,-1.1346029043197632
1740251551319335700,9.162335693359376,-4.155557155609131,1.8541831970214844,-1.2704100608825684
1740251551329318000,9.17231787109375,-4.311323165893555,1.8013017177581787,-1.2986632585525513
1740251551339298800,9.182298828125,-4.463895797729492,1.5353572368621826,-1.2620139122009277
1740251551349280800,9.19228076171875,-4.577518939971924,1.1738914251327515,-1.2149876356124878
1740251551359262700,9.2022626953125,-4.610783576965332,0.8224822282791138,-1.2138289213180542
1740251551369245000,9.212244873046876,-4.576062202453613,0.552874743938446,-1.2661051750183105
1740251551379226600,9.2222265625,-4.495177745819092,0.34342506527900696,-1.3577531576156616
1740251551389208800,9.232208740234375,-4.389781951904297,0.16321800649166107,-1.4604734182357788
1740251551399190800,9.242190673828125,-4.282003879547119,-0.02778870426118374,-1.5181891918182373
1740251551409172700,9.2521728515625,-4.182244777679443,-0.26287126541137695,-1.4985084533691406
1740251551419155000,9.262155029296874,-4.088294982910156,-0.5357143878936768,-1.4268985986709595
1740251551429136600,9.27213671875,-3.9815673828125,-0.8113089203834534,-1.3341089487075806
1740251551439118800,9.282118896484375,-3.8662445545196533,-1.0182549953460693,-1.2307227849960327
1740251551449100800,9.292100830078125,-3.7541308403015137,-1.112947940826416,-1.1225963830947876
1740251551459082000,9.30208203125,-3.6573057174682617,-1.113443374633789,-1.0054724216461182
1740251551469063700,9.312063720703126,-3.571507215499878,-1.0440213680267334,-0.8770451545715332
1740251551479046000,9.3220458984375,-3.475991725921631,-0.9326651096343994,-0.7289499640464783
1740251551489027800,9.33202783203125,-3.370285987854004,-0.81488436460495,-0.544865071773529
1740251551499009800,9.342009765625,-3.2277681827545166,-0.6800380349159241,-0.3411421477794647
1740251551508991700,9.35199169921875,-3.018657684326172,-0.5478017330169678,-0.10679703205823898
1740251551518974000,9.361973876953124,-2.752613067626953,-0.40802279114723206,0.14282816648483276
1740251551528955600,9.37195556640625,-2.4744369983673096,-0.2594434320926666,0.37911418080329895
1740251551538937900,9.381937744140625,-2.2349069118499756,-0.12318331003189087,0.5850446224212646
1740251551548919600,9.39191943359375,-2.0716545581817627,-0.020865997299551964,0.7168276906013489
1740251551558901800,9.40190185546875,-1.981085181236267,0.04984099045395851,0.7541142106056213
1740251551568884000,9.411884033203124,-1.935138463973999,0.12697890400886536,0.7152038216590881
1740251551578865000,9.421864990234376,-1.903540015220642,0.24161742627620697,0.6025325655937195
1740251551588846600,9.4318466796875,-1.86418616771698,0.39634549617767334,0.44538766145706177
1740251551598828800,9.441828857421875,-1.788649082183838,0.5441811084747314,0.27822041511535645
1740251551608810800,9.451810791015625,-1.6814513206481934,0.62043297290802,0.14352518320083618
1740251551618792700,9.461792724609374,-1.5636950731277466,0.5913894176483154,0.056423354893922806
1740251551628775400,9.471775390625,-1.4468481540679932,0.5027139186859131,0.021095721051096916
1740251551638757000,9.481757080078125,-1.318658709526062,0.43533459305763245,0.03344879671931267
1740251551648739300,9.4917392578125,-1.18788743019104,0.39107125997543335,0.08283019065856934
1740251551658721300,9.50172119140625,-1.0435025691986084,0.38308873772621155,0.13926377892494202
1740251551668703200,9.511703125,-0.867431104183197,0.421091765165329,0.1772998422384262
1740251551678685200,9.521685302734374,-0.645266592502594,0.4917016625404358,0.1980528086423874
1740251551688667400,9.53166748046875,-0.38374125957489014,0.5745126605033875,0.2087283581495285
1740251551698649000,9.541649169921875,-0.09614312648773193,0.6271847486495972,0.22449424862861633
1740251551708630300,9.55163037109375,0.21046793460845947,0.5953860282897949,0.237370103597641
1740251551718612200,9.5616123046875,0.5450471043586731,0.4558295011520386,0.22132422029972076
1740251551728594200,9.57159423828125,0.9012150764465332,0.19140368700027466,0.15019677579402924
1740251551738576100,9.581576171875,1.271565318107605,-0.14395678043365479,0.009742895141243935
1740251551748558300,9.591558349609375,1.6523706912994385,-0.44841068983078003,-0.1774624139070511
1740251551758540300,9.601540283203125,2.0182838439941406,-0.654259204864502,-0.37803420424461365
1740251551768522200,9.611522216796875,2.3681678771972656,-0.7520086765289307,-0.5670430064201355
1740251551778504400,9.62150439453125,2.7150931358337402,-0.7927483320236206,-0.7165940999984741
1740251551788486100,9.631486083984376,3.0480663776397705,-0.8062622547149658,-0.8118002414703369
1740251551798468400,9.64146826171875,3.368732452392578,-0.8093217015266418,-0.8455139398574829
1740251551808450300,9.6514501953125,3.657442092895508,-0.7940149307250977,-0.8254474997520447
1740251551818432300,9.661432373046875,3.881620168685913,-0.7362288236618042,-0.7530801296234131
1740251551828414200,9.671414306640624,4.0191874504089355,-0.617750346660614,-0.6355759501457214
1740251551838396400,9.681396484375,4.055605888366699,-0.47145310044288635,-0.46156853437423706
1740251551848377300,9.69137744140625,4.01569938659668,-0.2989007830619812,-0.24026677012443542
1740251551858359300,9.701359375,3.9631266593933105,-0.10649511963129044,0.011599678546190262
1740251551868341200,9.71134130859375,3.936836004257202,0.08490359783172607,0.2632228434085846
1740251551878323200,9.7213232421875,3.9516401290893555,0.2592605948448181,0.4999116361141205
1740251551888305200,9.73130517578125,3.9898016452789307,0.3676890730857849,0.696648895740509
1740251551898287400,9.741287353515625,4.0458903312683105,0.43542516231536865,0.847639262676239
1740251551908269000,9.75126904296875,4.112890720367432,0.46924835443496704,0.9436448812484741
1740251551918251300,9.761251220703125,4.163893222808838,0.48310887813568115,0.9843453764915466
1740251551928233500,9.7712333984375,4.1834235191345215,0.47802436351776123,0.9778597950935364
1740251551938215200,9.781215087890626,4.159559726715088,0.44539111852645874,0.9350284337997437
1740251551948197400,9.791197265625,4.111007213592529,0.3542838394641876,0.8637558221817017
1740251551958179300,9.801179443359375,4.050650119781494,0.20375393331050873,0.7813836336135864
1740251551968161300,9.811161376953125,3.98447585105896,0.01896916702389717,0.6788612604141235
1740251551978142200,9.82114208984375,3.911630153656006,-0.16714900732040405,0.5659253597259521
1740251551988124400,9.83112451171875,3.831852436065674,-0.3106968402862549,0.4290311634540558
1740251551998106400,9.8411064453125,3.750605821609497,-0.3752886652946472,0.29111525416374207
1740251552008088300,9.85108837890625,3.684035539627075,-0.38017529249191284,0.17405681312084198
1740251552018070300,9.8610703125,3.62331223487854,-0.3582190275192261,0.09218244254589081
1740251552028052200,9.87105224609375,3.566512107849121,-0.3591865599155426,0.06004368141293526
1740251552038034200,9.8810341796875,3.5167877674102783,-0.41652095317840576,0.05944659188389778
1740251552048016400,9.891016357421876,3.46787691116333,-0.5402789115905762,0.07031068950891495
1740251552057998000,9.900998046875,3.430514335632324,-0.6869866847991943,0.07471483945846558
1740251552067980300,9.910980224609375,3.410128116607666,-0.7855406403541565,0.06786785274744034
1740251552077962200,9.920962158203125,3.3772547245025635,-0.8154224753379822,0.03539489582180977
1740251552087944200,9.930944091796874,3.3402161598205566,-0.7489510178565979,-0.001184155116789043
1740251552097926400,9.940926513671876,3.284412384033203,-0.6029250025749207,-0.015518410131335258
1740251552107908400,9.950908447265626,3.214193105697632,-0.4460589289665222,0.023508617654442787
1740251552117889300,9.96088916015625,3.132747173309326,-0.3548213243484497,0.13085123896598816
1740251552127871200,9.970871337890625,3.0739288330078125,-0.33744338154792786,0.2906757891178131
1740251552137853400,9.980853515625,3.0102803707122803,-0.3755321204662323,0.48567381501197815
1740251552147835100,9.990835205078126,2.8939692974090576,-0.4850125312805176,0.6826614737510681
1740251552157817300,10.0008173828125,2.7436466217041016,-0.686697781085968,0.8379981517791748
1740251552167799300,10.01079931640625,2.6088058948516846,-0.905776858329773,0.9169193506240845
1740251552177781200,10.02078125,2.4902164936065674,-1.036764144897461,0.925605297088623
1740251552187763200,10.03076318359375,2.347040891647339,-1.0312604904174805,0.843574047088623
1740251552197745400,10.040745361328124,2.1850476264953613,-0.8503475189208984,0.6133881211280823
1740251552207727000,10.05072705078125,2.0119550228118896,-0.517358660697937,0.2235359251499176
1740251552217709300,10.060709228515625,1.8552143573760986,-0.1341937929391861,-0.2302425354719162
1740251552227691300,10.070691162109375,1.7033255100250244,0.158523291349411,-0.6372233629226685
1740251552237673200,10.080673095703125,1.5379836559295654,0.2674950063228607,-0.9256729483604431
1740251552247655400,10.090655517578124,1.3092594146728516,0.21257370710372925,-1.0982977151870728
1740251552257636400,10.10063623046875,1.0518862009048462,0.0778283029794693,-1.1932616233825684
1740251552267618300,10.110618408203125,0.7514550089836121,-0.063831627368927,-1.2453250885009766
1740251552277600300,10.120600341796875,0.39506855607032776,-0.21834009885787964,-1.2687960863113403
1740251552287582500,10.13058251953125,-0.03011600859463215,-0.4226868152618408,-1.258678913116455
1740251552297564200,10.140564208984374,-0.5556407570838928,-0.6403427124023438,-1.205928921699524
1740251552307546400,10.15054638671875,-1.162707805633545,-0.8306481838226318,-1.1245031356811523
1740251552317528300,10.1605283203125,-1.8031201362609863,-0.9341826438903809,-1.0409600734710693
1740251552327510300,10.17051025390625,-2.422624349594116,-0.9170414805412292,-0.9834821820259094
1740251552337492200,10.1804921875,-2.9603493213653564,-0.7974540591239929,-0.9620687961578369
1740251552347474400,10.190474365234374,-3.400036573410034,-0.6517154574394226,-0.9880902767181396
1740251552357456100,10.2004560546875,-3.7539191246032715,-0.5565775632858276,-1.0508619546890259
1740251552367438300,10.210438232421875,-4.040031909942627,-0.5557301044464111,-1.1650289297103882
1740251552377420300,10.220420166015625,-4.289787292480469,-0.6714905500411987,-1.3536972999572754
1740251552387402200,10.23040234375,-4.518404006958008,-0.8720415234565735,-1.6403814554214478
1740251552397383200,10.240383056640624,-4.733950614929199,-1.082983136177063,-2.091789722442627
1740251552407365400,10.250365478515626,-4.911303520202637,-1.2019810676574707,-2.7285587787628174
1740251552417347000,10.26034716796875,-5.011539936065674,-1.1022825241088867,-3.4879579544067383
1740251552427329300,10.270329345703125,-5.068378925323486,-0.7742929458618164,-4.243223667144775
1740251552437311200,10.280311279296875,-5.116371154785156,-0.2769300043582916,-4.793015956878662
1740251552447293200,10.290293212890624,-5.164989471435547,0.2185276597738266,-4.989375591278076
1740251552457275400,10.300275390625,-5.150458335876465,0.6465047597885132,-4.843253135681152
1740251552467257300,10.31025732421875,-4.987911701202393,0.940972626209259,-4.440309524536133
1740251552477239300,10.3202392578125,-4.650315284729004,1.1372809410095215,-3.8910815715789795
1740251552487221200,10.33022119140625,-4.19629430770874,1.3931105136871338,-3.334197759628296
1740251552497203500,10.340203369140625,-3.759890079498291,1.8227051496505737,-2.871770143508911
1740251552507185200,10.35018505859375,-3.450890064239502,2.347787618637085,-2.500410318374634
1740251552517167400,10.36016748046875,-3.292726755142212,2.865377426147461,-2.1599249839782715
1740251552527149300,10.3701494140625,-3.237048387527466,3.2291419506073,-1.7840434312820435
1740251552537131300,10.38013134765625,-3.246589183807373,3.4382529258728027,-1.334084391593933
1740251552547113200,10.39011328125,-3.2798449993133545,3.512909412384033,-0.8289003372192383
1740251552557094400,10.400094482421874,-3.2854301929473877,3.4649972915649414,-0.3118264675140381
1740251552567076000,10.410076171875,-3.214832067489624,3.267812728881836,0.19500264525413513
1740251552577058300,10.420058349609375,-3.0688815116882324,2.9245357513427734,0.6751124262809753
1740251552587040300,10.430040283203125,-2.833463191986084,2.5060389041900635,1.125478982925415
1740251552597022200,10.440022216796875,-2.5365467071533203,2.012941837310791,1.5210764408111572
1740251552607004200,10.450004150390624,-2.2401652336120605,1.5043754577636719,1.8524893522262573
1740251552616986400,10.459986328125,-1.9794224500656128,1.0422064065933228,2.110351800918579
1740251552626968300,10.46996826171875,-1.7854024171829224,0.6642753481864929,2.2905657291412354
1740251552636950300,10.4799501953125,-1.6673136949539185,0.39235010743141174,2.4013826847076416
1740251552646932500,10.489932373046875,-1.6231473684310913,0.18756899237632751,2.4440090656280518
1740251552656914200,10.4999140625,-1.630279541015625,0.02574135735630989,2.4270241260528564
1740251552666896400,10.509896484375,-1.660803198814392,-0.10972299426794052,2.3644702434539795
1740251552676878300,10.51987841796875,-1.6831620931625366,-0.20900560915470123,2.251134157180786
1740251552686860300,10.5298603515625,-1.6897456645965576,-0.2749406695365906,2.096695899963379
1740251552696842200,10.53984228515625,-1.68424391746521,-0.28335151076316833,1.8960022926330566
1740251552706823400,10.549823486328124,-1.6703624725341797,-0.21168984472751617,1.6503194570541382
1740251552716805000,10.55980517578125,-1.650896430015564,-0.057438917458057404,1.3839612007141113
1740251552726787300,10.569787353515625,-1.624606966972351,0.15018032491207123,1.1250115633010864
1740251552736769300,10.579769287109375,-1.6023056507110596,0.36133453249931335,0.8806971311569214
1740251552746751200,10.589751220703125,-1.563415288925171,0.5304812788963318,0.6440126895904541
1740251552756733200,10.599733154296874,-1.4855289459228516,0.662007212638855,0.4059962332248688
1740251552766715400,10.60971533203125,-1.3698753118515015,0.7432682514190674,0.14993062615394592
1740251552776697300,10.619697265625,-1.2393372058868408,0.7978136539459229,-0.12099725753068924
1740251552786679300,10.62967919921875,-1.107800006866455,0.8521376252174377,-0.36185622215270996
1740251552796661500,10.63966162109375,-1.0048117637634277,0.9284820556640625,-0.5280399322509766
1740251552806643200,10.649643310546875,-0.9067654013633728,1.0001922845840454,-0.6058852076530457
1740251552816625400,10.65962548828125,-0.7960631251335144,1.0182825326919556,-0.6225303411483765
1740251552826607000,10.669607177734376,-0.677606999874115,0.9538800716400146,-0.6368893384933472
1740251552836589300,10.67958935546875,-0.5107555389404297,0.8058971762657166,-0.6645761132240295
1740251552846571300,10.6895712890625,-0.2629188597202301,0.5489212870597839,-0.6949747204780579
1740251552856553200,10.69955322265625,0.03674054145812988,0.23421359062194824,-0.7061893343925476
1740251552866534100,10.7095341796875,0.3540351390838623,-0.05075422301888466,-0.6956996321678162
1740251552876516400,10.719516357421876,0.6500748991966248,-0.24869564175605774,-0.6670904159545898
1740251552886498300,10.729498291015625,0.8957898616790771,-0.38324999809265137,-0.6145923137664795
1740251552896480300,10.739480224609375,1.107033371925354,-0.491336852312088,-0.5120307803153992
1740251552906462200,10.749462158203125,1.3116117715835571,-0.5726210474967957,-0.3588050305843353
1740251552916444400,10.7594443359375,1.5250048637390137,-0.630477786064148,-0.1708093285560608
1740251552926426000,10.769426025390626,1.7488316297531128,-0.6398432850837708,0.02143414318561554
1740251552936408300,10.779408203125,1.982487678527832,-0.5929669737815857,0.20020771026611328
1740251552946390300,10.789390380859375,2.227733850479126,-0.464733362197876,0.3668214678764343
1740251552956372200,10.799372314453125,2.465885639190674,-0.3044010400772095,0.5229101777076721
1740251552966354400,10.8093544921875,2.683093547821045,-0.11591875553131104,0.681782603263855
1740251552976336100,10.819336181640624,2.88205885887146,0.08313487470149994,0.8387758135795593
1740251552986318300,10.829318359375,3.063676357269287,0.2669616937637329,0.9990059733390808
1740251552996300300,10.83930029296875,3.2109642028808594,0.42439624667167664,1.1537220478057861
1740251553006282200,10.8492822265625,3.309561252593994,0.5606198906898499,1.3004597425460815
1740251553016264200,10.85926416015625,3.3506221771240234,0.6715593338012695,1.4267079830169678
1740251553026245400,10.869245361328124,3.3330295085906982,0.7553562521934509,1.516866683959961
1740251553036227300,10.879227294921876,3.2766003608703613,0.8517441153526306,1.5638630390167236
1740251553046209300,10.889209228515625,3.214433431625366,0.9867096543312073,1.5775312185287476
1740251553056191200,10.899191162109375,3.171562433242798,1.1741104125976562,1.5602010488510132
1740251553066173400,10.90917333984375,3.155247688293457,1.3873896598815918,1.523895263671875
1740251553076155100,10.919155029296874,3.1641674041748047,1.5214967727661133,1.4610002040863037
1740251553086137300,10.929137451171876,3.179898738861084,1.5067801475524902,1.3668122291564941
1740251553096119000,10.939119140625,3.2166085243225098,1.3700830936431885,1.2420554161071777
1740251553106101200,10.949101318359375,3.270496129989624,1.1967427730560303,1.0747162103652954
1740251553116083500,10.95908349609375,3.3241875171661377,1.0386741161346436,0.8592756390571594
1740251553126065200,10.969065185546874,3.3608875274658203,0.9208918213844299,0.6130325794219971
1740251553136047400,10.97904736328125,3.381737232208252,0.8136324882507324,0.36890721321105957
1740251553146029300,10.989029296875,3.3674607276916504,0.6857852935791016,0.1561717689037323
1740251553156011300,10.99901123046875,3.3335797786712646,0.5275492072105408,-0.004727555438876152
1740251553165993200,11.0089931640625,3.292311191558838,0.35824620723724365,-0.1080470159649849
1740251553175975400,11.018975341796875,3.235637903213501,0.15430597960948944,-0.17397603392601013
1740251553185957000,11.02895703125,3.147249221801758,-0.07789316773414612,-0.22359366714954376
1740251553195938300,11.038938232421875,3.036630868911743,-0.31374815106391907,-0.284463107585907
1740251553205920300,11.048920166015625,2.908797264099121,-0.5152809619903564,-0.3519870340824127
1740251553215902200,11.058902099609375,2.7869677543640137,-0.6842177510261536,-0.4094979763031006
1740251553225884200,11.06888427734375,2.6821725368499756,-0.7977717518806458,-0.4579978585243225
1740251553235866400,11.078866455078124,2.6455256938934326,-0.735588550567627,-0.516528308391571
1740251553245848000,11.08884814453125,3.32865834236145,0.17694008350372314,-0.8303413987159729
1740251553255830300,11.098830322265625,4.38810920715332,0.6874852776527405,-1.0767163038253784
1740251553265812500,11.1088125,4.918391704559326,1.0012450218200684,-1.1218430995941162
1740251553275794200,11.118794189453125,4.567694187164307,0.909615695476532,-1.3374383449554443
1740251553285776400,11.1287763671875,3.795024871826172,0.05678359046578407,-1.5157750844955444
1740251553295758300,11.13875830078125,2.9920098781585693,-1.023485779762268,-1.4846831560134888
1740251553305740300,11.148740234375,2.175774574279785,-1.8613998889923096,-1.3069493770599365
1740251553315722200,11.15872216796875,1.440185308456421,-2.3094983100891113,-1.0698387622833252
1740251553325704400,11.168704345703125,0.9172335267066956,-2.4074289798736572,-0.8147257566452026
1740251553335686100,11.17868603515625,0.6762640476226807,-2.294922351837158,-0.5509389042854309
1740251553345668400,11.18866845703125,0.7274014949798584,-2.119624137878418,-0.2524304687976837
1740251553355650300,11.198650390625,0.9990512728691101,-1.9694238901138306,0.09257391840219498
1740251553365632300,11.20863232421875,1.3138707876205444,-1.8206783533096313,0.4120267331600189
1740251553375613200,11.21861328125,1.4866254329681396,-1.5986883640289307,0.6453510522842407
1740251553385595400,11.228595458984374,1.4203976392745972,-1.2644273042678833,0.7468869686126709
1740251553395577000,11.2385771484375,1.1038868427276611,-0.8301456570625305,0.701586902141571
1740251553405559300,11.248559326171875,0.6067329049110413,-0.4214921295642853,0.5930023789405823
1740251553415541200,11.258541259765625,-0.014913047663867474,-0.16413308680057526,0.5137827396392822
1740251553425523200,11.268523193359375,-0.7114748358726501,-0.023675309494137764,0.4938873052597046
1740251553435505400,11.27850537109375,-1.4386683702468872,0.113674096763134,0.49851638078689575
1740251553445487400,11.2884873046875,-2.1479814052581787,0.30262377858161926,0.5002261400222778
1740251553455469300,11.29846923828125,-2.7534985542297363,0.5346639156341553,0.49309736490249634
1740251553465451300,11.308451171875,-3.2129695415496826,0.7311791181564331,0.498574435710907
1740251553475433500,11.31843359375,-3.565154790878296,0.8328108191490173,0.5083212852478027
1740251553485415200,11.328415283203125,-3.852855682373047,0.8525956869125366,0.5140816569328308
1740251553495397400,11.3383974609375,-4.092899322509766,0.8315370678901672,0.49767187237739563
1740251553505379000,11.348379150390626,-4.265289306640625,0.8116528391838074,0.4349469542503357
1740251553515361300,11.358361328125,-4.365915298461914,0.8718684911727905,0.3056394159793854
1740251553525343200,11.36834326171875,-4.403926372528076,1.0817538499832153,0.10546907037496567
1740251553535325200,11.3783251953125,-4.394282817840576,1.3898100852966309,-0.09357256442308426
1740251553545307400,11.388307373046874,-4.369171619415283,1.706465482711792,-0.20223060250282288
1740251553555289300,11.398289306640624,-4.3476080894470215,1.957471489906311,-0.160757914185524
1740251553565270300,11.408270263671875,-4.310674667358398,2.1299023628234863,-0.006486839614808559
1740251553575252200,11.418252197265625,-4.258750915527344,2.1838951110839844,0.22107914090156555
1740251553585234200,11.428234130859375,-4.199517726898193,2.057173013687134,0.48483702540397644
1740251553595216400,11.43821630859375,-4.120955467224121,1.7877066135406494,0.714775025844574
1740251553605198300,11.4481982421875,-4.015716552734375,1.5259182453155518,0.8390141129493713
1740251553615180300,11.45818017578125,-3.8762283325195312,1.3807402849197388,0.8353900909423828
1740251553625162200,11.468162353515625,-3.6869311332702637,1.431628704071045,0.7036911845207214
1740251553635144400,11.47814453125,-3.4135758876800537,1.6125476360321045,0.46042317152023315
1740251553645126700,11.488126708984375,-3.0165114402770996,1.7344533205032349,0.22092244029045105
1740251553655108400,11.4981083984375,-2.528726816177368,1.6539174318313599,0.0715409442782402
1740251553665090600,11.508090576171876,-2.023716688156128,1.3383443355560303,-0.0008032940095290542
1740251553675072500,11.518072509765625,-1.56195867061615,0.8904890418052673,-0.03811107575893402
1740251553685054500,11.528054443359375,-1.1455553770065308,0.38888534903526306,-0.08597101271152496
1740251553695036400,11.538036376953125,-0.8080161213874817,-0.10399997979402542,-0.15167111158370972
1740251553705018600,11.5480185546875,-0.5493350028991699,-0.5457217693328857,-0.23976849019527435
1740251553715000600,11.55800048828125,-0.3590281903743744,-0.9054474234580994,-0.3261848986148834
1740251553724982500,11.567982421875,-0.23331977427005768,-1.174316167831421,-0.38363540172576904
1740251553734964700,11.57796484375,-0.1564236879348755,-1.353825569152832,-0.4050462543964386
1740251553744946400,11.587946533203125,-0.11974529922008514,-1.480421543121338,-0.3853146433830261
1740251553754927600,11.597927734375,-0.14488795399665833,-1.5759336948394775,-0.335259348154068
1740251553764909600,11.60790966796875,-0.4719347655773163,-1.4761180877685547,-0.237217977643013
1740251553774891500,11.6178916015625,-1.3733018636703491,-0.9962142705917358,-0.22218306362628937
1740251553784873500,11.62787353515625,-2.0797622203826904,-0.2459927350282669,-0.32735475897789
1740251553794855700,11.637855712890625,-2.3665292263031006,0.5678051710128784,-0.2629697322845459
1740251553804837400,11.64783740234375,-2.299118757247925,1.1853935718536377,0.023683862760663033
1740251553814819600,11.657819580078124,-2.028541088104248,1.4170674085617065,0.44357919692993164
1740251553824801500,11.667801513671876,-1.6559027433395386,1.1124120950698853,0.8906749486923218
1740251553834783500,11.677783447265625,-1.1887365579605103,0.3177936375141144,1.2790895700454712
1740251553844765400,11.687765380859375,-0.6784836649894714,-0.8072222471237183,1.526627540588379
1740251553854747600,11.69774755859375,-0.20367828011512756,-1.9484995603561401,1.5823177099227905
1740251553864729600,11.7077294921875,0.10554720461368561,-2.695087432861328,1.444284200668335
1740251553874711600,11.717711669921876,0.17724111676216125,-2.766139507293701,1.0601927042007446
1740251553884693500,11.727693603515625,0.08758020401000977,-2.2734687328338623,0.5014171600341797
1740251553894675500,11.737675537109375,-0.11034605652093887,-1.5482978820800781,-0.03484826534986496
1740251553904657700,11.74765771484375,-0.30156421661376953,-0.923499345779419,-0.39584001898765564
1740251553914639400,11.757639404296874,-0.39341092109680176,-0.5945841073989868,-0.5918911099433899
1740251553924621600,11.76762158203125,-0.3664804995059967,-0.47792062163352966,-0.7059564590454102
1740251553934603500,11.777603515625,-0.24625423550605774,-0.48572224378585815,-0.7794325947761536
1740251553944585500,11.78758544921875,-0.10804203897714615,-0.5737823247909546,-0.8307464122772217
1740251553954566400,11.79756640625,-0.017101068049669266,-0.6169086694717407,-0.8724091649055481
1740251553964548600,11.807548583984374,-0.021261459216475487,-0.5655080676078796,-0.9014288187026978
1740251553974530600,11.817530517578126,-0.12419208139181137,-0.4244955778121948,-0.9174318313598633
1740251553984512500,11.827512451171875,-0.28422144055366516,-0.23952041566371918,-0.9216452240943909
1740251553994494500,11.837494384765625,-0.43353262543678284,-0.05326714739203453,-0.9145646095275879
1740251554004476700,11.8474765625,-0.5233373641967773,0.09191028028726578,-0.8853441476821899
1740251554014459600,11.857459716796875,-0.5515194535255432,0.1496051698923111,-0.8256208300590515
1740251554024441600,11.867441650390624,-0.5346232652664185,0.10811498016119003,-0.7220006585121155
1740251554034423600,11.877423583984376,-0.5199711322784424,-0.002100930083543062,-0.583095908164978
1740251554044405500,11.887405517578125,-0.5089855790138245,-0.1020059585571289,-0.41534122824668884
1740251554054387500,11.897387451171875,-0.5028212666511536,-0.13310198485851288,-0.23213708400726318
1740251554064368400,11.907368408203125,-0.49957597255706787,-0.08542820811271667,-0.04756644368171692
1740251554074350600,11.9173505859375,-0.5076047778129578,0.02213369309902191,0.1607530117034912
1740251554084332500,11.92733251953125,-0.5009143948554993,0.17084035277366638,0.39393433928489685
1740251554094314500,11.937314453125,-0.45815739035606384,0.3274991810321808,0.6475470662117004
1740251554104296400,11.94729638671875,-0.35226985812187195,0.4544390141963959,0.8952506184577942
1740251554114278700,11.957278564453125,-0.17106372117996216,0.5679610371589661,1.1247427463531494
1740251554124260400,11.96726025390625,0.07633436471223831,0.7081311941146851,1.331838846206665
1740251554134242600,11.97724267578125,0.3659645617008209,0.8967828750610352,1.5132534503936768
1740251554144224800,11.987224853515626,0.670312225818634,1.1123234033584595,1.669332504272461
1740251554154206500,11.99720654296875,0.939263105392456,1.3329508304595947,1.8152809143066406
1740251554164188700,12.007188720703125,1.1425446271896362,1.5345220565795898,1.9603259563446045
1740251554174170400,12.01717041015625,1.2884682416915894,1.70148766040802,2.115939140319824
1740251554184152600,12.027152587890624,1.403408169746399,1.8455804586410522,2.254275321960449
1740251554194134500,12.037134521484376,1.4976990222930908,1.962051272392273,2.3626596927642822
1740251554204116500,12.047116455078125,1.587052345275879,2.034550666809082,2.4095115661621094
1740251554214098400,12.057098388671875,1.6828944683074951,2.0283701419830322,2.3817861080169678
1740251554224080600,12.06708056640625,1.8060656785964966,2.004685878753662,2.278937578201294
1740251554234062300,12.077062255859374,1.934458613395691,1.45316481590271,2.026336431503296
1740251554244044500,12.08704443359375,2.16851544380188,1.4184658527374268,1.7478282451629639
1740251554254026500,12.097026611328126,2.2886834144592285,2.244553565979004,1.5133007764816284
1740251554264008400,12.107008544921875,2.250837564468384,2.1662681102752686,1.1996642351150513
1740251554273990700,12.11699072265625,2.2081003189086914,1.2870303392410278,0.781051754951477
1740251554283972600,12.12697265625,2.3257029056549072,1.0402159690856934,0.34286752343177795
1740251554293953500,12.13695361328125,2.5539839267730713,1.252105474472046,-0.03370276466012001
1740251554303935500,12.146935546875,2.7115275859832764,1.3604689836502075,-0.2724330425262451
1740251554313917700,12.156917724609375,2.736845016479492,1.2296220064163208,-0.36573320627212524
1740251554323899400,12.1668994140625,2.728681802749634,0.9038387537002563,-0.3918124735355377
1740251554333881600,12.176881591796874,2.761693239212036,0.5333648920059204,-0.42570385336875916
1740251554343863600,12.186863525390624,2.8224618434906006,0.19459375739097595,-0.5131312012672424
1740251554353845500,12.196845458984376,2.8766679763793945,-0.046538788825273514,-0.6750293970108032
1740251554363827500,12.206827392578125,2.9002127647399902,-0.1238066777586937,-0.8952416181564331
1740251554373809700,12.2168095703125,2.8952579498291016,-0.07418932020664215,-1.1345096826553345
1740251554383791400,12.226791259765625,2.8591952323913574,0.008208973333239555,-1.3615748882293701
1740251554393773600,12.236773681640624,2.8010079860687256,0.04656139761209488,-1.547160267829895
1740251554403755500,12.246755615234376,2.7329764366149902,0.0019832770340144634,-1.6566559076309204
1740251554413737500,12.256737548828125,2.6510159969329834,-0.11313094198703766,-1.6937600374221802
1740251554423719700,12.2667197265625,2.564938545227051,-0.2866867482662201,-1.6807835102081299
1740251554433701600,12.27670166015625,2.4818170070648193,-0.45700040459632874,-1.6455905437469482
1740251554443683600,12.28668359375,2.4022581577301025,-0.6025006175041199,-1.6122523546218872
1740251554453665500,12.29666552734375,2.33308482170105,-0.6693312525749207,-1.6166536808013916
1740251554463647500,12.3066474609375,2.260275363922119,-0.6562663316726685,-1.6451870203018188
1740251554473629400,12.31662939453125,2.1782450675964355,-0.5992939472198486,-1.6694583892822266
1740251554483611600,12.326611572265625,2.0792880058288574,-0.5410066843032837,-1.655068278312683
1740251554493593300,12.33659326171875,1.9681495428085327,-0.5239599347114563,-1.579226016998291
1740251554503575600,12.346575439453124,1.8504234552383423,-0.5472514033317566,-1.4577528238296509
1740251554513557500,12.3565576171875,1.7318676710128784,-0.611960768699646,-1.3134621381759644
1740251554523539500,12.36653955078125,1.6098014116287231,-0.675464928150177,-1.1795953512191772
1740251554533521400,12.376521484375,1.4824212789535522,-0.6942957639694214,-1.0862922668457031
1740251554543502600,12.386502685546875,1.3306288719177246,-0.6451247334480286,-1.0337457656860352
1740251554553484500,12.396484619140624,1.1346322298049927,-0.5789923071861267,-1.0078744888305664
1740251554563466500,12.406466552734376,0.8928691148757935,-0.5480911135673523,-0.9822676777839661
1740251554573448400,12.416448486328125,0.6362693309783936,-0.5738063454627991,-0.9368521571159363
1740251554583430700,12.4264306640625,0.3849414587020874,-0.6453127861022949,-0.8815934062004089
1740251554593412600,12.43641259765625,0.1441391259431839,-0.7415502071380615,-0.8532487750053406
1740251554603394600,12.44639453125,-0.06740614771842957,-0.8274425268173218,-0.8814364671707153
1740251554613376500,12.45637646484375,-0.25756996870040894,-0.8454164266586304,-0.9538646936416626
1740251554623358500,12.4663583984375,-0.45813634991645813,-0.7672668695449829,-1.0429072380065918
1740251554633340700,12.476340576171875,-0.6881936192512512,-0.5967481732368469,-1.1192983388900757
1740251554643322000,12.486322021484375,-0.9705643653869629,-0.4356447458267212,-1.1553740501403809
1740251554653304000,12.496303955078124,-1.3317385911941528,-0.3566417396068573,-1.1077098846435547
1740251554663286300,12.506286376953126,-1.7001264095306396,-0.374149888753891,-0.98470538854599
1740251554673268000,12.51626806640625,-1.9968689680099487,-0.4582245349884033,-0.8306551575660706
1740251554683250200,12.526250244140625,-2.2066571712493896,-0.5432544946670532,-0.6706604361534119
1740251554693232400,12.536232421875,-2.348905086517334,-0.5611045360565186,-0.5364080667495728
1740251554703214000,12.546214111328124,-2.4410438537597656,-0.41540589928627014,-0.42821741104125977
1740251554713196300,12.5561962890625,-2.4936535358428955,-0.06173224002122879,-0.3448047339916229
1740251554723178200,12.56617822265625,-2.4980392456054688,0.4145751893520355,-0.2661365568637848
1740251554733160200,12.57616015625,-2.4915060997009277,0.8129467964172363,-0.1657855361700058
