time,seconds_elapsed,z,y,x
1740007286850083800,0.024083740234375,-1.0260162353515625,-0.1727142333984375,0.5400848388671875
1740007286860065800,0.034065673828125,-0.94586181640625,-0.1436614990234375,0.5819244384765625
1740007286870047700,0.0440478515625,-0.8670501708984375,-0.1265869140625,0.589813232421875
1740007286880029700,0.05402978515625,-0.7979583740234375,-0.122100830078125,0.5552825927734375
1740007286890012000,0.064011962890625,-0.69232177734375,-0.064208984375,0.51837158203125
1740007286899993900,0.073993896484375,-0.571685791015625,-0.008056640625,0.520599365234375
1740007286909976800,0.083976806640625,-0.5737152099609375,-0.1080780029296875,0.40362548828125
1740007286919958800,0.093958740234375,-0.477935791015625,-0.061553955078125,0.34027099609375
1740007286929940700,0.103940673828125,-0.39495849609375,0.0048065185546875,0.3990631103515625
1740007286939922700,0.113922607421875,-0.3264312744140625,0.01837158203125,0.3783721923828125
1740007286949904600,0.123904541015625,-0.3000640869140625,0.0173187255859375,0.42327880859375
1740007286959886800,0.133886962890625,-0.3239593505859375,0.060302734375,0.490386962890625
1740007286969868800,0.143868896484375,-0.3426055908203125,0.0789337158203125,0.5338592529296875
1740007286979850800,0.153850830078125,-0.3741302490234375,0.0843505859375,0.608123779296875
1740007286989833000,0.1638330078125,-0.369537353515625,0.1155548095703125,0.6737213134765625
1740007286999814700,0.173814697265625,-0.3319854736328125,0.1513671875,0.7429656982421875
1740007287009796900,0.183796875,-0.2694091796875,0.1870880126953125,0.7778167724609375
1740007287019778800,0.19377880859375,-0.2106475830078125,0.1961212158203125,0.76971435546875
1740007287029760800,0.2037607421875,-0.156768798828125,0.1859130859375,0.75299072265625
1740007287039742700,0.21374267578125,-0.25634765625,0.150238037109375,0.852142333984375
1740007287049725000,0.223724853515625,-0.12225341796875,0.252777099609375,0.79095458984375
1740007287059706600,0.23370654296875,0.20361328125,0.323486328125,0.8445587158203125
1740007287069688800,0.243688720703125,0.1177520751953125,0.32196044921875,0.8648529052734375
1740007287079671800,0.253671875,0.0394287109375,0.303680419921875,0.85394287109375
1740007287089653800,0.26365380859375,0.0396270751953125,0.2797088623046875,0.9062957763671875
1740007287099635700,0.2736357421875,-0.013153076171875,0.2819976806640625,1.02838134765625
1740007287109617700,0.28361767578125,-0.133575439453125,0.2975616455078125,1.1572265625
1740007287119599900,0.293599853515625,-0.267822265625,0.2900390625,1.2911376953125
1740007287129581600,0.30358154296875,-0.3486785888671875,0.2790374755859375,1.39080810546875
1740007287139563800,0.313563720703125,-0.378875732421875,0.2621002197265625,1.4393768310546875
1740007287149545700,0.323545654296875,-0.3653411865234375,0.240478515625,1.4161529541015625
1740007287159527700,0.333527587890625,-0.3175048828125,0.238922119140625,1.35748291015625
1740007287169510000,0.343510009765625,-0.24981689453125,0.2603912353515625,1.303924560546875
1740007287179491800,0.353491943359375,-0.2444610595703125,0.293792724609375,1.2711944580078125
1740007287189473800,0.363473876953125,-0.285308837890625,0.32574462890625,1.2042999267578125
1740007287199455700,0.373455810546875,-0.44134521484375,0.3153228759765625,1.2265167236328125
1740007287209438000,0.38343798828125,-0.6121673583984375,0.3001708984375,1.2881927490234375
1740007287219419600,0.393419677734375,-0.689971923828125,0.3020782470703125,1.30511474609375
1740007287229401900,0.40340185546875,-0.754547119140625,0.290313720703125,1.2884521484375
1740007287239383800,0.4133837890625,-0.8024444580078125,0.2581634521484375,1.24041748046875
1740007287249366800,0.42336669921875,-0.8011016845703125,0.228057861328125,1.169769287109375
1740007287259349000,0.433348876953125,-0.7813568115234375,0.2071685791015625,1.1091156005859375
1740007287269331000,0.4433310546875,-0.762664794921875,0.1859130859375,1.0817108154296875
1740007287279313000,0.45331298828125,-0.742523193359375,0.180419921875,1.1194000244140625
1740007287289294800,0.463294921875,-0.7357940673828125,0.1811065673828125,1.2556915283203125
1740007287299276800,0.47327685546875,-0.7188873291015625,0.1634063720703125,1.3373260498046875
1740007287309259000,0.483259033203125,-0.6593170166015625,0.1859893798828125,1.35894775390625
1740007287319240700,0.49324072265625,-0.590087890625,0.2113037109375,1.34393310546875
1740007287329223000,0.503222900390625,-0.5141448974609375,0.205108642578125,1.310760498046875
1740007287339204900,0.513204833984375,-0.42926025390625,0.1891937255859375,1.282379150390625
1740007287349186800,0.523186767578125,-0.3576202392578125,0.1870574951171875,1.3105316162109375
1740007287359168800,0.533168701171875,-0.308990478515625,0.19879150390625,1.37457275390625
1740007287369151000,0.54315087890625,-0.2637176513671875,0.196807861328125,1.4136962890625
1740007287379132700,0.553132568359375,-0.2370147705078125,0.1846466064453125,1.405792236328125
1740007287389115000,0.563114990234375,-0.2380523681640625,0.1678924560546875,1.4738311767578125
1740007287399097000,0.57309716796875,-0.2444305419921875,0.16064453125,1.5721893310546875
1740007287409079800,0.583079833984375,-0.23980712890625,0.1462860107421875,1.61590576171875
1740007287419062000,0.59306201171875,-0.2622833251953125,0.1017913818359375,1.6268310546875
1740007287429043700,0.603043701171875,-0.3092498779296875,0.047515869140625,1.6410980224609375
1740007287439026000,0.61302587890625,-0.376312255859375,0.0010833740234375,1.6730804443359375
1740007287449007900,0.6230078125,-0.440582275390625,-0.1183624267578125,1.699798583984375
1740007287458989800,0.63298974609375,-0.483734130859375,-0.2708282470703125,1.7257232666015625
1740007287468972000,0.642971923828125,-0.51678466796875,-0.4339599609375,1.71575927734375
1740007287478953700,0.65295361328125,-0.5676116943359375,-0.5737762451171875,1.6681060791015625
1740007287488936000,0.66293603515625,-0.6038360595703125,-0.6751861572265625,1.574951171875
1740007287498918000,0.67291796875,-0.57952880859375,-0.72735595703125,1.490386962890625
1740007287508899800,0.68289990234375,-0.5294647216796875,-0.709869384765625,1.4224700927734375
1740007287518881800,0.6928818359375,-0.453948974609375,-0.560516357421875,1.450347900390625
1740007287528864000,0.702864013671875,-0.32928466796875,-0.384429931640625,1.506103515625
1740007287538845700,0.712845703125,-0.23736572265625,-0.278594970703125,1.5241851806640625
1740007287548828000,0.722827880859375,-0.14837646484375,-0.2062835693359375,1.492431640625
1740007287558809900,0.732809814453125,-0.0795745849609375,-0.1246185302734375,1.46026611328125
1740007287568791800,0.742791748046875,-0.0182037353515625,-0.0499267578125,1.443328857421875
1740007287578774000,0.75277392578125,0.0366668701171875,0.013214111328125,1.4431304931640625
1740007287588756700,0.7627568359375,0.0835418701171875,0.0591278076171875,1.444610595703125
1740007287598739000,0.772739013671875,0.116607666015625,0.0714569091796875,1.4183807373046875
1740007287608721000,0.782720947265625,0.13262939453125,0.0422821044921875,1.4205322265625
1740007287618702800,0.792702880859375,0.156280517578125,-0.00341796875,1.4429779052734375
1740007287628684800,0.802684814453125,0.22149658203125,0.0183868408203125,1.4842071533203125
1740007287638666800,0.812666748046875,0.2679595947265625,0.0989532470703125,1.5424957275390625
1740007287648649000,0.82264892578125,0.2903289794921875,0.2066650390625,1.5758056640625
1740007287658631000,0.832630859375,0.278076171875,0.28643798828125,1.4874267578125
1740007287668612900,0.84261279296875,0.1860198974609375,0.290435791015625,1.306121826171875
1740007287678594800,0.8525947265625,0.098358154296875,0.248931884765625,1.143798828125
1740007287688577000,0.862576904296875,-0.00714111328125,0.236114501953125,1.02264404296875
1740007287698558700,0.872558837890625,-0.108154296875,0.2354278564453125,0.9473419189453125
1740007287708541000,0.882541015625,-0.184295654296875,0.2517547607421875,0.936767578125
1740007287718523000,0.89252294921875,-0.2173919677734375,0.27813720703125,0.9911651611328125
1740007287728504800,0.9025048828125,-0.243438720703125,0.2861328125,1.066070556640625
1740007287738486800,0.91248681640625,-0.25469970703125,0.267822265625,1.1179351806640625
1740007287748469800,0.9224697265625,-0.227691650390625,0.2655792236328125,1.1141357421875
1740007287758452000,0.932451904296875,-0.18853759765625,0.2632904052734375,1.097564697265625
1740007287768434000,0.942433837890625,-0.168121337890625,0.2493896484375,1.0373992919921875
1740007287778415900,0.952415771484375,-0.157470703125,0.248870849609375,0.96258544921875
1740007287788397800,0.962397705078125,-0.122161865234375,0.2650909423828125,0.9219818115234375
1740007287798379800,0.9723798828125,-0.095184326171875,0.2595672607421875,0.923187255859375
1740007287808361700,0.98236181640625,-0.0732421875,0.2386016845703125,0.922943115234375
1740007287818344000,0.992343994140625,-0.0465545654296875,0.2271881103515625,0.9004974365234375
1740007287828325600,1.00232568359375,-0.02557373046875,0.2249298095703125,0.871612548828125
1740007287838307800,1.012307861328125,-0.0188751220703125,0.22845458984375,0.8332061767578125
1740007287848290000,1.0222900390625,-0.0160675048828125,0.2413330078125,0.81072998046875
1740007287858271700,1.032271728515625,-0.027496337890625,0.26995849609375,0.834503173828125
1740007287868254000,1.04225390625,-0.0709228515625,0.3042449951171875,0.915771484375
1740007287878236000,1.05223583984375,-0.1447906494140625,0.334259033203125,1.0214691162109375
1740007287888217900,1.0622177734375,-0.219970703125,0.3329010009765625,1.0836181640625
1740007287898199800,1.07219970703125,-0.2363433837890625,0.32806396484375,1.0531158447265625
1740007287908182000,1.08218212890625,-0.229827880859375,0.3399658203125,1.00799560546875
1740007287918165000,1.0921650390625,-0.207733154296875,0.33465576171875,0.9601898193359375
1740007287928147000,1.10214697265625,-0.1496734619140625,0.361724853515625,0.9182891845703125
1740007287938129000,1.11212890625,-0.099273681640625,0.422821044921875,0.9493255615234375
1740007287948110800,1.12211083984375,-0.0820159912109375,0.4863433837890625,1.0141448974609375
1740007287958092800,1.1320927734375,-0.068939208984375,0.526092529296875,1.0251922607421875
1740007287968074800,1.14207470703125,-0.0645751953125,0.5476531982421875,0.9817962646484375
1740007287978057000,1.152056884765625,-0.0802154541015625,0.5335235595703125,0.92645263671875
1740007287988038700,1.16203857421875,-0.1461181640625,0.4521484375,0.8507537841796875
1740007287998020900,1.172020751953125,-0.2293701171875,0.3246307373046875,0.7616119384765625
1740007288008002800,1.1820029296875,-0.2879638671875,0.23077392578125,0.6943817138671875
1740007288017984800,1.19198486328125,-0.28997802734375,0.1996917724609375,0.6776123046875
1740007288027967000,1.201967041015625,-0.2613067626953125,0.2128143310546875,0.7140350341796875
1740007288037949000,1.211948974609375,-0.2324371337890625,0.2428741455078125,0.7735443115234375
1740007288047931000,1.221930908203125,-0.2327423095703125,0.268218994140625,0.8447418212890625
1740007288057912800,1.231912841796875,-0.2552032470703125,0.27801513671875,0.8983154296875
1740007288067895000,1.24189501953125,-0.29571533203125,0.2723236083984375,0.9256134033203125
1740007288077877800,1.251877685546875,-0.3642120361328125,0.258758544921875,0.962615966796875
1740007288087860000,1.26185986328125,-0.445770263671875,0.25921630859375,1.0074310302734375
1740007288097842000,1.271842041015625,-0.498870849609375,0.2720794677734375,1.0458831787109375
1740007288107823900,1.281823974609375,-0.510467529296875,0.3037261962890625,1.095245361328125
1740007288117806000,1.29180615234375,-0.488861083984375,0.3502044677734375,1.155792236328125
1740007288127787800,1.301787841796875,-0.4146575927734375,0.401885986328125,1.1737823486328125
1740007288137770000,1.31177001953125,-0.3248443603515625,0.4208221435546875,1.1181640625
1740007288147752000,1.321751953125,-0.2226104736328125,0.3707733154296875,0.9466094970703125
1740007288157734000,1.33173388671875,-0.0355682373046875,0.278167724609375,0.681976318359375
1740007288167715800,1.3417158203125,-0.0720367431640625,0.258819580078125,0.6038360595703125
1740007288177697800,1.35169775390625,-0.066497802734375,0.2677001953125,0.6209716796875
1740007288187679700,1.3616796875,-0.0996856689453125,0.246826171875,0.7743072509765625
1740007288197662000,1.371661865234375,-0.1491546630859375,0.1916656494140625,0.91265869140625
1740007288207643600,1.3816435546875,-0.16778564453125,0.1366424560546875,1.0005645751953125
1740007288217625900,1.3916259765625,-0.1177215576171875,0.125732421875,1.0417938232421875
1740007288227608000,1.401608154296875,-0.031982421875,0.1159515380859375,0.9873504638671875
1740007288237591000,1.411591064453125,0.0516510009765625,0.08953857421875,0.855987548828125
1740007288247573200,1.4215732421875,0.1134490966796875,0.0790557861328125,0.751190185546875
1740007288257555000,1.431554931640625,0.1525421142578125,0.08843994140625,0.703033447265625
1740007288267537200,1.441537109375,0.169586181640625,0.0968475341796875,0.69720458984375
1740007288277519000,1.45151904296875,0.1635894775390625,0.1054534912109375,0.7205963134765625
1740007288287501000,1.4615009765625,0.1163177490234375,0.102874755859375,0.7605743408203125
1740007288297483000,1.47148291015625,0.0685272216796875,0.0861968994140625,0.8130035400390625
1740007288307465000,1.48146484375,0.034576416015625,0.080841064453125,0.838470458984375
1740007288317447000,1.491447021484375,0.00372314453125,0.1047515869140625,0.8529052734375
1740007288327429000,1.50142919921875,-0.0130462646484375,0.118621826171875,0.85650634765625
1740007288337410800,1.511410888671875,-0.0161590576171875,0.1387176513671875,0.85174560546875
1740007288347393000,1.52139306640625,-0.0019378662109375,0.1759185791015625,0.9070892333984375
1740007288357375200,1.531375244140625,0.0039825439453125,0.2166290283203125,0.9774017333984375
1740007288367357000,1.54135693359375,-0.0018768310546875,0.2535247802734375,1.10791015625
1740007288377339100,1.551339111328125,-0.0014801025390625,0.292266845703125,1.2743377685546875
1740007288387321000,1.561321044921875,-0.0140838623046875,0.317657470703125,1.4380340576171875
1740007288397304000,1.571303955078125,-0.024688720703125,0.3503875732421875,1.59613037109375
1740007288407286000,1.5812861328125,-0.0039825439453125,0.3578338623046875,1.7599639892578125
1740007288417268000,1.59126806640625,0.0321502685546875,0.3583221435546875,1.903411865234375
1740007288427250200,1.601250244140625,0.046905517578125,0.34588623046875,2.0268096923828125
1740007288437232000,1.611232177734375,0.029815673828125,0.2920379638671875,2.107330322265625
1740007288447214000,1.621214111328125,-0.009735107421875,0.2050933837890625,2.136871337890625
1740007288457196000,1.631196044921875,-0.0644378662109375,0.09295654296875,2.1641693115234375
1740007288467178000,1.641177978515625,-0.131317138671875,-0.0373077392578125,2.2069549560546875
1740007288477160000,1.651159912109375,-0.1952056884765625,-0.173431396484375,2.242462158203125
1740007288487142100,1.66114208984375,-0.238372802734375,-0.2920379638671875,2.268096923828125
1740007288497123800,1.671123779296875,-0.2458038330078125,-0.33795166015625,2.306549072265625
1740007288507106000,1.68110595703125,-0.2244720458984375,-0.27178955078125,2.4170684814453125
1740007288517088000,1.691087890625,-0.23309326171875,-0.1833343505859375,2.445526123046875
1740007288527070000,1.701070068359375,-0.2550506591796875,-0.1888580322265625,2.3093414306640625
1740007288537052000,1.711052001953125,-0.2431640625,-0.2468414306640625,2.1157989501953125
1740007288547034000,1.7210341796875,-0.2289581298828125,-0.281646728515625,1.8957672119140625
1740007288557016000,1.73101611328125,-0.27252197265625,-0.3305816650390625,1.6798858642578125
1740007288566999000,1.7409990234375,-0.308380126953125,-0.377410888671875,1.5044097900390625
1740007288576981000,1.75098095703125,-0.33111572265625,-0.3705291748046875,1.4188995361328125
1740007288586963000,1.760962890625,-0.31890869140625,-0.292388916015625,1.4393157958984375
1740007288596945200,1.770945068359375,-0.293121337890625,-0.180511474609375,1.533782958984375
1740007288606926800,1.7809267578125,-0.294219970703125,-0.0960693359375,1.610565185546875
1740007288616909000,1.790908935546875,-0.3000640869140625,-0.0205078125,1.667694091796875
1740007288626891300,1.800891357421875,-0.2900390625,0.0726165771484375,1.7206573486328125
1740007288636873000,1.810873046875,-0.2433319091796875,0.180694580078125,1.72528076171875
1740007288646855200,1.820855224609375,-0.172271728515625,0.2689208984375,1.6717376708984375
1740007288656836900,1.8308369140625,-0.1274261474609375,0.3183441162109375,1.5806427001953125
1740007288666819000,1.840819091796875,-0.0959014892578125,0.3278656005859375,1.50103759765625
1740007288676801000,1.850801025390625,-0.032196044921875,0.3120880126953125,1.4535064697265625
1740007288686783000,1.860782958984375,0.0410614013671875,0.3139190673828125,1.4325103759765625
1740007288696765000,1.870764892578125,0.0799102783203125,0.3260650634765625,1.3850555419921875
1740007288706747100,1.8807470703125,0.086883544921875,0.3222808837890625,1.296356201171875
1740007288716728800,1.890728759765625,0.049163818359375,0.3096466064453125,1.2008819580078125
1740007288726712000,1.900712158203125,-0.0032501220703125,0.2945098876953125,1.1426544189453125
1740007288736694000,1.910694091796875,0.00689697265625,0.2917022705078125,1.12652587890625
1740007288746676000,1.920676025390625,0.016937255859375,0.29510498046875,1.1320953369140625
1740007288756658200,1.930658203125,0.0158538818359375,0.3004150390625,1.141876220703125
1740007288766639900,1.940639892578125,0.008026123046875,0.31256103515625,1.1442718505859375
1740007288776622000,1.9506220703125,0.0216827392578125,0.3238983154296875,1.1511688232421875
1740007288786604000,1.96060400390625,0.0321502685546875,0.3315277099609375,1.127227783203125
1740007288796586000,1.9705859375,0.03857421875,0.34307861328125,1.08154296875
1740007288806568200,1.980568115234375,0.0366973876953125,0.35101318359375,1.057769775390625
1740007288816550100,1.990550048828125,0.047088623046875,0.3621368408203125,1.0553131103515625
1740007288826532000,2.000531982421875,0.0536956787109375,0.37677001953125,1.0620269775390625
1740007288836514000,2.01051416015625,0.062042236328125,0.391082763671875,1.0650482177734375
1740007288846496000,2.02049609375,0.076873779296875,0.406005859375,1.052154541015625
1740007288856478000,2.03047802734375,0.108856201171875,0.4169464111328125,1.0386505126953125
1740007288866460200,2.040460205078125,0.1572723388671875,0.4226837158203125,1.043548583984375
1740007288876441900,2.05044189453125,0.1985626220703125,0.4251708984375,1.0442657470703125
1740007288886425000,2.060425048828125,0.2457122802734375,0.4407196044921875,1.0285797119140625
1740007288896407000,2.070406982421875,0.2874603271484375,0.466796875,1.002685546875
1740007288906389000,2.080388916015625,0.304290771484375,0.4943084716796875,0.99151611328125
1740007288916371200,2.09037109375,0.2822265625,0.50238037109375,1.000579833984375
1740007288926353000,2.100352783203125,0.242401123046875,0.4855804443359375,1.024505615234375
1740007288936335000,2.110335205078125,0.1895599365234375,0.45770263671875,1.082183837890625
1740007288946317000,2.120317138671875,0.1376190185546875,0.4335784912109375,1.156982421875
1740007288956299000,2.130299072265625,0.0890045166015625,0.42266845703125,1.2132568359375
1740007288966281000,2.140281005859375,0.043365478515625,0.4258880615234375,1.2303314208984375
1740007288976263200,2.15026318359375,0.0101776123046875,0.4495697021484375,1.2232513427734375
1740007288986244900,2.160244873046875,-0.0104522705078125,0.49432373046875,1.2080535888671875
1740007288996227000,2.17022705078125,-0.0185699462890625,0.53350830078125,1.157073974609375
1740007289006209000,2.180208984375,-0.0298309326171875,0.534088134765625,1.05999755859375
1740007289016191000,2.19019091796875,-0.036895751953125,0.519012451171875,0.9461517333984375
1740007289026173200,2.200173095703125,-0.0325164794921875,0.517547607421875,0.8470001220703125
1740007289036155000,2.21015478515625,-0.019989013671875,0.5136871337890625,0.760711669921875
1740007289046138000,2.22013818359375,-0.0125885009765625,0.4912872314453125,0.69171142578125
1740007289056119800,2.230119873046875,-0.0022735595703125,0.468353271484375,0.6555328369140625
1740007289066102000,2.24010205078125,0.0065460205078125,0.461639404296875,0.6767425537109375
1740007289076084200,2.250084228515625,0.021148681640625,0.4701385498046875,0.739349365234375
1740007289086066000,2.26006591796875,0.042633056640625,0.4735107421875,0.8136749267578125
1740007289096048000,2.270048095703125,0.0684051513671875,0.4732513427734375,0.877655029296875
1740007289106030000,2.280030029296875,0.0961761474609375,0.472991943359375,0.9517059326171875
1740007289116012000,2.290011962890625,0.110748291015625,0.4720306396484375,1.042205810546875
1740007289125994000,2.299993896484375,0.1232147216796875,0.4694976806640625,1.1144256591796875
1740007289135976200,2.30997607421875,0.120452880859375,0.459259033203125,1.1588134765625
1740007289145958000,2.3199580078125,0.1181793212890625,0.4453125,1.187469482421875
1740007289155940000,2.329940185546875,0.1132049560546875,0.42962646484375,1.2148895263671875
1740007289165922000,2.339922119140625,0.1073455810546875,0.402618408203125,1.229217529296875
1740007289175904000,2.349904052734375,0.09051513671875,0.3634490966796875,1.230438232421875
1740007289185886200,2.35988623046875,0.0612640380859375,0.32098388671875,1.200439453125
1740007289195868000,2.369867919921875,0.0286102294921875,0.28271484375,1.1270294189453125
1740007289205851100,2.37985107421875,-0.0018157958984375,0.2581787109375,1.0417938232421875
1740007289215832800,2.389832763671875,-0.0321197509765625,0.2450103759765625,0.958526611328125
1740007289225815000,2.39981494140625,-0.0476531982421875,0.2337646484375,0.88555908203125
1740007289235797000,2.409796875,-0.060272216796875,0.223480224609375,0.829376220703125
1740007289245779000,2.419779052734375,-0.082794189453125,0.2170257568359375,0.804473876953125
1740007289255761200,2.42976123046875,-0.0970611572265625,0.2181549072265625,0.81561279296875
1740007289265743000,2.4397431640625,-0.0826263427734375,0.21099853515625,0.830780029296875
1740007289275725000,2.44972509765625,-0.0553436279296875,0.1879119873046875,0.8449859619140625
1740007289285707000,2.45970703125,-0.0674896240234375,0.164459228515625,0.887176513671875
1740007289295689200,2.469689208984375,-0.0678863525390625,0.159210205078125,0.9244384765625
1740007289305671200,2.479671142578125,-0.0662841796875,0.151580810546875,0.955718994140625
1740007289315653000,2.489653076171875,-0.0593414306640625,0.1435546875,0.993499755859375
1740007289325635000,2.499635009765625,-0.0317230224609375,0.15374755859375,1.0196075439453125
1740007289335617000,2.509616943359375,-0.009613037109375,0.181182861328125,1.041229248046875
1740007289345599200,2.51959912109375,0.0040130615234375,0.2042236328125,1.08074951171875
1740007289355582000,2.52958203125,0.0198516845703125,0.2225189208984375,1.137298583984375
1740007289365564200,2.539564208984375,0.0357818603515625,0.240234375,1.1934967041015625
1740007289375546000,2.549546142578125,0.03759765625,0.24554443359375,1.292633056640625
1740007289385528000,2.559528076171875,0.0250091552734375,0.2631683349609375,1.426727294921875
1740007289395510300,2.56951025390625,-0.0087738037109375,0.2879791259765625,1.5632781982421875
1740007289405492000,2.579491943359375,-0.075897216796875,0.30010986328125,1.6948699951171875
1740007289415474200,2.58947412109375,-0.1696319580078125,0.2962493896484375,1.7997589111328125
1740007289425456000,2.5994560546875,-0.247772216796875,0.201934814453125,1.875640869140625
1740007289435438000,2.60943798828125,-0.262542724609375,0.0292816162109375,1.968780517578125
1740007289445420000,2.619419921875,-0.2196197509765625,-0.0876312255859375,2.0523529052734375
1740007289455402200,2.62940234375,-0.162200927734375,-0.191986083984375,2.0906524658203125
1740007289465384000,2.639384033203125,-0.150604248046875,-0.2789154052734375,2.1427154541015625
1740007289475366100,2.6493662109375,-0.1475982666015625,-0.32305908203125,2.2820892333984375
1740007289485348400,2.659348388671875,-0.1357879638671875,-0.2942352294921875,2.4618682861328125
1740007289495330000,2.669330078125,-0.1348876953125,-0.1797637939453125,2.53564453125
1740007289505312300,2.679312255859375,-0.1338958740234375,-0.0826263427734375,2.410064697265625
1740007289515295000,2.689294921875,-0.1452789306640625,-0.054718017578125,2.140960693359375
1740007289525277200,2.699277099609375,-0.16949462890625,-0.0754241943359375,1.8531646728515625
1740007289535259100,2.709259033203125,-0.1678009033203125,-0.10693359375,1.621917724609375
1740007289545241000,2.719240966796875,-0.147216796875,-0.1572113037109375,1.4830474853515625
1740007289555223300,2.729223388671875,-0.126220703125,-0.1878662109375,1.43011474609375
1740007289565205000,2.739205078125,-0.1267852783203125,-0.1999969482421875,1.4492340087890625
1740007289575187200,2.749187255859375,-0.11962890625,-0.21142578125,1.4759674072265625
1740007289585169200,2.759169189453125,-0.1028289794921875,-0.2126007080078125,1.4908447265625
1740007289595151000,2.769151123046875,-0.0884857177734375,-0.1692962646484375,1.52099609375
1740007289605133000,2.779133056640625,-0.0717620849609375,-0.091400146484375,1.53448486328125
1740007289615115300,2.789115234375,-0.050079345703125,-0.0033111572265625,1.5270843505859375
1740007289625097000,2.799096923828125,-0.0262908935546875,0.091949462890625,1.518402099609375
1740007289635079200,2.8090791015625,-0.00067138671875,0.189544677734375,1.5008697509765625
1740007289645061000,2.81906103515625,0.014892578125,0.2628631591796875,1.4606475830078125
1740007289655043000,2.82904296875,0.020660400390625,0.311309814453125,1.4005889892578125
1740007289665026300,2.8390263671875,0.0147857666015625,0.3458251953125,1.3477783203125
1740007289675008000,2.849008056640625,0.0068511962890625,0.360931396484375,1.30194091796875
1740007289684990200,2.858990234375,0.0199127197265625,0.341156005859375,1.2548065185546875
1740007289694972200,2.86897216796875,0.060791015625,0.2937469482421875,1.229522705078125
1740007289704954000,2.8789541015625,0.114959716796875,0.2653656005859375,1.2367401123046875
1740007289714936000,2.88893603515625,0.1682586669921875,0.2520904541015625,1.2315826416015625
1740007289724918000,2.89891796875,0.192840576171875,0.2286834716796875,1.212646484375
1740007289734900000,2.90889990234375,0.2115020751953125,0.2073516845703125,1.195281982421875
1740007289744882200,2.918882080078125,0.2068634033203125,0.2163543701171875,1.1882781982421875
1740007289754864000,2.928864013671875,0.1774749755859375,0.2035675048828125,1.1400146484375
1740007289764846000,2.93884619140625,0.1485595703125,0.1829681396484375,1.10125732421875
1740007289774828300,2.948828369140625,0.07647705078125,0.2361602783203125,1.15008544921875
1740007289784810000,2.95881005859375,0.002044677734375,0.2829132080078125,1.204315185546875
1740007289794792200,2.968792236328125,-0.050140380859375,0.3469390869140625,1.2489166259765625
1740007289804774100,2.978774169921875,-0.092529296875,0.4295196533203125,1.2858428955078125
1740007289814756000,2.988756103515625,-0.1148834228515625,0.514984130859375,1.2834014892578125
1740007289824739300,2.9987392578125,-0.1395416259765625,0.5778656005859375,1.2490234375
1740007289834721000,3.008720947265625,-0.1760711669921875,0.6101226806640625,1.1906585693359375
1740007289844703200,3.018703125,-0.189453125,0.6207122802734375,1.12408447265625
1740007289854685200,3.028685302734375,-0.1560211181640625,0.6341400146484375,1.0865936279296875
1740007289864667100,3.038667236328125,-0.11285400390625,0.6525115966796875,1.0817108154296875
1740007289874649000,3.048649169921875,-0.07318115234375,0.669525146484375,1.082916259765625
1740007289884631000,3.058631103515625,-0.0182952880859375,0.68463134765625,1.0689544677734375
1740007289894613000,3.068613037109375,0.0200042724609375,0.7049407958984375,1.053985595703125
1740007289904595200,3.07859521484375,0.047607421875,0.7265777587890625,1.0421142578125
1740007289914577000,3.088576904296875,0.068634033203125,0.7427520751953125,1.0259857177734375
1740007289924559000,3.09855908203125,0.0803680419921875,0.7649078369140625,1.0162200927734375
1740007289934541300,3.108541259765625,0.0816192626953125,0.798553466796875,1.01043701171875
1740007289944523000,3.11852294921875,0.0702667236328125,0.8248443603515625,0.9920501708984375
1740007289954505200,3.128505126953125,0.0470733642578125,0.8320770263671875,0.9673919677734375
1740007289964487200,3.138487060546875,0.03118896484375,0.828369140625,0.9318389892578125
1740007289974470100,3.14847021484375,0.0209808349609375,0.8193817138671875,0.8994293212890625
1740007289984452000,3.1584521484375,0.0198211669921875,0.8117523193359375,0.8707275390625
1740007289994434000,3.16843408203125,0.0268707275390625,0.813720703125,0.8444061279296875
1740007290004416300,3.178416259765625,0.0519866943359375,0.805908203125,0.810455322265625
1740007290014398200,3.188398193359375,0.0870208740234375,0.789093017578125,0.7686920166015625
1740007290024380200,3.198380126953125,0.1198272705078125,0.78533935546875,0.7391510009765625
1740007290034362000,3.208362060546875,0.1454925537109375,0.7795257568359375,0.7159576416015625
1740007290044344000,3.218343994140625,0.1629180908203125,0.76361083984375,0.6947021484375
1740007290054326000,3.228325927734375,0.1749420166015625,0.7452239990234375,0.6854248046875
1740007290064308200,3.23830810546875,0.1704559326171875,0.7093505859375,0.6839141845703125
1740007290074290000,3.2482900390625,0.1822967529296875,0.6600189208984375,0.7128753662109375
1740007290084272000,3.258272216796875,0.2324676513671875,0.6310272216796875,0.7918853759765625
1740007290094254000,3.268254150390625,0.2861328125,0.6292572021484375,0.9159088134765625
1740007290104236000,3.278236083984375,0.3296966552734375,0.647247314453125,1.0410308837890625
1740007290114218000,3.288218017578125,0.34844970703125,0.6675567626953125,1.15087890625
1740007290124201000,3.298200927734375,0.3420257568359375,0.6851348876953125,1.253509521484375
1740007290134183200,3.30818310546875,0.3004913330078125,0.69049072265625,1.3385467529296875
1740007290144165000,3.3181650390625,0.2620697021484375,0.6961517333984375,1.4019012451171875
1740007290154147000,3.32814697265625,0.2192840576171875,0.697967529296875,1.4461212158203125
1740007290164129000,3.33812890625,0.1581573486328125,0.661712646484375,1.4382781982421875
1740007290174111200,3.348111328125,0.0819854736328125,0.6215362548828125,1.40228271484375
1740007290184093000,3.358093017578125,-0.0034027099609375,0.57470703125,1.34490966796875
1740007290194075100,3.3680751953125,-0.072967529296875,0.5233001708984375,1.2618560791015625
1740007290204057300,3.378057373046875,-0.12091064453125,0.475982666015625,1.1558074951171875
1740007290214039000,3.3880390625,-0.165008544921875,0.442657470703125,1.0449981689453125
1740007290224021200,3.398021240234375,-0.1965484619140625,0.4225311279296875,0.945556640625
1740007290234003000,3.4080029296875,-0.2148284912109375,0.4065704345703125,0.8666229248046875
1740007290243984600,3.417984619140625,-0.2259063720703125,0.3914947509765625,0.8101959228515625
1740007290253966600,3.427966552734375,-0.223602294921875,0.37310791015625,0.766998291015625
1740007290263948800,3.43794873046875,-0.208282470703125,0.3527374267578125,0.75140380859375
1740007290273931800,3.447931884765625,-0.1903228759765625,0.3435211181640625,0.758544921875
1740007290283913700,3.457913818359375,-0.171173095703125,0.3290252685546875,0.7798004150390625
1740007290293895700,3.467895751953125,-0.1611328125,0.3173675537109375,0.8170928955078125
1740007290303877600,3.477877685546875,-0.1604461669921875,0.31060791015625,0.8683624267578125
1740007290313859600,3.487859619140625,-0.15521240234375,0.3039398193359375,0.915740966796875
1740007290323841500,3.497841552734375,-0.150970458984375,0.2884979248046875,0.9465789794921875
1740007290333823700,3.50782373046875,-0.12158203125,0.2799835205078125,0.968170166015625
1740007290343805400,3.517805419921875,-0.0594024658203125,0.2843780517578125,1.007904052734375
1740007290353787600,3.52778759765625,0.0367889404296875,0.2978515625,1.0717926025390625
1740007290363769900,3.537769775390625,0.1185455322265625,0.4033355712890625,1.19488525390625
1740007290373751600,3.54775146484375,0.1549835205078125,0.4383392333984375,1.283935546875
1740007290383733800,3.557733642578125,0.1652069091796875,0.455535888671875,1.3500213623046875
1740007290393715700,3.5677158203125,0.166229248046875,0.4826507568359375,1.4310760498046875
1740007290403697700,3.57769775390625,0.1467742919921875,0.4971771240234375,1.5089569091796875
1740007290413679600,3.5876796875,0.1246490478515625,0.5141754150390625,1.5863189697265625
1740007290423662600,3.59766259765625,0.1083831787109375,0.510040283203125,1.6893310546875
1740007290433644800,3.607644775390625,0.0894012451171875,0.483306884765625,1.804107666015625
1740007290443626800,3.617626708984375,0.0233154296875,0.415374755859375,1.8801116943359375
1740007290453608700,3.627608642578125,-0.0573272705078125,0.3325042724609375,1.9281005859375
1740007290463590700,3.637590576171875,-0.093048095703125,0.2602691650390625,1.9757232666015625
1740007290473572600,3.647572509765625,-0.1067047119140625,0.2253265380859375,2.0689239501953125
1740007290483554600,3.657554443359375,-0.1407623291015625,0.2494964599609375,2.182037353515625
1740007290493536800,3.667536865234375,-0.1817169189453125,0.277130126953125,2.2432861328125
1740007290503518500,3.6775185546875,-0.2261810302734375,0.248504638671875,2.18035888671875
1740007290513500700,3.687500732421875,-0.2623291015625,0.1697540283203125,2.0065460205078125
1740007290523482600,3.697482666015625,-0.2884979248046875,0.0742340087890625,1.8062286376953125
1740007290533464600,3.707464599609375,-0.2909698486328125,-0.009185791015625,1.6298370361328125
1740007290543446500,3.717446533203125,-0.2784423828125,-0.079345703125,1.523162841796875
1740007290553428700,3.7274287109375,-0.2511444091796875,-0.1003570556640625,1.5228729248046875
1740007290563410700,3.73741064453125,-0.2184600830078125,-0.0554046630859375,1.5789642333984375
1740007290573393700,3.7473935546875,-0.1888580322265625,0.009246826171875,1.6283111572265625
1740007290583375600,3.757375732421875,-0.1518707275390625,0.0634307861328125,1.642730712890625
1740007290593357600,3.767357666015625,-0.1063079833984375,0.127349853515625,1.65179443359375
1740007290603339800,3.77733984375,-0.065704345703125,0.220794677734375,1.675048828125
1740007290613321500,3.787321533203125,-0.0325775146484375,0.3297271728515625,1.71466064453125
1740007290623303700,3.7973037109375,-0.0121917724609375,0.43701171875,1.742706298828125
1740007290633286000,3.807285888671875,-0.00286865234375,0.534637451171875,1.7442474365234375
1740007290643267600,3.817267578125,-0.0068817138671875,0.6292572021484375,1.733245849609375
1740007290653249800,3.827249755859375,-0.0498809814453125,0.7041473388671875,1.7236328125
1740007290663231500,3.8372314453125,-0.115509033203125,0.758148193359375,1.71234130859375
1740007290673213700,3.847213623046875,-0.1776275634765625,0.7837982177734375,1.6802215576171875
1740007290683195600,3.857195556640625,-0.2194976806640625,0.7774200439453125,1.619415283203125
1740007290693177600,3.867177490234375,-0.2369842529296875,0.7588958740234375,1.5587005615234375
1740007290703159600,3.87715966796875,-0.2357940673828125,0.7117767333984375,1.484039306640625
1740007290713142500,3.887142578125,-0.1737213134765625,0.6464385986328125,1.3924713134765625
1740007290723124700,3.897124755859375,-0.072509765625,0.590240478515625,1.34075927734375
1740007290733106700,3.907106689453125,0.0386810302734375,0.5572509765625,1.349151611328125
1740007290743088600,3.917088623046875,0.124114990234375,0.5526580810546875,1.361114501953125
1740007290753071600,3.927071533203125,0.1722564697265625,0.535308837890625,1.3524627685546875
1740007290763053600,3.937053466796875,0.20709228515625,0.5345001220703125,1.36529541015625
1740007290773035800,3.947035888671875,0.18280029296875,0.572662353515625,1.398895263671875
1740007290783017700,3.957017822265625,0.13201904296875,0.6119537353515625,1.4030609130859375
1740007290792999700,3.966999755859375,0.134124755859375,0.671844482421875,1.418670654296875
1740007290802981600,3.976981689453125,0.153106689453125,0.7330322265625,1.4287567138671875
1740007290812963800,3.9869638671875,0.1535491943359375,0.770538330078125,1.398529052734375
1740007290822945500,3.996945556640625,0.150054931640625,0.7981414794921875,1.35565185546875
1740007290832927700,4.006927734375,0.1337127685546875,0.8295135498046875,1.314849853515625
1740007290842909700,4.01690966796875,0.10888671875,0.8480072021484375,1.2761688232421875
1740007290852891600,4.0268916015625,0.0655059814453125,0.8570098876953125,1.23187255859375
1740007290862873600,4.03687353515625,0.0272674560546875,0.869049072265625,1.18597412109375
1740007290872855600,4.04685546875,-0.0026092529296875,0.87774658203125,1.144378662109375
1740007290882837800,4.056837646484375,-0.0056915283203125,0.8791046142578125,1.11431884765625
1740007290892819700,4.06681982421875,-0.0009918212890625,0.88201904296875,1.080169677734375
1740007290902802700,4.076802734375,-0.00732421875,0.8977813720703125,1.071868896484375
1740007290912784600,4.08678466796875,-0.0066986083984375,0.9163360595703125,1.0696868896484375
1740007290922766600,4.0967666015625,0.0082244873046875,0.9328460693359375,1.0455322265625
1740007290932748500,4.10674853515625,0.009033203125,0.9212188720703125,1.0107879638671875
1740007290942730800,4.116730712890625,0.005706787109375,0.9063720703125,0.9681243896484375
1740007290952712700,4.126712646484375,0.0177001953125,0.8918609619140625,0.9346771240234375
1740007290962694700,4.136694580078125,0.039703369140625,0.873565673828125,0.9028167724609375
1740007290972676900,4.1466767578125,0.0630035400390625,0.8510894775390625,0.871917724609375
1740007290982658600,4.156658447265625,0.087066650390625,0.8366546630859375,0.8569183349609375
1740007290992640800,4.166640869140625,0.1051025390625,0.834991455078125,0.865997314453125
1740007291002622700,4.176622802734375,0.13446044921875,0.8239898681640625,0.858428955078125
1740007291012604700,4.186604736328125,0.1609039306640625,0.7725372314453125,0.7890777587890625
1740007291022586600,4.196586669921875,0.146636962890625,0.7070159912109375,0.7202606201171875
1740007291032568600,4.206568603515625,0.13323974609375,0.66656494140625,0.6587677001953125
1740007291042551800,4.2165517578125,0.1366424560546875,0.6470489501953125,0.598907470703125
1740007291052533500,4.226533447265625,0.122772216796875,0.6338348388671875,0.528350830078125
1740007291062515700,4.236515625,0.111083984375,0.6123199462890625,0.4572601318359375
1740007291072497700,4.24649755859375,0.0612945556640625,0.5802459716796875,0.3919219970703125
1740007291082479600,4.256479736328125,0.0124664306640625,0.5562591552734375,0.3728790283203125
1740007291092461600,4.266461669921875,-0.020660400390625,0.55963134765625,0.4046478271484375
1740007291102443800,4.27644384765625,-0.0228729248046875,0.5813140869140625,0.477203369140625
1740007291112425500,4.286425537109375,-0.00726318359375,0.599029541015625,0.5641937255859375
1740007291122407700,4.29640771484375,0.0046844482421875,0.6014251708984375,0.6566925048828125
1740007291132389600,4.3063896484375,0.010162353515625,0.623291015625,0.79022216796875
1740007291142371600,4.31637158203125,0.0385284423828125,0.647247314453125,0.9784088134765625
1740007291152353800,4.326353759765625,0.081512451171875,0.6302032470703125,1.182861328125
1740007291162335700,4.336335693359375,0.1256866455078125,0.5755157470703125,1.3770294189453125
1740007291172317700,4.346317626953125,0.1697540283203125,0.4997100830078125,1.534637451171875
1740007291182299600,4.356299560546875,0.2103118896484375,0.429168701171875,1.5407867431640625
1740007291192281600,4.366281494140625,0.197998046875,0.4051666259765625,1.43658447265625
1740007291202263600,4.376263671875,0.1640472412109375,0.405426025390625,1.3049468994140625
1740007291212245800,4.386245849609375,0.125457763671875,0.409088134765625,1.1844940185546875
1740007291222228700,4.396228759765625,0.0909271240234375,0.390960693359375,1.067779541015625
1740007291232210700,4.406210693359375,0.0780792236328125,0.3618011474609375,0.997894287109375
1740007291242192600,4.416192626953125,0.069000244140625,0.3419189453125,0.9677581787109375
1740007291252174800,4.4261748046875,0.09368896484375,0.313751220703125,0.9799041748046875
1740007291262156800,4.43615673828125,0.171295166015625,0.2824249267578125,1.031158447265625
1740007291272138800,4.446138671875,0.253082275390625,0.248504638671875,1.07861328125
1740007291282120700,4.45612060546875,0.3060455322265625,0.2056732177734375,1.10772705078125
1740007291292103000,4.46610302734375,0.3614959716796875,0.1752471923828125,1.1405181884765625
1740007291302084600,4.476084716796875,0.4106597900390625,0.155792236328125,1.15875244140625
1740007291312066800,4.48606689453125,0.4405059814453125,0.142852783203125,1.1659088134765625
1740007291322048800,4.496048828125,0.4461822509765625,0.145294189453125,1.165008544921875
1740007291332030700,4.50603076171875,0.4525146484375,0.145050048828125,1.168121337890625
1740007291342013000,4.516012939453125,0.461578369140625,0.1544189453125,1.2051849365234375
1740007291351995000,4.525994873046875,0.4643402099609375,0.161346435546875,1.2758941650390625
1740007291361977900,4.535977783203125,0.4581451416015625,0.16412353515625,1.313262939453125
1740007291371959800,4.545959716796875,0.4164581298828125,0.17608642578125,1.3225555419921875
1740007291381941800,4.555941650390625,0.3801422119140625,0.174224853515625,1.32086181640625
1740007291391923700,4.565923828125,0.355682373046875,0.1842498779296875,1.346282958984375
1740007291401905700,4.57590576171875,0.3570404052734375,0.2176513671875,1.403472900390625
1740007291411887900,4.585887939453125,0.3809661865234375,0.2501678466796875,1.4931182861328125
1740007291421869800,4.595869873046875,0.4032440185546875,0.2573699951171875,1.5809783935546875
1740007291431851800,4.605851806640625,0.41552734375,0.2656402587890625,1.670867919921875
1740007291441833700,4.615833740234375,0.429290771484375,0.255096435546875,1.7589111328125
1740007291451816000,4.62581591796875,0.457733154296875,0.2103118896484375,1.8182525634765625
1740007291461797600,4.635797607421875,0.492584228515625,0.1506805419921875,1.844818115234375
1740007291471779800,4.64577978515625,0.5326995849609375,0.10064697265625,1.8610076904296875
1740007291481761800,4.65576171875,0.5601959228515625,0.073699951171875,1.8869171142578125
1740007291491743700,4.66574365234375,0.56536865234375,0.072784423828125,1.9504852294921875
1740007291501727000,4.67572705078125,0.547210693359375,0.0427398681640625,1.99822998046875
1740007291511708700,4.685708740234375,0.5325927734375,-0.010772705078125,1.9828033447265625
1740007291521691000,4.69569091796875,0.4930877685546875,-0.0738372802734375,1.905670166015625
1740007291531672800,4.7056728515625,0.4054107666015625,-0.131378173828125,1.8385009765625
1740007291541654800,4.71565478515625,0.301300048828125,-0.1764678955078125,1.7681121826171875
1740007291551636700,4.72563671875,0.2091522216796875,-0.2298736572265625,1.6859283447265625
1740007291561618700,4.73561865234375,0.132354736328125,-0.265594482421875,1.629302978515625
1740007291571600600,4.7456005859375,0.0468902587890625,-0.2662506103515625,1.616180419921875
1740007291581582800,4.755582763671875,-0.0520782470703125,-0.1904754638671875,1.6680450439453125
1740007291591564800,4.765564697265625,-0.101226806640625,-0.080413818359375,1.724029541015625
1740007291601546800,4.775546630859375,-0.16375732421875,-0.0450592041015625,1.7182464599609375
1740007291611529000,4.785529052734375,-0.2069244384765625,0.033477783203125,1.71282958984375
1740007291621510700,4.7955107421875,-0.21185302734375,0.1387176513671875,1.711456298828125
1740007291631492900,4.805492919921875,-0.18560791015625,0.2635498046875,1.703826904296875
1740007291641475600,4.8154755859375,-0.1455535888671875,0.4086151123046875,1.6866912841796875
1740007291651457800,4.825457763671875,-0.0899505615234375,0.5432586669921875,1.6546478271484375
1740007291661440000,4.83543994140625,-0.0452423095703125,0.63800048828125,1.5943603515625
1740007291671421700,4.845421630859375,-0.0258941650390625,0.68756103515625,1.506256103515625
1740007291681404000,4.85540380859375,-0.007720947265625,0.7011566162109375,1.412139892578125
1740007291691385900,4.8653857421875,0.013916015625,0.7000885009765625,1.32098388671875
1740007291701367800,4.875367919921875,0.0519561767578125,0.6804656982421875,1.231597900390625
1740007291711349800,4.885349853515625,0.082183837890625,0.645965576171875,1.169158935546875
1740007291721331700,4.895331787109375,0.1172332763671875,0.6126708984375,1.1239471435546875
1740007291731313700,4.905313720703125,0.1477203369140625,0.5842437744140625,1.092010498046875
1740007291741295900,4.9152958984375,0.1566619873046875,0.5647125244140625,1.078826904296875
1740007291751277600,4.925277587890625,0.1666107177734375,0.5417022705078125,1.071197509765625
1740007291761259800,4.935259765625,0.17584228515625,0.515472412109375,1.072174072265625
1740007291771241700,4.94524169921875,0.1756591796875,0.502685546875,1.08123779296875
1740007291781223700,4.9552236328125,0.1824798583984375,0.4990081787109375,1.0850830078125
1740007291791207000,4.96520703125,0.1916046142578125,0.5030975341796875,1.0929718017578125
1740007291801188600,4.975188720703125,0.1751708984375,0.5118560791015625,1.1014251708984375
1740007291811170800,4.9851708984375,0.1654510498046875,0.5350494384765625,1.1170196533203125
1740007291821152800,4.99515283203125,0.152801513671875,0.56512451171875,1.1271209716796875
1740007291831134700,5.005134765625,0.1546783447265625,0.600006103515625,1.1315765380859375
1740007291841116700,5.01511669921875,0.150360107421875,0.6383514404296875,1.13739013671875
1740007291851099000,5.025098876953125,0.147247314453125,0.672119140625,1.1383056640625
1740007291861080800,5.035080810546875,0.1340789794921875,0.6959991455078125,1.1250457763671875
1740007291871062800,5.045062744140625,0.1215057373046875,0.718048095703125,1.111175537109375
1740007291881045000,5.055044921875,0.11004638671875,0.740509033203125,1.107452392578125
1740007291891026700,5.065026611328125,0.1002349853515625,0.7700347900390625,1.119659423828125
1740007291901009000,5.0750087890625,0.09368896484375,0.8007049560546875,1.1385955810546875
1740007291910990600,5.084990478515625,0.0886077880859375,0.832550048828125,1.1540679931640625
1740007291920973800,5.094973876953125,0.0970916748046875,0.8665924072265625,1.1550445556640625
1740007291930955800,5.104955810546875,0.1169586181640625,0.905242919921875,1.157867431640625
1740007291940937700,5.114937744140625,0.1287994384765625,0.9360504150390625,1.1542510986328125
1740007291950920000,5.124919921875,0.1125335693359375,0.9620361328125,1.1375732421875
1740007291960901600,5.134901611328125,0.09002685546875,0.9774627685546875,1.0987396240234375
1740007291970883800,5.1448837890625,0.0626220703125,0.97662353515625,1.0562896728515625
1740007291980865800,5.15486572265625,0.0202789306640625,0.9628753662109375,1.026458740234375
1740007291990847700,5.16484765625,-0.0209197998046875,0.94189453125,1.0001678466796875
1740007292000829700,5.17482958984375,-0.0289154052734375,0.92169189453125,0.9741973876953125
1740007292010812000,5.18481201171875,-0.011932373046875,0.8988800048828125,0.94049072265625
1740007292020793600,5.194793701171875,0.0118865966796875,0.8590850830078125,0.9048614501953125
1740007292030775800,5.20477587890625,0.0329742431640625,0.836761474609375,0.8653411865234375
1740007292040758000,5.214758056640625,-0.0036163330078125,0.805877685546875,0.8116455078125
1740007292050739700,5.22473974609375,-0.032470703125,0.7547607421875,0.7533416748046875
1740007292060723000,5.234722900390625,-0.027618408203125,0.6981048583984375,0.7257080078125
1740007292070704600,5.24470458984375,-0.009063720703125,0.65966796875,0.7322845458984375
1740007292080686800,5.254686767578125,0.0275421142578125,0.6622772216796875,0.7586212158203125
1740007292090668800,5.264668701171875,0.072235107421875,0.6723480224609375,0.7784881591796875
1740007292100650800,5.274650634765625,0.1171722412109375,0.6679840087890625,0.8133087158203125
1740007292110633000,5.284633056640625,0.1522369384765625,0.6651611328125,0.8895721435546875
1740007292120614700,5.29461474609375,0.192901611328125,0.674468994140625,0.9885711669921875
1740007292130596900,5.304596923828125,0.23095703125,0.6774139404296875,1.0894622802734375
1740007292140578800,5.314578857421875,0.254913330078125,0.6576080322265625,1.151275634765625
1740007292150560800,5.324560791015625,0.2664031982421875,0.6124725341796875,1.1571502685546875
1740007292160542700,5.334542724609375,0.2666168212890625,0.55902099609375,1.119842529296875
1740007292170525000,5.34452490234375,0.2604522705078125,0.5091705322265625,1.06549072265625
1740007292180506600,5.354506591796875,0.2550811767578125,0.465667724609375,0.9954376220703125
1740007292190489900,5.36448974609375,0.248809814453125,0.4321746826171875,0.9207611083984375
1740007292200471800,5.374471923828125,0.2360687255859375,0.40826416015625,0.8474273681640625
1740007292210453800,5.384453857421875,0.1996307373046875,0.3885040283203125,0.785797119140625
1740007292220436000,5.39443603515625,0.152191162109375,0.377105712890625,0.7365875244140625
1740007292230417700,5.404417724609375,0.1025390625,0.3643035888671875,0.69427490234375
1740007292240400000,5.41439990234375,0.0651397705078125,0.347412109375,0.6605377197265625
1740007292250381600,5.424381591796875,0.03900146484375,0.3366851806640625,0.6446685791015625
1740007292260363300,5.43436328125,0.0256500244140625,0.343170166015625,0.650238037109375
1740007292270345500,5.444345458984375,0.030029296875,0.3519134521484375,0.6782684326171875
1740007292280327400,5.454327392578125,0.0358734130859375,0.3625335693359375,0.7285003662109375
1740007292290309400,5.464309326171875,0.0428009033203125,0.37225341796875,0.7793121337890625
1740007292300291300,5.474291259765625,0.0535888671875,0.3554840087890625,0.8061676025390625
1740007292310273500,5.4842734375,0.079071044921875,0.34814453125,0.8406982421875
1740007292320255200,5.494255126953125,0.10333251953125,0.365325927734375,0.9119720458984375
1740007292330238500,5.504238525390625,0.12823486328125,0.3873748779296875,1.0058441162109375
1740007292340220400,5.514220458984375,0.15777587890625,0.413665771484375,1.1005401611328125
1740007292350202400,5.524202392578125,0.1751708984375,0.4411163330078125,1.17724609375
1740007292360184300,5.534184326171875,0.1756591796875,0.462371826171875,1.2791748046875
1740007292370166300,5.544166259765625,0.1789398193359375,0.4716949462890625,1.415863037109375
1740007292380148500,5.5541484375,0.1871795654296875,0.454803466796875,1.5483856201171875
1740007292390130200,5.564130126953125,0.1951904296875,0.43182373046875,1.662933349609375
1740007292400112400,5.5741123046875,0.18597412109375,0.40301513671875,1.768829345703125
1740007292410094300,5.58409423828125,0.1341552734375,0.344512939453125,1.874267578125
1740007292420076300,5.594076171875,0.0718841552734375,0.2500152587890625,1.982086181640625
1740007292430058500,5.60405859375,0.0254058837890625,0.1293182373046875,2.060821533203125
1740007292440040400,5.61404052734375,-0.0131683349609375,0.01641845703125,2.1223907470703125
1740007292450022400,5.6240224609375,-0.052947998046875,-0.0614166259765625,2.166595458984375
1740007292460005400,5.63400537109375,-0.1163787841796875,-0.089263916015625,2.1949310302734375
1740007292469987300,5.6439873046875,-0.205810546875,-0.0839080810546875,2.1603851318359375
1740007292479969300,5.65396923828125,-0.3070831298828125,-0.046295166015625,2.05596923828125
1740007292489951500,5.663951416015625,-0.3708038330078125,0.027069091796875,1.95355224609375
1740007292499933400,5.673933349609375,-0.39068603515625,0.1278076171875,1.8908538818359375
1740007292509915400,5.683915283203125,-0.39385986328125,0.2115936279296875,1.853973388671875
1740007292519897300,5.6938974609375,-0.3970794677734375,0.23687744140625,1.81268310546875
1740007292529879300,5.70387939453125,-0.393402099609375,0.1996917724609375,1.730987548828125
1740007292539861500,5.713861572265625,-0.3815765380859375,0.121337890625,1.6260528564453125
1740007292549843200,5.72384326171875,-0.34881591796875,0.0141448974609375,1.5131072998046875
1740007292559825400,5.733825439453125,-0.312835693359375,-0.098724365234375,1.4471893310546875
1740007292569807400,5.743807373046875,-0.2650604248046875,-0.1731109619140625,1.4087371826171875
1740007292579789300,5.753789306640625,-0.2114410400390625,-0.1889495849609375,1.3936004638671875
1740007292589771300,5.763771240234375,-0.1792144775390625,-0.1880950927734375,1.389892578125
1740007292599754200,5.773754150390625,-0.1437225341796875,-0.1699066162109375,1.379547119140625
1740007292609736400,5.783736328125,-0.1172637939453125,-0.13189697265625,1.3707122802734375
1740007292619718400,5.793718505859375,-0.101898193359375,-0.072723388671875,1.3883514404296875
1740007292629700400,5.803700439453125,-0.103729248046875,0.002838134765625,1.4259185791015625
1740007292639682300,5.813682373046875,-0.121246337890625,0.07757568359375,1.5148773193359375
1740007292649664500,5.82366455078125,-0.1366119384765625,0.1444549560546875,1.63848876953125
1740007292659646200,5.833646240234375,-0.1293792724609375,0.2099761962890625,1.7278594970703125
1740007292669628400,5.84362841796875,-0.1142578125,0.2570953369140625,1.765960693359375
1740007292679610400,5.8536103515625,-0.0949859619140625,0.287261962890625,1.7455291748046875
1740007292689592300,5.86359228515625,-0.0832366943359375,0.3246917724609375,1.655548095703125
1740007292699574500,5.873574462890625,-0.0779571533203125,0.348907470703125,1.555145263671875
1740007292709556200,5.88355615234375,-0.0541839599609375,0.359771728515625,1.4561004638671875
1740007292719538400,5.893538330078125,-0.0145111083984375,0.3741455078125,1.3775177001953125
1740007292729521200,5.903521240234375,0.02020263671875,0.386505126953125,1.334381103515625
1740007292739503400,5.91350341796875,0.089385986328125,0.41259765625,1.303253173828125
1740007292749485300,5.9234853515625,0.1701202392578125,0.4504547119140625,1.2547454833984375
1740007292759467300,5.93346728515625,0.220184326171875,0.4630126953125,1.2116241455078125
1740007292769449500,5.943449462890625,0.25567626953125,0.460479736328125,1.1785430908203125
1740007292779431400,5.953431396484375,0.2751617431640625,0.45025634765625,1.13421630859375
1740007292789413400,5.963413330078125,0.285064697265625,0.431640625,1.08917236328125
1740007292799395300,5.973395263671875,0.2798004150390625,0.3984375,1.0576629638671875
1740007292809377500,5.98337744140625,0.2782440185546875,0.3839111328125,1.0693511962890625
1740007292819359200,5.993359130859375,0.2527313232421875,0.4098358154296875,1.1109771728515625
1740007292829341400,6.003341552734375,0.200225830078125,0.4453125,1.1390533447265625
1740007292839323400,6.013323486328125,0.1522674560546875,0.4667205810546875,1.1442108154296875
1740007292849305300,6.023305419921875,0.1102294921875,0.485443115234375,1.1575775146484375
1740007292859288600,6.03328857421875,0.075958251953125,0.509429931640625,1.164825439453125
1740007292869270300,6.043270263671875,0.0646209716796875,0.544219970703125,1.160491943359375
1740007292879252500,6.05325244140625,0.0524444580078125,0.576629638671875,1.1471405029296875
1740007292889234400,6.063234375,0.037567138671875,0.591217041015625,1.1168365478515625
1740007292899216400,6.07321630859375,0.0084686279296875,0.5883636474609375,1.0810089111328125
1740007292909198300,6.0831982421875,-0.0088348388671875,0.5819091796875,1.051177978515625
1740007292919180300,6.09318017578125,-0.004364013671875,0.5845184326171875,1.031494140625
1740007292929162200,6.103162353515625,-0.0088958740234375,0.6039886474609375,1.02398681640625
1740007292939144400,6.11314453125,-0.0004119873046875,0.634735107421875,1.011138916015625
1740007292949126400,6.12312646484375,0.00286865234375,0.6605377197265625,0.9809112548828125
1740007292959108400,6.1331083984375,-0.0041351318359375,0.669921875,0.9384002685546875
1740007292969090600,6.143090576171875,-0.0318756103515625,0.6684417724609375,0.9137115478515625
1740007292979072300,6.153072265625,-0.077239990234375,0.65777587890625,0.9268646240234375
1740007292989055500,6.163055419921875,-0.11309814453125,0.6511993408203125,0.940185546875
1740007292999037200,6.173037109375,-0.1315460205078125,0.6672821044921875,0.9637908935546875
1740007293009019400,6.183019287109375,-0.134674072265625,0.72186279296875,1.0099639892578125
1740007293019001600,6.193001708984375,-0.098236083984375,0.818023681640625,0.994781494140625
1740007293028983300,6.2029833984375,-0.0435943603515625,0.8935546875,0.881866455078125
1740007293038965500,6.212965576171875,0.024993896484375,0.9190673828125,0.767333984375
1740007293048947500,6.222947509765625,0.1033172607421875,0.953582763671875,0.6780242919921875
1740007293058929400,6.232929443359375,0.2188873291015625,1.0341949462890625,0.572845458984375
1740007293068911400,6.242911376953125,0.34716796875,1.095489501953125,0.4461669921875
1740007293078893300,6.252893310546875,0.4414215087890625,1.0854949951171875,0.35882568359375
1740007293088875300,6.262875244140625,0.4775238037109375,1.0406036376953125,0.3669586181640625
1740007293098857500,6.272857421875,0.463775634765625,0.9912261962890625,0.5111541748046875
1740007293108839200,6.282839111328125,0.4143829345703125,0.9684295654296875,0.7708740234375
1740007293118822400,6.292822509765625,0.3460845947265625,0.9484100341796875,1.0706329345703125
1740007293128804400,6.302804443359375,0.252532958984375,0.9089813232421875,1.3529510498046875
1740007293138786300,6.312786376953125,0.144439697265625,0.830596923828125,1.5300750732421875
1740007293148768500,6.3227685546875,0.113739013671875,0.8041534423828125,1.641754150390625
1740007293158750200,6.332750244140625,0.093231201171875,0.8247528076171875,1.7704010009765625
1740007293168732400,6.342732421875,0.0507659912109375,0.7588653564453125,1.781158447265625
1740007293178714400,6.35271435546875,0.0343475341796875,0.633697509765625,1.685089111328125
1740007293188696300,6.3626962890625,0.01409912109375,0.5208740234375,1.5437469482421875
1740007293198678300,6.37267822265625,0.0232696533203125,0.454620361328125,1.409149169921875
1740007293208660500,6.382660400390625,0.0398101806640625,0.4160919189453125,1.2959442138671875
1740007293218642400,6.392642333984375,0.0486297607421875,0.39239501953125,1.201751708984375
1740007293228624400,6.402624267578125,0.04730224609375,0.3838348388671875,1.1513824462890625
1740007293238606300,6.4126064453125,0.0212249755859375,0.376007080078125,1.14349365234375
1740007293248588500,6.422588623046875,-0.0121002197265625,0.367034912109375,1.1418914794921875
1740007293258571300,6.4325712890625,-0.035400390625,0.3679656982421875,1.129669189453125
1740007293268553500,6.442553466796875,-0.0594940185546875,0.37261962890625,1.127471923828125
1740007293278535700,6.45253564453125,-0.076904296875,0.3633270263671875,1.159576416015625
1740007293288517400,6.462517333984375,-0.0794219970703125,0.3453521728515625,1.1810150146484375
1740007293298499600,6.47249951171875,-0.0709991455078125,0.3261260986328125,1.1905517578125
1740007293308481500,6.4824814453125,-0.058563232421875,0.308807373046875,1.2020721435546875
1740007293318463500,6.49246337890625,-0.0518341064453125,0.29229736328125,1.21685791015625
1740007293328445400,6.502445556640625,-0.06475830078125,0.26611328125,1.2275848388671875
1740007293338427600,6.512427734375,-0.0960693359375,0.2262420654296875,1.254669189453125
1740007293348409300,6.522409423828125,-0.1289520263671875,0.19378662109375,1.277069091796875
1740007293358391600,6.5323916015625,-0.14349365234375,0.1654205322265625,1.314453125
1740007293368373500,6.54237353515625,-0.1635894775390625,0.137847900390625,1.3951416015625
1740007293378356500,6.5523564453125,-0.16168212890625,0.1251373291015625,1.48895263671875
1740007293388338700,6.562338623046875,-0.1408538818359375,0.12957763671875,1.5651702880859375
1740007293398320400,6.5723203125,-0.12066650390625,0.129852294921875,1.62738037109375
1740007293408302600,6.582302490234375,-0.1160125732421875,0.1165924072265625,1.681427001953125
1740007293418284500,6.592284423828125,-0.128692626953125,0.07501220703125,1.7126922607421875
1740007293428266500,6.6022666015625,-0.123992919921875,0.0181121826171875,1.7275543212890625
1740007293438248400,6.61224853515625,-0.0885467529296875,-0.0283966064453125,1.7427978515625
1740007293448230400,6.62223046875,-0.0290374755859375,-0.0771942138671875,1.7832489013671875
1740007293458212400,6.63221240234375,0.052001953125,-0.1138153076171875,1.81549072265625
1740007293468194600,6.642194580078125,0.1195220947265625,-0.1241302490234375,1.8464202880859375
1740007293478176500,6.652176513671875,0.1531829833984375,-0.1069183349609375,1.870361328125
1740007293488158500,6.662158447265625,0.1626434326171875,-0.08465576171875,1.890167236328125
1740007293498140700,6.672140625,0.1656951904296875,-0.078277587890625,1.9171600341796875
1740007293508123400,6.682123291015625,0.15557861328125,-0.0656585693359375,1.9358673095703125
1740007293518105600,6.692105712890625,0.13360595703125,-0.055999755859375,1.925750732421875
1740007293528087300,6.70208740234375,0.1133880615234375,-0.0633697509765625,1.865875244140625
1740007293538069500,6.712069580078125,0.0850677490234375,-0.065887451171875,1.7747344970703125
1740007293548051700,6.7220517578125,0.044403076171875,-0.0791015625,1.6634368896484375
1740007293558033400,6.732033447265625,0.0113677978515625,-0.116668701171875,1.54071044921875
1740007293568015600,6.742015625,-0.018463134765625,-0.165557861328125,1.4113311767578125
1740007293577997600,6.75199755859375,-0.042633056640625,-0.1982421875,1.323944091796875
1740007293587979500,6.7619794921875,-0.058013916015625,-0.188812255859375,1.3021087646484375
1740007293597961500,6.77196142578125,-0.0719146728515625,-0.1371002197265625,1.3368682861328125
1740007293607943400,6.781943359375,-0.096282958984375,-0.0655670166015625,1.3906402587890625
1740007293617925400,6.79192529296875,-0.1365203857421875,0.0080108642578125,1.4462890625
1740007293627907600,6.801907470703125,-0.19256591796875,0.0875244140625,1.5191497802734375
1740007293637890600,6.811890625,-0.2490997314453125,0.2009429931640625,1.5961761474609375
1740007293647872500,6.82187255859375,-0.3378753662109375,0.3396759033203125,1.721221923828125
1740007293657854500,6.8318544921875,-0.31500244140625,0.44732666015625,1.800811767578125
1740007293667836400,6.84183642578125,-0.302978515625,0.54766845703125,1.8426361083984375
1740007293677818600,6.851818603515625,-0.2919464111328125,0.641571044921875,1.804046630859375
1740007293687800300,6.86180029296875,-0.2334136962890625,0.690948486328125,1.699920654296875
1740007293697782500,6.871782470703125,-0.1566162109375,0.691253662109375,1.5478363037109375
1740007293707764500,6.881764404296875,-0.0786285400390625,0.667999267578125,1.4077911376953125
1740007293717746400,6.891746337890625,0.03399658203125,0.6316070556640625,1.2923583984375
1740007293727728600,6.901728759765625,0.1445159912109375,0.5806427001953125,1.17919921875
1740007293737710600,6.911710693359375,0.214202880859375,0.5236053466796875,1.078338623046875
1740007293747692500,6.921692626953125,0.20001220703125,0.4760894775390625,1.0337677001953125
1740007293757674500,6.931674560546875,0.199188232421875,0.42059326171875,1.02978515625
1740007293767657500,6.941657470703125,0.2015380859375,0.3852691650390625,1.0517425537109375
1740007293777639400,6.951639404296875,0.1906280517578125,0.3617401123046875,1.090484619140625
1740007293787621400,6.961621337890625,0.153289794921875,0.351470947265625,1.1355438232421875
1740007293797603600,6.971603515625,0.1185760498046875,0.370208740234375,1.1727447509765625
1740007293807585500,6.98158544921875,0.0723876953125,0.398284912109375,1.18170166015625
1740007293817567500,6.9915673828125,0.0347900390625,0.4095916748046875,1.1618194580078125
1740007293827549400,7.001549560546875,0.0127105712890625,0.414215087890625,1.12841796875
1740007293837531600,7.01153173828125,-0.014862060546875,0.4361724853515625,1.1122894287109375
1740007293847513300,7.021513427734375,-0.041259765625,0.4778900146484375,1.118072509765625
1740007293857495600,7.03149560546875,-0.06365966796875,0.5275115966796875,1.132598876953125
1740007293867477500,7.0414775390625,-0.0768890380859375,0.574920654296875,1.14678955078125
1740007293877459500,7.05145947265625,-0.071258544921875,0.6345672607421875,1.1587066650390625
1740007293887442700,7.061442626953125,-0.0673675537109375,0.697601318359375,1.15826416015625
1740007293897424400,7.07142431640625,-0.0645294189453125,0.745025634765625,1.143646240234375
1740007293907406600,7.081406494140625,-0.0659027099609375,0.7645111083984375,1.1075439453125
1740007293917388500,7.091388427734375,-0.0648345947265625,0.763580322265625,1.074798583984375
1740007293927370500,7.10137060546875,-0.0769500732421875,0.760040283203125,1.060546875
1740007293937352400,7.1113525390625,-0.102264404296875,0.7616729736328125,1.0691986083984375
1740007293947334400,7.12133447265625,-0.131011962890625,0.7572784423828125,1.08489990234375
1740007293957316400,7.13131640625,-0.14215087890625,0.7641143798828125,1.10614013671875
1740007293967298600,7.141298583984375,-0.150848388671875,0.769683837890625,1.1199188232421875
1740007293977280300,7.1512802734375,-0.1628265380859375,0.7701263427734375,1.116180419921875
1740007293987262500,7.161262451171875,-0.1737518310546875,0.77288818359375,1.1010589599609375
1740007293997244700,7.17124462890625,-0.1922760009765625,0.77130126953125,1.0611572265625
1740007294007227400,7.181227294921875,-0.20068359375,0.77874755859375,1.018463134765625
1740007294017209600,7.191209716796875,-0.19189453125,0.7978973388671875,0.97161865234375
1740007294027191300,7.20119140625,-0.1663360595703125,0.8089752197265625,0.9051666259765625
1740007294037173500,7.211173583984375,-0.1300506591796875,0.801239013671875,0.818359375
1740007294047155500,7.221155517578125,-0.0897216796875,0.7805023193359375,0.7368316650390625
1740007294057137400,7.231137451171875,-0.046112060546875,0.7687835693359375,0.6822509765625
1740007294067119600,7.24111962890625,0.0037994384765625,0.7530975341796875,0.6447601318359375
1740007294077101600,7.2511015625,0.051788330078125,0.730194091796875,0.606964111328125
1740007294087083500,7.26108349609375,0.1005401611328125,0.7063751220703125,0.573455810546875
1740007294097065500,7.2710654296875,0.15216064453125,0.6920928955078125,0.5652923583984375
1740007294107047700,7.281047607421875,0.2066802978515625,0.6945953369140625,0.5792999267578125
1740007294117029400,7.291029296875,0.2628021240234375,0.7115631103515625,0.6014404296875
1740007294127011600,7.301011474609375,0.3130340576171875,0.737945556640625,0.6442108154296875
1740007294136994600,7.31099462890625,0.355072021484375,0.7677154541015625,0.712371826171875
1740007294146976500,7.3209765625,0.3789215087890625,0.7855987548828125,0.820892333984375
1740007294156958500,7.33095849609375,0.3713531494140625,0.792144775390625,0.955078125
1740007294166940400,7.3409404296875,0.3316802978515625,0.7857208251953125,1.1094512939453125
1740007294176922600,7.350922607421875,0.272735595703125,0.7663116455078125,1.261962890625
1740007294186904300,7.360904296875,0.2015838623046875,0.73870849609375,1.399444580078125
1740007294196886500,7.370886474609375,0.1419677734375,0.6994476318359375,1.5346221923828125
1740007294206868500,7.380868408203125,0.0771636962890625,0.637939453125,1.6625213623046875
1740007294216850400,7.390850341796875,0.0136260986328125,0.5755767822265625,1.7606353759765625
1740007294226832400,7.400832275390625,-0.0328826904296875,0.5285491943359375,1.828033447265625
1740007294236814600,7.410814697265625,-0.058319091796875,0.492706298828125,1.82977294921875
1740007294246797000,7.420797119140625,-0.0886383056640625,0.4513397216796875,1.7724151611328125
1740007294256779000,7.430779052734375,-0.1032257080078125,0.4061279296875,1.7024993896484375
1740007294266762000,7.440761962890625,-0.131103515625,0.3468780517578125,1.63775634765625
1740007294276744000,7.450743896484375,-0.1817169189453125,0.295196533203125,1.5588531494140625
1740007294286726000,7.460725830078125,-0.22821044921875,0.2652130126953125,1.4604949951171875
1740007294296708000,7.4707080078125,-0.25897216796875,0.238525390625,1.373870849609375
1740007294306690000,7.48068994140625,-0.2603607177734375,0.20928955078125,1.3001861572265625
1740007294316672000,7.490672119140625,-0.24249267578125,0.17913818359375,1.2514190673828125
1740007294326654000,7.500654052734375,-0.2144012451171875,0.152130126953125,1.249908447265625
1740007294336636200,7.51063623046875,-0.182037353515625,0.12591552734375,1.260528564453125
1740007294346617900,7.520617919921875,-0.1441650390625,0.1035308837890625,1.2813873291015625
1740007294356600000,7.53060009765625,-0.1090240478515625,0.0849456787109375,1.303558349609375
1740007294366582000,7.54058203125,-0.0615081787109375,0.0550537109375,1.3221588134765625
1740007294376564000,7.55056396484375,-0.0494232177734375,0.03289794921875,1.3347320556640625
1740007294386547200,7.560547119140625,-0.001129150390625,0.0182342529296875,1.316650390625
1740007294396529000,7.57052880859375,0.0696868896484375,-0.00469970703125,1.2958526611328125
1740007294406511000,7.580510986328125,0.1061553955078125,-0.0042877197265625,1.3165130615234375
1740007294416493000,7.5904931640625,0.1603240966796875,0.0198822021484375,1.3665771484375
1740007294426475000,7.60047509765625,0.1882171630859375,0.048583984375,1.4227142333984375
1740007294436457000,7.61045703125,0.192779541015625,0.0771636962890625,1.47308349609375
1740007294446439000,7.62043896484375,0.198486328125,0.0996551513671875,1.5254364013671875
1740007294456420900,7.6304208984375,0.2213592529296875,0.1163787841796875,1.5586700439453125
1740007294466403000,7.640403076171875,0.26397705078125,0.12139892578125,1.5648040771484375
1740007294476384800,7.650384765625,0.296630859375,0.09320068359375,1.5689849853515625
1740007294486367000,7.660366943359375,0.3248291015625,0.0528411865234375,1.5166473388671875
1740007294496349200,7.67034912109375,0.330352783203125,0.0041046142578125,1.46881103515625
1740007294506332000,7.680331787109375,0.306610107421875,-0.025177001953125,1.4976959228515625
1740007294516314000,7.690314208984375,0.2919158935546875,-0.0150604248046875,1.5935821533203125
1740007294526295800,7.7002958984375,0.2733154296875,0.0263519287109375,1.7130584716796875
1740007294536278000,7.710278076171875,0.2275238037109375,0.0496673583984375,1.81072998046875
1740007294546260000,7.720260009765625,0.16693115234375,0.0246124267578125,1.85394287109375
1740007294556242000,7.730241943359375,0.109893798828125,-0.0170135498046875,1.8506011962890625
1740007294566224100,7.74022412109375,0.0503082275390625,-0.063751220703125,1.8201904296875
1740007294576206000,7.7502060546875,-0.000274658203125,-0.1000823974609375,1.777191162109375
1740007294586188000,7.76018798828125,-0.0436859130859375,-0.1324920654296875,1.709381103515625
1740007294596170000,7.770169921875,-0.08367919921875,-0.147796630859375,1.662567138671875
1740007294606152000,7.78015185546875,-0.1011962890625,-0.1246337890625,1.6452484130859375
1740007294616134000,7.7901337890625,-0.0920867919921875,-0.063690185546875,1.6379547119140625
1740007294626116000,7.8001162109375,-0.0765838623046875,0.0189971923828125,1.63726806640625
1740007294636099000,7.81009912109375,-0.0722808837890625,0.1050567626953125,1.641448974609375
1740007294646081000,7.8200810546875,-0.06805419921875,0.1912078857421875,1.6626129150390625
1740007294656063000,7.83006298828125,-0.066497802734375,0.2948760986328125,1.7325897216796875
1740007294666045000,7.840044921875,-0.0678253173828125,0.4207763671875,1.8389434814453125
1740007294676027100,7.850027099609375,-0.0659027099609375,0.537078857421875,1.9352874755859375
1740007294686008800,7.8600087890625,-0.05029296875,0.6358795166015625,1.991058349609375
1740007294695991000,7.869990966796875,-0.026458740234375,0.7064208984375,1.98345947265625
1740007294705973000,7.879972900390625,-0.006988525390625,0.7403717041015625,1.9092864990234375
1740007294715955000,7.889954833984375,0.0154876708984375,0.7385101318359375,1.78082275390625
1740007294725938200,7.899938232421875,0.021270751953125,0.7061614990234375,1.6328887939453125
1740007294735919900,7.909919921875,0.0660552978515625,0.6837310791015625,1.49273681640625
1740007294745902000,7.919902099609375,0.0583038330078125,0.665557861328125,1.3361663818359375
1740007294755884000,7.929884033203125,0.0825653076171875,0.6083221435546875,1.2412109375
1740007294765866000,7.939865966796875,0.112335205078125,0.5995941162109375,1.1864471435546875
1740007294775848000,7.949847900390625,0.0245513916015625,0.5946197509765625,1.1319427490234375
1740007294785830100,7.959830078125,-0.0183563232421875,0.5559539794921875,1.104095458984375
1740007294795811800,7.969811767578125,-0.0625457763671875,0.518280029296875,1.10528564453125
1740007294805794000,7.9797939453125,-0.08660888671875,0.5038909912109375,1.1015625
1740007294815775700,7.989775634765625,-0.0911865234375,0.50811767578125,1.1021270751953125
1740007294825758000,7.999758056640625,-0.102264404296875,0.5162811279296875,1.090576171875
1740007294835740200,8.009740234375,-0.10906982421875,0.519927978515625,1.0695343017578125
1740007294845723000,8.019722900390626,-0.1048583984375,0.534210205078125,1.052459716796875
1740007294855705000,8.029705078125,-0.0967559814453125,0.5527191162109375,1.0379791259765625
1740007294865686800,8.039686767578125,-0.0946044921875,0.5677490234375,1.011474609375
1740007294875669000,8.0496689453125,-0.0908966064453125,0.58428955078125,0.9799652099609375
1740007294885651000,8.05965087890625,-0.088653564453125,0.598968505859375,0.948822021484375
1740007294895633000,8.0696328125,-0.074188232421875,0.616912841796875,0.927215576171875
1740007294905615000,8.079614990234376,-0.052886962890625,0.6439056396484375,0.9036712646484375
1740007294915597000,8.08959716796875,-0.0363006591796875,0.664398193359375,0.884033203125
1740007294925579000,8.0995791015625,-0.028106689453125,0.660186767578125,0.8553314208984375
1740007294935561000,8.10956103515625,-0.0154876708984375,0.6385040283203125,0.821929931640625
1740007294945543200,8.119543212890624,-0.002960205078125,0.6142425537109375,0.79833984375
1740007294955524900,8.12952490234375,0.000457763671875,0.597198486328125,0.7948455810546875
1740007294965508000,8.139508056640626,0.0041656494140625,0.5937652587890625,0.8064422607421875
1740007294975490000,8.149489990234375,0.0113525390625,0.6015625,0.8301849365234375
1740007294985472000,8.159471923828125,0.0211334228515625,0.61328125,0.8667144775390625
1740007294995454000,8.169453857421875,0.0284881591796875,0.6321258544921875,0.90863037109375
1740007295005436000,8.179435791015624,0.02587890625,0.6548919677734375,0.9303131103515625
1740007295015418000,8.189418212890626,0.015869140625,0.66632080078125,0.9334259033203125
1740007295025399800,8.19939990234375,0.002349853515625,0.689178466796875,0.9257049560546875
1740007295035382000,8.209382080078125,-0.0062408447265625,0.7251739501953125,0.9202728271484375
1740007295045364000,8.219364013671875,-0.0127105712890625,0.7601165771484375,0.8980712890625
1740007295055346000,8.229345947265625,-0.0133819580078125,0.7754669189453125,0.83148193359375
1740007295065327900,8.239327880859374,-0.0139617919921875,0.7702178955078125,0.74346923828125
1740007295075310000,8.24931005859375,-0.0191192626953125,0.7519989013671875,0.65264892578125
1740007295085293000,8.25929296875,-0.01959228515625,0.7151641845703125,0.5585174560546875
1740007295095274000,8.26927392578125,-0.0094146728515625,0.6520538330078125,0.4772796630859375
1740007295105256200,8.279256103515625,0.0226898193359375,0.5835113525390625,0.427001953125
1740007295115239000,8.289239013671875,0.105224609375,0.5271148681640625,0.405670166015625
1740007295125221000,8.29922119140625,0.2142181396484375,0.4872894287109375,0.407470703125
1740007295135202800,8.309202880859376,0.334564208984375,0.5001068115234375,0.4830322265625
1740007295145185000,8.31918505859375,0.4305419921875,0.5739288330078125,0.6320648193359375
1740007295155167000,8.3291669921875,0.4577789306640625,0.6760711669921875,0.8228607177734375
1740007295165149000,8.33914892578125,0.421875,0.7720184326171875,0.999267578125
1740007295175131100,8.349131103515624,0.36370849609375,0.8397979736328125,1.156097412109375
1740007295185112800,8.35911279296875,0.2819671630859375,0.87701416015625,1.3243255615234375
1740007295195095000,8.369094970703125,0.167816162109375,0.9007110595703125,1.49298095703125
1740007295205077000,8.379076904296875,0.0214691162109375,0.877288818359375,1.6307525634765625
1740007295215059000,8.389058837890625,-0.1034088134765625,0.82916259765625,1.702484130859375
1740007295225041000,8.399041015625,-0.1955413818359375,0.784515380859375,1.7038421630859375
1740007295235024000,8.40902392578125,-0.27947998046875,0.74072265625,1.664794921875
1740007295245006000,8.419006103515626,-0.33416748046875,0.6877288818359375,1.60174560546875
1740007295254988000,8.428988037109375,-0.347076416015625,0.6309051513671875,1.5269775390625
1740007295264970000,8.438969970703125,-0.3328857421875,0.5646514892578125,1.451873779296875
1740007295274952000,8.448951904296875,-0.301025390625,0.5037078857421875,1.3854827880859375
1740007295284934100,8.45893408203125,-0.2462310791015625,0.4604034423828125,1.317413330078125
1740007295294915800,8.468915771484374,-0.19378662109375,0.4179229736328125,1.2626953125
1740007295304898000,8.47889794921875,-0.1674346923828125,0.3782806396484375,1.2199859619140625
1740007295314880000,8.4888798828125,-0.1651458740234375,0.3372650146484375,1.1865234375
1740007295324862000,8.498862060546875,-0.1945648193359375,0.29180908203125,1.1776275634765625
1740007295334844000,8.508843994140625,-0.22979736328125,0.20367431640625,1.1882476806640625
1740007295344827000,8.518826904296875,-0.227691650390625,0.250457763671875,1.272674560546875
1740007295354809000,8.52880908203125,-0.2480010986328125,0.1943817138671875,1.294952392578125
1740007295364791000,8.538791015625,-0.2585906982421875,0.137481689453125,1.280914306640625
1740007295374773000,8.54877294921875,-0.2412109375,0.123260498046875,1.2880859375
1740007295384755000,8.5587548828125,-0.207977294921875,0.1292724609375,1.300506591796875
1740007295394737000,8.56873681640625,-0.165435791015625,0.1349029541015625,1.30224609375
1740007295404718800,8.57871875,-0.1004638671875,0.115081787109375,1.2933349609375
1740007295414701000,8.588701171875,-0.0264739990234375,0.10821533203125,1.2890167236328125
1740007295424683000,8.59868310546875,0.0499725341796875,0.143951416015625,1.312774658203125
1740007295434665000,8.6086650390625,0.1144256591796875,0.15960693359375,1.32965087890625
1740007295444647200,8.618647216796875,0.152313232421875,0.1641693115234375,1.3224945068359375
1740007295454628900,8.62862890625,0.15869140625,0.144256591796875,1.297882080078125
1740007295464612000,8.638612060546874,0.172760009765625,0.1299896240234375,1.2660369873046875
1740007295474593800,8.64859375,0.1701812744140625,0.1409149169921875,1.27886962890625
1740007295484576000,8.658575927734375,0.16021728515625,0.142242431640625,1.2930908203125
1740007295494558200,8.66855810546875,0.17041015625,0.1363067626953125,1.32318115234375
1740007295504540000,8.678539794921875,0.183807373046875,0.1173553466796875,1.3668975830078125
1740007295514522000,8.688522216796875,0.1644439697265625,0.104766845703125,1.4266204833984375
1740007295524504000,8.698504150390624,0.1174163818359375,0.1114044189453125,1.484710693359375
1740007295534486000,8.708486083984376,0.060546875,0.155792236328125,1.5567779541015625
1740007295544468000,8.718468017578125,-0.00439453125,0.23980712890625,1.671112060546875
1740007295554450000,8.728449951171875,-0.0703277587890625,0.33270263671875,1.819091796875
1740007295564432000,8.738431884765625,-0.155792236328125,0.3632354736328125,1.9974822998046875
1740007295574414800,8.748414794921874,-0.2693939208984375,0.2952423095703125,2.133941650390625
1740007295584397000,8.75839697265625,-0.364349365234375,0.1775665283203125,2.149322509765625
1740007295594379000,8.76837890625,-0.434600830078125,0.04364013671875,2.0861358642578125
1740007295604361000,8.77836083984375,-0.457183837890625,-0.0628509521484375,1.996063232421875
1740007295614343000,8.788343017578125,-0.42242431640625,-0.1002655029296875,1.9360198974609375
1740007295624325000,8.7983251953125,-0.3641510009765625,-0.0471343994140625,1.9129180908203125
1740007295634306800,8.808306884765624,-0.2864837646484375,0.061920166015625,1.8997955322265625
1740007295644289000,8.8182890625,-0.2164764404296875,0.197723388671875,1.8710174560546875
1740007295654271000,8.82827099609375,-0.1661376953125,0.3267974853515625,1.83526611328125
1740007295664253000,8.8382529296875,-0.13262939453125,0.4394989013671875,1.8114471435546875
1740007295674235100,8.848235107421875,-0.0988311767578125,0.549407958984375,1.80535888671875
1740007295684217000,8.858217041015624,-0.0567474365234375,0.6667938232421875,1.798614501953125
1740007295694200000,8.868199951171874,-0.0159912109375,0.7635955810546875,1.7675933837890625
1740007295704182000,8.87818212890625,0.01226806640625,0.8255157470703125,1.6904449462890625
1740007295714164000,8.8881640625,0.0298004150390625,0.847747802734375,1.573577880859375
1740007295724146000,8.89814599609375,0.0333709716796875,0.834320068359375,1.437835693359375
1740007295734127900,8.9081279296875,0.0289764404296875,0.7949066162109375,1.298309326171875
1740007295744110000,8.918110107421874,0.01910400390625,0.736175537109375,1.170257568359375
1740007295754092000,8.928092041015624,0.0239105224609375,0.67694091796875,1.065399169921875
1740007295764074000,8.938073974609376,0.0285797119140625,0.6424102783203125,1.0032196044921875
1740007295774056000,8.948055908203125,0.02294921875,0.620086669921875,0.989898681640625
1740007295784038100,8.9580380859375,0.0393218994140625,0.6010589599609375,0.9809417724609375
1740007295794019800,8.968019775390625,0.060272216796875,0.5887603759765625,0.9835357666015625
1740007295804003000,8.978003173828125,0.0667572021484375,0.564239501953125,0.982452392578125
1740007295813985000,8.987985107421874,0.072723388671875,0.528656005859375,0.9750823974609375
1740007295823967000,8.997967041015626,0.0838165283203125,0.5139312744140625,0.9687957763671875
1740007295833949200,9.00794921875,0.1005859375,0.522918701171875,0.9777069091796875
1740007295843931000,9.017930908203125,0.1023712158203125,0.528717041015625,0.9963226318359375
1740007295853913000,9.0279130859375,0.0837249755859375,0.5251922607421875,0.998687744140625
1740007295863895000,9.03789501953125,0.0606842041015625,0.541534423828125,0.976837158203125
1740007295873877000,9.047876953125,0.0413665771484375,0.57666015625,0.963775634765625
1740007295883859000,9.05785888671875,0.0321807861328125,0.6098480224609375,0.963409423828125
1740007295893841200,9.067841064453125,0.021148681640625,0.639434814453125,0.959930419921875
1740007295903822800,9.07782275390625,0.01123046875,0.6536865234375,0.9460296630859375
1740007295913805000,9.08780517578125,0.0270843505859375,0.679351806640625,0.9320068359375
1740007295923788000,9.0977880859375,0.029052734375,0.7206573486328125,0.940032958984375
1740007295933770000,9.10777001953125,0.0157012939453125,0.729583740234375,0.9309844970703125
1740007295943752000,9.117751953125,0.0187835693359375,0.7169952392578125,0.9090728759765625
1740007295953734000,9.12773388671875,0.0332183837890625,0.723052978515625,0.916748046875
1740007295963716000,9.137716064453125,0.0488128662109375,0.7547454833984375,0.948577880859375
1740007295973697800,9.14769775390625,0.06524658203125,0.7793121337890625,0.978424072265625
1740007295983680000,9.157679931640626,0.0668487548828125,0.79266357421875,1.00469970703125
1740007295993662000,9.167661865234376,0.06317138671875,0.8026885986328125,1.024749755859375
1740007296003644000,9.177643798828125,0.0592498779296875,0.8168487548828125,1.042022705078125
1740007296013626000,9.187626220703125,0.06109619140625,0.808135986328125,1.03594970703125
1740007296023608000,9.197608154296875,0.0436553955078125,0.781158447265625,1.0206298828125
1740007296033590000,9.207590087890624,0.0356292724609375,0.7652587890625,1.0187835693359375
1740007296043573000,9.217572998046874,0.0518035888671875,0.7823638916015625,1.040802001953125
1740007296053555000,9.227554931640626,0.0746002197265625,0.80340576171875,1.0314788818359375
1740007296063537000,9.237536865234375,0.09857177734375,0.81304931640625,0.9662628173828125
1740007296073519000,9.24751904296875,0.11468505859375,0.7970733642578125,0.86669921875
1740007296083501000,9.2575009765625,0.1246490478515625,0.774810791015625,0.7610626220703125
1740007296093483000,9.26748291015625,0.123565673828125,0.7468414306640625,0.644073486328125
1740007296103465000,9.27746484375,0.1077728271484375,0.7092437744140625,0.5341796875
1740007296113447000,9.287447021484375,0.0773773193359375,0.67144775390625,0.4556884765625
1740007296123429000,9.29742919921875,0.0377197265625,0.641632080078125,0.44970703125
1740007296133410800,9.307410888671875,0.0069580078125,0.619720458984375,0.5047607421875
1740007296143393000,9.31739306640625,-0.0037689208984375,0.615631103515625,0.6282501220703125
1740007296153376000,9.3273759765625,-0.0003509521484375,0.6297760009765625,0.7943115234375
1740007296163358000,9.33735791015625,0.011688232421875,0.6509246826171875,0.960296630859375
1740007296173340200,9.347340087890625,0.0321044921875,0.67108154296875,1.0941925048828125
1740007296183321900,9.35732177734375,0.0511322021484375,0.6883087158203125,1.1769256591796875
1740007296193304000,9.367303955078125,0.0632476806640625,0.689727783203125,1.22650146484375
1740007296203286000,9.3772861328125,0.063446044921875,0.663116455078125,1.262481689453125
1740007296213268000,9.38726806640625,0.069610595703125,0.6179962158203125,1.2761077880859375
1740007296223250000,9.39725,0.0764617919921875,0.581085205078125,1.269500732421875
1740007296233232100,9.407232177734375,0.066619873046875,0.54437255859375,1.264434814453125
1740007296243213800,9.4172138671875,0.052581787109375,0.5007476806640625,1.268768310546875
1740007296253195800,9.42719580078125,0.047698974609375,0.4625396728515625,1.266571044921875
1740007296263178500,9.437178466796874,0.0485992431640625,0.4344940185546875,1.2533111572265625
1740007296273160700,9.44716064453125,0.0480499267578125,0.4074554443359375,1.2198638916015625
1740007296283142700,9.457142578125,0.037994384765625,0.377532958984375,1.162750244140625
1740007296293124600,9.46712451171875,0.0203094482421875,0.3461151123046875,1.1125640869140625
1740007296303106600,9.4771064453125,-0.000335693359375,0.3112335205078125,1.11224365234375
1740007296313088800,9.4870888671875,-0.0235137939453125,0.273681640625,1.1231689453125
1740007296323070700,9.49707080078125,-0.041046142578125,0.233917236328125,1.124725341796875
1740007296333052700,9.507052734375,-0.0434722900390625,0.200286865234375,1.1308746337890625
1740007296343034600,9.51703466796875,-0.0351715087890625,0.177337646484375,1.16363525390625
1740007296353016600,9.5270166015625,-0.01800537109375,0.1546173095703125,1.19146728515625
1740007296362998800,9.536998779296875,-0.0054473876953125,0.129669189453125,1.2136383056640625
1740007296372981500,9.5469814453125,0.0149688720703125,0.1185150146484375,1.2338714599609375
1740007296382963700,9.556963623046874,0.0388946533203125,0.1304473876953125,1.258453369140625
1740007296392945700,9.566945556640626,0.0556488037109375,0.142425537109375,1.2767181396484375
1740007296402927600,9.576927734375,0.0740203857421875,0.1392669677734375,1.2778778076171875
1740007296412909800,9.586909912109375,0.089447021484375,0.129302978515625,1.2740020751953125
1740007296422891500,9.5968916015625,0.10906982421875,0.106842041015625,1.268096923828125
1740007296432873700,9.606873779296874,0.165802001953125,0.0844573974609375,1.294189453125
1740007296442855700,9.616855712890626,0.11981201171875,0.1027374267578125,1.3354034423828125
1740007296452837600,9.626837646484375,0.1739959716796875,0.075531005859375,1.357757568359375
1740007296462819600,9.636819580078125,0.1890869140625,0.075836181640625,1.45074462890625
1740007296472801800,9.6468017578125,0.212677001953125,0.077178955078125,1.5347442626953125
1740007296482783500,9.656783447265624,0.2437896728515625,0.0842132568359375,1.605438232421875
1740007296492766700,9.6667666015625,0.2208251953125,0.083251953125,1.6688690185546875
1740007296502748700,9.676748779296876,0.21649169921875,0.0603790283203125,1.7054290771484375
1740007296512730600,9.686730712890625,0.2261199951171875,0.034454345703125,1.6984710693359375
1740007296522712800,9.696712890625,0.2131805419921875,0.0090484619140625,1.6859588623046875
1740007296532694500,9.706694580078125,0.1881103515625,-0.001708984375,1.7031707763671875
1740007296542676700,9.7166767578125,0.16754150390625,0.013153076171875,1.766937255859375
1740007296552658400,9.726658447265624,0.168182373046875,0.0582275390625,1.860443115234375
1740007296562640600,9.736640625,0.17266845703125,0.0952911376953125,1.924530029296875
1740007296572622800,9.746622802734375,0.153656005859375,0.095428466796875,1.946563720703125
1740007296582604500,9.7566044921875,0.128692626953125,0.057373046875,1.9362945556640625
1740007296592586800,9.766586669921875,0.1274566650390625,-0.0005340576171875,1.8954925537109375
1740007296602569500,9.776569580078124,0.12408447265625,-0.101776123046875,1.79217529296875
1740007296612551700,9.7865517578125,0.132354736328125,-0.2043609619140625,1.66015625
1740007296622533600,9.79653369140625,0.13189697265625,-0.2533721923828125,1.5744171142578125
1740007296632515600,9.806515625,0.1337738037109375,-0.2375335693359375,1.5572967529296875
1740007296642497500,9.81649755859375,0.12451171875,-0.16375732421875,1.5765380859375
1740007296652479700,9.826479736328125,0.09979248046875,-0.05389404296875,1.627288818359375
1740007296662461700,9.836461669921874,0.0543060302734375,0.0578155517578125,1.6944427490234375
1740007296672443600,9.846443603515626,-0.00286865234375,0.165008544921875,1.7638397216796875
1740007296682425900,9.85642578125,-0.0319671630859375,0.272369384765625,1.807373046875
1740007296692407600,9.866407470703125,-0.0420989990234375,0.391510009765625,1.8196563720703125
1740007296702389800,9.8763896484375,-0.046417236328125,0.5100250244140625,1.791168212890625
1740007296712372500,9.88637255859375,-0.0493927001953125,0.5985565185546875,1.7089080810546875
1740007296722354700,9.896354736328124,-0.035186767578125,0.6407012939453125,1.5762939453125
1740007296732336600,9.906336669921876,-0.0243072509765625,0.6461181640625,1.4217376708984375
1740007296742318600,9.916318603515625,-0.0186309814453125,0.633209228515625,1.313873291015625
1740007296752300800,9.92630078125,0.02593994140625,0.6141510009765625,1.24560546875
1740007296762282500,9.936282470703125,0.0114898681640625,0.5702972412109375,1.1804351806640625
1740007296772264700,9.9462646484375,-0.000518798828125,0.5359039306640625,1.1582183837890625
1740007296782246700,9.95624658203125,-0.0594482421875,0.5479583740234375,1.175994873046875
1740007296792228600,9.966228515625,-0.108367919921875,0.5470733642578125,1.178436279296875
1740007296802210600,9.97621044921875,-0.100860595703125,0.5338287353515625,1.1505126953125
1740007296812192800,9.98619287109375,-0.0973968505859375,0.5218658447265625,1.135345458984375
1740007296822175700,9.99617578125,-0.0908050537109375,0.51324462890625,1.133636474609375
1740007296832157700,10.00615771484375,-0.0683441162109375,0.51324462890625,1.138336181640625
1740007296842139600,10.0161396484375,-0.035858154296875,0.5292816162109375,1.132415771484375
1740007296852121600,10.02612158203125,-0.018280029296875,0.5544891357421875,1.1348724365234375
1740007296862103800,10.036103759765625,-0.0256500244140625,0.5612945556640625,1.124176025390625
1740007296872085500,10.04608544921875,-0.038330078125,0.5678863525390625,1.0889892578125
1740007296882067700,10.056067626953125,-0.0445709228515625,0.5840606689453125,1.05487060546875
1740007296892049700,10.066049560546874,-0.054351806640625,0.5928497314453125,1.0345916748046875
1740007296902031600,10.076031494140626,-0.060791015625,0.6021728515625,1.0090179443359375
1740007296912013800,10.086013916015625,-0.054473876953125,0.614044189453125,0.9909820556640625
1740007296921995500,10.09599560546875,-0.04150390625,0.6357269287109375,0.9678192138671875
1740007296931978800,10.105978759765625,-0.0286865234375,0.6475830078125,0.93890380859375
1740007296941960400,10.11596044921875,-0.0162353515625,0.6570587158203125,0.9200439453125
1740007296951942700,10.125942626953124,-0.00384521484375,0.675048828125,0.9097137451171875
1740007296961924600,10.135924560546876,0.009979248046875,0.6911773681640625,0.9017486572265625
1740007296971906600,10.145906494140625,0.024566650390625,0.703460693359375,0.9049530029296875
1740007296981888800,10.155888671875,0.039642333984375,0.722930908203125,0.9092559814453125
1740007296991870700,10.16587060546875,0.0522308349609375,0.7438201904296875,0.911529541015625
1740007297001852700,10.175852783203124,0.0646209716796875,0.7551727294921875,0.9087371826171875
1740007297011834600,10.185834716796874,0.0675201416015625,0.75689697265625,0.9000396728515625
1740007297021816800,10.19581689453125,0.0648193359375,0.7482452392578125,0.88623046875
1740007297031798500,10.205798583984375,0.0588531494140625,0.74151611328125,0.887237548828125
1740007297041781800,10.21578173828125,0.048797607421875,0.74493408203125,0.90045166015625
1740007297051763700,10.225763671875,0.040771484375,0.7564544677734375,0.9072113037109375
1740007297061745700,10.23574560546875,0.03741455078125,0.7632293701171875,0.899169921875
1740007297071727900,10.245727783203124,0.041015625,0.7663116455078125,0.875762939453125
1740007297081709600,10.25570947265625,0.047119140625,0.75714111328125,0.833465576171875
1740007297091691800,10.26569189453125,0.04425048828125,0.74365234375,0.7862548828125
1740007297101673700,10.275673828125,0.0318603515625,0.71484375,0.724334716796875
1740007297111655700,10.28565576171875,0.0152130126953125,0.667999267578125,0.665985107421875
1740007297121637600,10.2956376953125,-0.00396728515625,0.61773681640625,0.6432647705078125
1740007297131619600,10.30561962890625,-0.01611328125,0.568634033203125,0.6457672119140625
1740007297141601500,10.3156015625,-0.0120849609375,0.5341796875,0.6971435546875
1740007297151584500,10.32558447265625,0.011474609375,0.511016845703125,0.815185546875
1740007297161566700,10.335566650390625,0.04302978515625,0.49749755859375,0.94696044921875
1740007297171548700,10.345548583984375,0.0892333984375,0.488189697265625,1.0818939208984375
1740007297181530600,10.355530517578124,0.1618194580078125,0.4850616455078125,1.2075042724609375
1740007297191512600,10.3655126953125,0.2540435791015625,0.49261474609375,1.2929840087890625
1740007297201494800,10.375494873046875,0.332000732421875,0.5050201416015625,1.3190155029296875
1740007297211476500,10.3854765625,0.3754730224609375,0.5061798095703125,1.2923736572265625
1740007297221458700,10.395458740234375,0.3810577392578125,0.4916534423828125,1.2393798828125
1740007297231440600,10.405440673828124,0.336761474609375,0.4678802490234375,1.184661865234375
1740007297241422600,10.415422607421876,0.2549896240234375,0.4425506591796875,1.153411865234375
1740007297251404800,10.42540478515625,0.1830596923828125,0.40704345703125,1.149200439453125
1740007297261387800,10.4353876953125,0.1424560546875,0.3572540283203125,1.1432342529296875
1740007297271370000,10.445369873046875,0.122802734375,0.299224853515625,1.1535797119140625
1740007297281351700,10.4553515625,0.1136016845703125,0.245819091796875,1.1607666015625
1740007297291334000,10.465333984375,0.088531494140625,0.20599365234375,1.1219940185546875
1740007297301315800,10.47531591796875,0.057342529296875,0.1727294921875,1.057525634765625
1740007297311297800,10.4852978515625,0.033203125,0.139617919921875,0.98712158203125
1740007297321279700,10.49527978515625,0.0267486572265625,0.1059112548828125,0.931610107421875
1740007297331262000,10.505261962890625,0.0476837158203125,0.0875396728515625,0.900390625
1740007297341244000,10.515243896484375,0.077728271484375,0.087158203125,0.903106689453125
1740007297351225900,10.525225830078124,0.10076904296875,0.0845489501953125,0.915771484375
1740007297361208000,10.5352080078125,0.1129913330078125,0.072662353515625,0.9327545166015625
1740007297371190800,10.545190673828126,0.102294921875,0.081268310546875,0.9676513671875
1740007297381173000,10.555173095703125,0.081878662109375,0.094879150390625,0.9788665771484375
1740007297391154700,10.56515478515625,0.03826904296875,0.1218719482421875,0.9936370849609375
1740007297401137000,10.575136962890625,-0.012664794921875,0.140380859375,0.9901123046875
1740007297411119000,10.585119140625,-0.0474090576171875,0.1454620361328125,0.9879608154296875
1740007297421100800,10.595100830078126,-0.088226318359375,0.14129638671875,1.0066375732421875
1740007297431083000,10.6050830078125,-0.10894775390625,0.2388153076171875,1.0981597900390625
1740007297441065000,10.61506494140625,-0.17816162109375,0.264923095703125,1.13916015625
1740007297451047000,10.625046875,-0.191741943359375,0.228240966796875,1.14990234375
1740007297461028900,10.63502880859375,-0.0948944091796875,0.21392822265625,1.1631622314453125
1740007297471011800,10.64501171875,0.0268707275390625,0.2170257568359375,1.235107421875
1740007297480993800,10.654993896484376,0.166107177734375,0.2274627685546875,1.388458251953125
1740007297490975700,10.664975830078125,0.3109893798828125,0.21929931640625,1.52301025390625
1740007297500958000,10.6749580078125,0.38262939453125,0.1774139404296875,1.5891265869140625
1740007297510940000,10.68493994140625,0.3978271484375,0.1313323974609375,1.6324005126953125
1740007297520921900,10.694921875,0.3866119384765625,0.096588134765625,1.6493988037109375
1740007297530903800,10.70490380859375,0.3353424072265625,0.066864013671875,1.668975830078125
1740007297540886000,10.714885986328126,0.27734375,0.02838134765625,1.7214202880859375
1740007297550867700,10.72486767578125,0.26318359375,0.0305023193359375,1.810455322265625
1740007297560850000,10.734849853515625,0.2584686279296875,0.0641632080078125,1.91168212890625
1740007297570832000,10.744831787109375,0.251922607421875,0.079193115234375,2.0059051513671875
1740007297580814800,10.75481494140625,0.229827880859375,0.059112548828125,2.0495452880859375
1740007297590797000,10.764797119140624,0.1989898681640625,0.013946533203125,2.02276611328125
1740007297600778800,10.77477880859375,0.165130615234375,-0.0530242919921875,1.943267822265625
1740007297610761000,10.784760986328125,0.1413116455078125,-0.1257781982421875,1.8504638671875
1740007297620743000,10.794742919921875,0.1311492919921875,-0.178558349609375,1.765625
1740007297630724900,10.804724853515625,0.1343994140625,-0.187713623046875,1.711883544921875
1740007297640706800,10.814706787109374,0.147216796875,-0.142486572265625,1.691070556640625
1740007297650688800,10.824688720703126,0.131134033203125,-0.0557708740234375,1.6807098388671875
1740007297660670700,10.834670654296875,0.1081390380859375,0.0399322509765625,1.6669464111328125
1740007297670653000,10.84465283203125,0.07470703125,0.137664794921875,1.6476898193359375
1740007297680635000,10.854634765625,0.0377044677734375,0.2282867431640625,1.63043212890625
1740007297690617900,10.864617919921875,-0.0050506591796875,0.3120880126953125,1.617767333984375
1740007297700599800,10.874599853515624,-0.0467987060546875,0.3919677734375,1.59759521484375
1740007297710581800,10.884581787109376,-0.0749664306640625,0.45904541015625,1.57470703125
1740007297720564000,10.89456396484375,-0.091522216796875,0.5158538818359375,1.53582763671875
1740007297730545700,10.904545654296875,-0.1015777587890625,0.548553466796875,1.4669189453125
1740007297740527900,10.91452783203125,-0.0966644287109375,0.56182861328125,1.3758087158203125
1740007297750510000,10.924510009765624,-0.07965087890625,0.55645751953125,1.278289794921875
1740007297760491800,10.93449169921875,-0.0583953857421875,0.5377349853515625,1.1889495849609375
1740007297770474000,10.944473876953126,-0.0832672119140625,0.5132293701171875,1.1357421875
1740007297780456000,10.9544560546875,-0.1264495849609375,0.4960174560546875,1.109893798828125
1740007297790439000,10.96443896484375,-0.1536712646484375,0.4801177978515625,1.0903472900390625
1740007297800420900,10.9744208984375,-0.1652374267578125,0.4627227783203125,1.0678558349609375
1740007297810402800,10.98440283203125,-0.1571807861328125,0.4445037841796875,1.05828857421875
1740007297820385000,10.994385009765624,-0.10821533203125,0.444000244140625,1.0594635009765625
1740007297830367000,11.004366943359376,-0.037994384765625,0.4503631591796875,1.0706634521484375
1740007297840349000,11.014348876953125,0.0169219970703125,0.4574432373046875,1.0848541259765625
1740007297850331000,11.024330810546875,0.0561065673828125,0.467926025390625,1.0928955078125
1740007297860312800,11.034312744140625,0.0832977294921875,0.4755401611328125,1.08367919921875
1740007297870294800,11.044294677734374,0.0956878662109375,0.482269287109375,1.0646209716796875
1740007297880277000,11.054277099609376,0.1032562255859375,0.48992919921875,1.0543365478515625
1740007297890258700,11.0642587890625,0.0998687744140625,0.5030975341796875,1.0525054931640625
1740007297900242000,11.074241943359375,0.0967559814453125,0.52197265625,1.0511627197265625
1740007297910224000,11.084223876953125,0.0919342041015625,0.5381011962890625,1.0364990234375
1740007297920205800,11.094205810546875,0.0855712890625,0.5477142333984375,1.0127410888671875
1740007297930188000,11.10418798828125,0.0827789306640625,0.5698089599609375,0.994384765625
1740007297940169700,11.114169677734376,0.076629638671875,0.595245361328125,0.977325439453125
1740007297950152000,11.12415185546875,0.07183837890625,0.614501953125,0.9485321044921875
1740007297960134000,11.1341337890625,0.07073974609375,0.628997802734375,0.9098358154296875
1740007297970115800,11.14411572265625,0.07464599609375,0.6363983154296875,0.86669921875
1740007297980097800,11.154097900390624,0.08233642578125,0.6492462158203125,0.8353271484375
1740007297990080000,11.164080078125,0.0890655517578125,0.6618804931640625,0.8057861328125
1740007298000063000,11.17406298828125,0.0964508056640625,0.6714324951171875,0.780120849609375
1740007298010045000,11.184044921875,0.105255126953125,0.6806793212890625,0.766387939453125
1740007298020027000,11.19402685546875,0.1132659912109375,0.6873321533203125,0.74639892578125
1740007298030008800,11.2040087890625,0.1194610595703125,0.6784210205078125,0.7234954833984375
1740007298039990800,11.21399072265625,0.1204071044921875,0.6643524169921875,0.7115936279296875
1740007298049972700,11.22397265625,0.1175079345703125,0.64788818359375,0.721099853515625
1740007298059955000,11.233954833984376,0.115203857421875,0.6561279296875,0.7786102294921875
1740007298069936600,11.2439365234375,0.1129913330078125,0.6821136474609375,0.8505706787109375
1740007298079918800,11.2539189453125,0.109527587890625,0.7014007568359375,0.8978271484375
1740007298089901000,11.263901123046875,0.112945556640625,0.701629638671875,0.9136199951171875
1740007298099883800,11.2738837890625,0.120208740234375,0.6719207763671875,0.86749267578125
1740007298109866000,11.283865966796874,0.1149749755859375,0.6190948486328125,0.7857818603515625
1740007298119847700,11.29384765625,0.1125640869140625,0.590301513671875,0.7219085693359375
1740007298129830000,11.303829833984375,0.104522705078125,0.5786590576171875,0.6746826171875
1740007298139811800,11.313811767578125,0.0711517333984375,0.5506744384765625,0.6257476806640625
1740007298149793800,11.323793701171875,0.0258331298828125,0.5118255615234375,0.5900115966796875
1740007298159776000,11.33377587890625,-0.018890380859375,0.4855804443359375,0.6037445068359375
1740007298169758000,11.343758056640626,-0.046417236328125,0.4881744384765625,0.665985107421875
1740007298179740000,11.353739990234375,-0.035888671875,0.5329132080078125,0.7735748291015625
1740007298189721900,11.363721923828125,0.005828857421875,0.5955810546875,0.8985443115234375
1740007298199703800,11.373703857421875,0.0384063720703125,0.64923095703125,1.0301361083984375
1740007298209686800,11.383686767578125,0.0660400390625,0.68878173828125,1.1590118408203125
1740007298219669000,11.3936689453125,0.0913543701171875,0.706695556640625,1.26708984375
1740007298229651000,11.40365087890625,0.1180877685546875,0.707183837890625,1.345855712890625
1740007298239633000,11.4136328125,0.13873291015625,0.671417236328125,1.3852996826171875
1740007298249614800,11.42361474609375,0.17333984375,0.5891265869140625,1.3821563720703125
1740007298259597000,11.43359716796875,0.240966796875,0.4944000244140625,1.3479461669921875
1740007298269579000,11.4435791015625,0.3294525146484375,0.419189453125,1.3064117431640625
1740007298279561000,11.45356103515625,0.401031494140625,0.369842529296875,1.262115478515625
1740007298289543000,11.46354296875,0.4291534423828125,0.3296051025390625,1.2254791259765625
1740007298299525000,11.473525146484375,0.41583251953125,0.29669189453125,1.203765869140625
1740007298309506800,11.4835068359375,0.3617401123046875,0.2694854736328125,1.2053070068359375
1740007298319490000,11.493489990234375,0.30853271484375,0.2394561767578125,1.2170867919921875
1740007298329472000,11.503471923828124,0.288665771484375,0.203399658203125,1.2035369873046875
1740007298339454000,11.513453857421876,0.2817230224609375,0.15869140625,1.174102783203125
1740007298349436200,11.523436279296876,0.273895263671875,0.1084747314453125,1.1063995361328125
1740007298359417900,11.53341796875,0.25836181640625,0.0852813720703125,1.035369873046875
1740007298369400000,11.543400146484375,0.2427215576171875,0.1012420654296875,0.98870849609375
1740007298379382000,11.553382080078125,0.2236175537109375,0.133392333984375,0.96795654296875
1740007298389364000,11.563364013671874,0.185394287109375,0.1619415283203125,0.95721435546875
1740007298399346000,11.573345947265626,0.122222900390625,0.1851806640625,0.95037841796875
1740007298409327900,11.583327880859375,0.058837890625,0.1980438232421875,0.9511566162109375
1740007298419311000,11.59331103515625,0.001800537109375,0.2144012451171875,0.968780517578125
1740007298429292800,11.603292724609375,-0.04315185546875,0.2425689697265625,1.0027618408203125
1740007298439275000,11.61327490234375,-0.0718841552734375,0.2743988037109375,1.0430450439453125
1740007298449257000,11.623257080078124,-0.0976409912109375,0.29071044921875,1.0943603515625
1740007298459239000,11.633239013671876,-0.1216278076171875,0.2987060546875,1.1547088623046875
1740007298469220900,11.643220947265625,-0.1234130859375,0.3037567138671875,1.2065582275390625
1740007298479203000,11.653203125,-0.1084442138671875,0.3209686279296875,1.255645751953125
1740007298489185000,11.66318505859375,-0.08416748046875,0.3528594970703125,1.3099212646484375
1740007298499167000,11.6731669921875,-0.063934326171875,0.3869781494140625,1.3688201904296875
1740007298509149200,11.683149169921874,-0.0537567138671875,0.4024810791015625,1.435302734375
1740007298519132000,11.6931318359375,-0.0563812255859375,0.3975372314453125,1.5259552001953125
1740007298529114000,11.703114013671875,-0.0679779052734375,0.3685302734375,1.625
1740007298539095800,11.713095703125,-0.06463623046875,0.31103515625,1.6725921630859375
1740007298549078000,11.723078125,-0.067474365234375,0.244415283203125,1.706085205078125
1740007298559060200,11.733060302734375,-0.0671234130859375,0.208984375,1.78173828125
1740007298569042000,11.7430419921875,-0.0652313232421875,0.2239990234375,1.8643646240234375
1740007298579024100,11.753024169921876,-0.0622100830078125,0.21893310546875,1.8878326416015625
1740007298589005800,11.763005859375,-0.0648956298828125,0.20623779296875,1.8560943603515625
1740007298598988000,11.772988037109375,-0.0930328369140625,0.155792236328125,1.7831268310546875
1740007298608970000,11.782969970703125,-0.1304168701171875,0.100677490234375,1.7073974609375
1740007298618953000,11.792952880859374,-0.16888427734375,0.0657196044921875,1.6387939453125
1740007298628935200,11.80293505859375,-0.2079010009765625,0.0202484130859375,1.5695953369140625
1740007298638916900,11.812916748046876,-0.2350311279296875,-0.0643157958984375,1.4903564453125
1740007298648899000,11.822899169921875,-0.24053955078125,-0.0982208251953125,1.4555511474609375
1740007298658881000,11.832881103515625,-0.2179718017578125,-0.0796051025390625,1.484466552734375
1740007298668863000,11.842863037109375,-0.176666259765625,-0.009796142578125,1.5287017822265625
1740007298678845000,11.852844970703124,-0.1351776123046875,0.0775299072265625,1.546783447265625
1740007298688827100,11.8628271484375,-0.1266632080078125,0.1513671875,1.536956787109375
1740007298698808800,11.872808837890625,-0.1225738525390625,0.2187957763671875,1.526214599609375
1740007298708791000,11.882791015625,-0.10919189453125,0.292083740234375,1.5333251953125
1740007298718773000,11.89277294921875,-0.1015777587890625,0.3642120361328125,1.5452117919921875
1740007298728756000,11.902755859375,-0.09783935546875,0.418182373046875,1.5458984375
1740007298738738200,11.91273828125,-0.0854644775390625,0.440826416015625,1.5212860107421875
1740007298748719900,11.922719970703126,-0.0756683349609375,0.4437408447265625,1.4763641357421875
1740007298758702000,11.9327021484375,-0.05267333984375,0.429962158203125,1.426483154296875
1740007298768684000,11.94268408203125,-0.028045654296875,0.4103851318359375,1.3897247314453125
1740007298778666000,11.952666015625,0.00250244140625,0.3998870849609375,1.35784912109375
1740007298788648000,11.96264794921875,0.0410308837890625,0.3907928466796875,1.345428466796875
1740007298798631000,11.972630859375,0.0735931396484375,0.3750457763671875,1.34417724609375
1740007298808613000,11.982613037109376,0.1113128662109375,0.360687255859375,1.3494873046875
1740007298818594800,11.9925947265625,0.1422576904296875,0.3604888916015625,1.353912353515625
1740007298828577000,12.002576904296875,0.15118408203125,0.360748291015625,1.34698486328125
1740007298838559000,12.01255908203125,0.1729736328125,0.3758697509765625,1.35308837890625
1740007298848541000,12.022541015625,0.2111358642578125,0.4068450927734375,1.3499755859375
1740007298858523000,12.03252294921875,0.2343292236328125,0.441497802734375,1.3211669921875
1740007298868505000,12.042505126953126,0.2405548095703125,0.4817962646484375,1.2777557373046875
1740007298878486800,12.05248681640625,0.2303009033203125,0.5250396728515625,1.2393798828125
1740007298888469000,12.062468994140625,0.215087890625,0.568450927734375,1.2145843505859375
1740007298898451200,12.072451171875,0.2165069580078125,0.606201171875,1.18878173828125
1740007298908434000,12.082433837890624,0.2232666015625,0.6178131103515625,1.13702392578125
1740007298918416100,12.092416015625,0.238494873046875,0.6143646240234375,1.0687713623046875
1740007298928397800,12.102397705078126,0.2645111083984375,0.609375,1.0212249755859375
1740007298938380000,12.112380126953125,0.2807769775390625,0.625457763671875,1.001007080078125
1740007298948362000,12.122362060546875,0.28314208984375,0.6556243896484375,0.974029541015625
1740007298958344000,12.132343994140625,0.29156494140625,0.67498779296875,0.8986968994140625
1740007298968326100,12.142326171875,0.2961273193359375,0.6702728271484375,0.7978515625
1740007298978307800,12.152307861328126,0.2760772705078125,0.6499481201171875,0.70220947265625
1740007298988290000,12.1622900390625,0.243255615234375,0.6231536865234375,0.625274658203125
1740007298998272000,12.17227197265625,0.22119140625,0.5950775146484375,0.5722198486328125
1740007299008255000,12.1822548828125,0.2123565673828125,0.5736541748046875,0.5318450927734375
1740007299018237000,12.19223681640625,0.2127685546875,0.5701751708984375,0.520294189453125
1740007299028219000,12.202218994140624,0.2073211669921875,0.5902252197265625,0.5261077880859375
1740007299038201000,12.212201171875,0.1856231689453125,0.6059112548828125,0.543548583984375
1740007299048183000,12.22218310546875,0.152191162109375,0.6180419921875,0.5702056884765625
1740007299058165000,12.2321650390625,0.1174774169921875,0.6350860595703125,0.6142425537109375
1740007299068147000,12.24214697265625,0.0851593017578125,0.6719512939453125,0.70404052734375
1740007299078129200,12.252129150390624,0.059295654296875,0.7257843017578125,0.8080902099609375
1740007299088110800,12.26211083984375,0.031280517578125,0.757720947265625,0.89263916015625
1740007299098093000,12.272093017578126,-0.005950927734375,0.740020751953125,0.940216064453125
1740007299108075000,12.282074951171875,-0.052398681640625,0.7003936767578125,0.96331787109375
1740007299118057000,12.292056884765625,-0.092681884765625,0.6716766357421875,1.0076141357421875
1740007299128039000,12.302038818359375,-0.1319580078125,0.651580810546875,1.05767822265625
1740007299138021000,12.312021240234374,-0.15863037109375,0.6233367919921875,1.101470947265625
1740007299148003000,12.322003173828126,-0.153106689453125,0.6037750244140625,1.1317901611328125
1740007299157985000,12.331985107421875,-0.128814697265625,0.58642578125,1.16717529296875
1740007299167967000,12.341967041015625,-0.092193603515625,0.5668182373046875,1.1812896728515625
1740007299177950000,12.351949951171875,-0.0432281494140625,0.5334625244140625,1.1769256591796875
1740007299187932000,12.361931884765625,0.016387939453125,0.493499755859375,1.168609619140625
1740007299197913900,12.371913818359374,0.05975341796875,0.48480224609375,1.174652099609375
1740007299207896000,12.38189599609375,0.08465576171875,0.4855804443359375,1.2053680419921875
1740007299217878000,12.3918779296875,0.0987548828125,0.4785919189453125,1.2662506103515625
1740007299227860000,12.40185986328125,0.0933837890625,0.45745849609375,1.340576171875
1740007299237842200,12.41184228515625,0.086883544921875,0.42706298828125,1.397796630859375
1740007299247823400,12.4218232421875,0.0741119384765625,0.3824462890625,1.4009246826171875
1740007299257805300,12.431805419921876,0.0506591796875,0.334228515625,1.36468505859375
1740007299267787500,12.44178759765625,0.0330047607421875,0.29058837890625,1.30511474609375
1740007299277770200,12.451770263671875,0.0234222412109375,0.2515411376953125,1.2240753173828125
1740007299287752400,12.46175244140625,0.0236053466796875,0.224884033203125,1.1407928466796875
1740007299297734100,12.471734130859375,0.028472900390625,0.20867919921875,1.0703277587890625
1740007299307716400,12.48171630859375,0.0322723388671875,0.2012176513671875,1.021942138671875
1740007299317698600,12.491698486328126,0.0418548583984375,0.1949462890625,0.9782562255859375
1740007299327680300,12.50168017578125,0.0431671142578125,0.1851806640625,0.9497833251953125
1740007299337662500,12.511662353515625,0.038360595703125,0.17791748046875,0.9497833251953125
1740007299347644400,12.52164453125,0.0328521728515625,0.1645965576171875,0.953826904296875
1740007299357626400,12.53162646484375,0.0244903564453125,0.1485595703125,0.9561309814453125
1740007299367608300,12.5416083984375,0.0186309814453125,0.1346435546875,0.9667205810546875
1740007299377591300,12.55159130859375,0.0184173583984375,0.11737060546875,0.9849090576171875
1740007299387573500,12.561573486328125,0.02081298828125,0.1017913818359375,1.0027008056640625
1740007299397555500,12.571555419921875,0.0277252197265625,0.0939178466796875,1.0355377197265625
1740007299407537400,12.581537353515625,0.0408477783203125,0.0972747802734375,1.074951171875
1740007299417519400,12.591519287109374,0.0593719482421875,0.10809326171875,1.0931396484375
1740007299427501600,12.60150146484375,0.0727081298828125,0.1178436279296875,1.1044921875
1740007299437483300,12.611483154296875,0.0863189697265625,0.1250762939453125,1.142333984375
1740007299447465500,12.621465576171875,0.107025146484375,0.1468505859375,1.1958160400390625
1740007299457447200,12.631447265625,0.1121063232421875,0.174041748046875,1.2516632080078125
1740007299467429400,12.641429443359375,0.0987701416015625,0.2018890380859375,1.289031982421875
1740007299477412400,12.651412353515624,0.0690765380859375,0.21295166015625,1.317962646484375
1740007299487394300,12.661394287109376,0.0222015380859375,0.1991119384765625,1.35406494140625
1740007299497376500,12.67137646484375,-0.0118408203125,0.162322998046875,1.364013671875
1740007299507358200,12.681358154296875,-0.0203704833984375,0.12615966796875,1.37567138671875
1740007299517340400,12.69134033203125,-0.012664794921875,0.095794677734375,1.3968353271484375
1740007299527322400,12.701322265625,0.0144195556640625,0.09564208984375,1.4352874755859375
1740007299537304300,12.71130419921875,0.0318145751953125,0.1061859130859375,1.5135650634765625
1740007299547286300,12.721286376953126,0.0449066162109375,0.0987548828125,1.611419677734375
1740007299557268500,12.7312685546875,0.047760009765625,0.0727081298828125,1.6808013916015625
1740007299567250200,12.741250244140625,0.0333709716796875,0.0277099609375,1.7342987060546875
1740007299577233400,12.7512333984375,0.00909423828125,-0.0178985595703125,1.8039398193359375
1740007299587215400,12.76121533203125,-0.0015411376953125,-0.04913330078125,1.887359619140625
1740007299597197300,12.771197265625,-0.0099029541015625,-0.0623626708984375,1.9749603271484375
1740007299607179500,12.781179443359376,-0.0106353759765625,-0.063262939453125,2.02423095703125
1740007299617161200,12.7911611328125,-0.012298583984375,-0.0830841064453125,1.985321044921875
1740007299627143400,12.801143310546875,-0.0170745849609375,-0.15045166015625,1.866485595703125
1740007299637125400,12.81112548828125,0.0040283203125,-0.2360076904296875,1.7198333740234375
1740007299647107300,12.821107421875,0.0465545654296875,-0.3112030029296875,1.5554046630859375
1740007299657089500,12.831089599609374,0.0711212158203125,-0.3704681396484375,1.4243927001953125
1740007299667071200,12.8410712890625,0.0786285400390625,-0.3780670166015625,1.3852691650390625
1740007299677054500,12.851054443359375,0.060638427734375,-0.333251953125,1.420074462890625
1740007299687036200,12.8610361328125,0.0134124755859375,-0.271240234375,1.4991455078125
1740007299697018400,12.871018310546875,-0.047027587890625,-0.198638916015625,1.587493896484375
1740007299707000300,12.881000244140624,-0.13311767578125,-0.1277618408203125,1.6588134765625
1740007299716982300,12.890982177734376,-0.198699951171875,-0.04547119140625,1.6882781982421875
1740007299726964500,12.900964599609376,-0.2152557373046875,0.0451202392578125,1.6956939697265625
1740007299736946400,12.910946533203125,-0.2108917236328125,0.1351318359375,1.707489013671875
1740007299746928400,12.920928466796875,-0.210784912109375,0.2250213623046875,1.7068634033203125
1740007299756910300,12.930910400390625,-0.2388763427734375,0.303558349609375,1.7051239013671875
1740007299766893300,12.940893310546874,-0.264739990234375,0.37579345703125,1.7237396240234375
1740007299776875300,12.950875244140626,-0.295379638671875,0.43902587890625,1.7505950927734375
1740007299786857500,12.960857421875,-0.3030853271484375,0.4620361328125,1.7332000732421875
1740007299796839400,12.97083935546875,-0.276947021484375,0.4471282958984375,1.6609649658203125
1740007299806821400,12.9808212890625,-0.214508056640625,0.4180450439453125,1.5573272705078125
1740007299816803300,12.99080322265625,-0.0924224853515625,0.3994293212890625,1.4207305908203125
1740007299826785300,13.000785400390624,0.0283355712890625,0.394927978515625,1.3089447021484375
1740007299836767500,13.010767578125,0.1080169677734375,0.4018402099609375,1.245941162109375
1740007299846749200,13.020749267578125,0.1132659912109375,0.397613525390625,1.216217041015625
1740007299856731400,13.0307314453125,0.1111297607421875,0.402923583984375,1.185089111328125
1740007299866714400,13.04071435546875,0.0983428955078125,0.4040985107421875,1.176300048828125
