time,seconds_elapsed,z,y,x
1740007286855074800,0.02907470703125,0.27306291460990906,0.3698635995388031,1.0578678846359253
1740007286865056800,0.039056884765625,0.33987700939178467,0.5922607779502869,1.1769479513168335
1740007286875039000,0.0490390625,0.4129458963871002,0.8752629160881042,1.3244643211364746
1740007286885020700,0.059020751953125,0.42276719212532043,1.378976583480835,1.4548648595809937
1740007286895003000,0.0690029296875,0.49980366230010986,1.681715965270996,1.5571666955947876
1740007286904985600,0.078985595703125,0.4261285066604614,2.1793527603149414,1.7170724868774414
1740007286914967800,0.0889677734375,0.2383042722940445,2.688567638397217,1.8886511325836182
1740007286924949800,0.09894970703125,0.08781947195529938,3.348182439804077,1.9231159687042236
1740007286934931700,0.108931640625,-0.037543509155511856,3.6448559761047363,1.9364256858825684
1740007286944914000,0.118913818359375,-0.16214391589164734,4.011019706726074,1.889178991317749
1740007286954895600,0.1288955078125,-0.29023584723472595,4.448267936706543,1.8106950521469116
1740007286964877800,0.1388779296875,-0.37864309549331665,4.704448699951172,1.7794575691223145
1740007286974859800,0.14885986328125,-0.44133472442626953,4.909757137298584,1.7592110633850098
1740007286984841700,0.158841796875,-0.47379183769226074,4.911495685577393,1.729048728942871
1740007286994823700,0.16882373046875,-0.48560217022895813,4.722623825073242,1.620423674583435
1740007287004806000,0.178805908203125,-0.5116661787033081,4.4252824783325195,1.4329895973205566
1740007287014787600,0.18878759765625,-0.5876461863517761,4.2151055335998535,1.1404751539230347
1740007287024769800,0.198769775390625,-0.711230456829071,4.167839527130127,0.7523084878921509
1740007287034752000,0.208751953125,-0.900946855545044,4.958796501159668,0.41839277744293213
1740007287044733700,0.218733642578125,-0.995667576789856,4.8799357414245605,0.13592852652072906
1740007287054716000,0.2287158203125,-1.0494954586029053,4.278912544250488,-0.32534271478652954
1740007287064697900,0.23869775390625,-1.1930257081985474,4.0910515785217285,-0.8666717410087585
1740007287074679800,0.2486796875,-1.4971542358398438,4.224175930023193,-1.4674465656280518
1740007287084662800,0.258662841796875,-1.8946224451065063,4.348227024078369,-2.058945417404175
1740007287094644700,0.268644775390625,-2.239912748336792,4.264575958251953,-2.5551018714904785
1740007287104627000,0.278626953125,-2.488619565963745,4.055631160736084,-2.8707492351531982
1740007287114608600,0.288608642578125,-2.630919933319092,3.7659661769866943,-2.9901609420776367
1740007287124590800,0.2985908203125,-2.6600682735443115,3.300628423690796,-2.9435954093933105
1740007287134572800,0.30857275390625,-2.593517780303955,2.7828335762023926,-2.82417368888855
1740007287144554800,0.3185546875,-2.4806432723999023,2.481348991394043,-2.780345916748047
1740007287154536700,0.32853662109375,-2.3294684886932373,2.4351956844329834,-2.9273791313171387
1740007287164519000,0.338518798828125,-2.2052884101867676,2.5315682888031006,-3.277033567428589
1740007287174500600,0.34850048828125,-2.143512725830078,2.710937023162842,-3.7251880168914795
1740007287184482800,0.35848291015625,-2.14845871925354,2.6019997596740723,-4.0944013595581055
1740007287194464800,0.36846484375,-2.182490110397339,2.5079424381256104,-4.269333362579346
1740007287204446700,0.37844677734375,-2.171661376953125,2.3869376182556152,-4.228810787200928
1740007287214428700,0.3884287109375,-2.121685266494751,2.145437479019165,-4.022525310516357
1740007287224411000,0.398410888671875,-2.0697994232177734,1.9112541675567627,-3.6723334789276123
1740007287234392800,0.408392822265625,-2.041044235229492,1.7618370056152344,-3.2047219276428223
1740007287244376000,0.4183759765625,-2.056723117828369,1.7132700681686401,-2.6692023277282715
1740007287254357800,0.428357666015625,-2.107563018798828,1.7936136722564697,-2.105093002319336
1740007287264340000,0.438340087890625,-2.1525075435638428,1.975522756576538,-1.5407707691192627
1740007287274322000,0.448322021484375,-2.1300649642944336,2.1444408893585205,-0.987543523311615
1740007287284304000,0.458303955078125,-1.9661192893981934,2.2147703170776367,-0.48374539613723755
1740007287294285800,0.468285888671875,-1.7109365463256836,2.083930730819702,-0.03607868403196335
1740007287304267800,0.478267822265625,-1.465673565864563,1.8424514532089233,0.339596688747406
1740007287314249700,0.488249755859375,-1.2953283786773682,1.598252296447754,0.6290900111198425
1740007287324232000,0.49823193359375,-1.233367919921875,1.3871655464172363,0.8104417324066162
1740007287334214000,0.5082138671875,-1.2655655145645142,1.196893572807312,0.8511252403259277
1740007287344195800,0.51819580078125,-1.3490568399429321,1.0443302392959595,0.7664778828620911
1740007287354178000,0.528177978515625,-1.462122917175293,0.8467715978622437,0.5887710452079773
1740007287364159700,0.53815966796875,-1.6589730978012085,0.5569285750389099,0.3199070394039154
1740007287374142000,0.548141845703125,-1.9406448602676392,0.1994522213935852,-0.0049866666086018085
1740007287384124000,0.5581240234375,-2.1693873405456543,-0.08406667411327362,-0.34991058707237244
1740007287394105900,0.56810595703125,-2.287667989730835,-0.3255714476108551,-0.6941449046134949
1740007287404087800,0.578087890625,-2.3508377075195312,-0.5576334595680237,-0.9942566156387329
1740007287414070000,0.588070068359375,-2.4124057292938232,-0.6955963969230652,-1.2035211324691772
1740007287424053000,0.598052978515625,-2.4362497329711914,-0.759000837802887,-1.285712480545044
1740007287434035000,0.608034912109375,-2.350099802017212,-0.7746868133544922,-1.2345961332321167
1740007287444017000,0.618016845703125,-2.179091453552246,-0.7713519334793091,-1.0654689073562622
1740007287453998800,0.627998779296875,-1.9222311973571777,-0.8257951736450195,-0.8009325861930847
1740007287463980800,0.637980712890625,-1.540297508239746,-0.9878735542297363,-0.46050795912742615
1740007287473962800,0.647962646484375,-1.0828779935836792,-1.192244529724121,-0.03167910873889923
1740007287483945000,0.657945068359375,-0.6301333904266357,-1.4225555658340454,0.5068482160568237
1740007287493926700,0.6679267578125,-0.18364909291267395,-1.5872713327407837,1.0957080125808716
1740007287503908900,0.677908935546875,0.21605238318443298,-1.6947602033615112,1.7145054340362549
1740007287513891000,0.68789111328125,0.6136476993560791,-1.5894370079040527,2.2509567737579346
1740007287523872800,0.697872802734375,1.0035797357559204,-1.315003514289856,2.662644147872925
1740007287533855000,0.70785498046875,1.325655460357666,-0.9839196801185608,3.019399404525757
1740007287543837000,0.7178369140625,1.6152799129486084,-0.7055559754371643,3.2353203296661377
1740007287553819000,0.72781884765625,1.8577686548233032,-0.43437960743904114,3.3263461589813232
1740007287563800800,0.73780078125,2.0724377632141113,-0.1776576191186905,3.276674270629883
1740007287573783000,0.747782958984375,2.266141891479492,0.023660313338041306,3.0640738010406494
1740007287583764700,0.7577646484375,2.4466567039489746,0.19132021069526672,2.692035675048828
1740007287593748000,0.767748046875,2.5848731994628906,0.35530728101730347,2.1797382831573486
1740007287603730000,0.77772998046875,2.736881732940674,0.47913601994514465,1.5732518434524536
1740007287613712000,0.7877119140625,2.8919894695281982,0.4301644563674927,0.947260856628418
1740007287623693800,0.79769384765625,3.061702251434326,0.17912177741527557,0.3204411566257477
1740007287633675800,0.80767578125,3.214911699295044,-0.2504298686981201,-0.2858484983444214
1740007287643658000,0.817657958984375,3.274653434753418,-0.8914557695388794,-0.8363755345344543
1740007287653639700,0.8276396484375,3.2344672679901123,-1.665713906288147,-1.2969590425491333
1740007287663622000,0.837621826171875,3.1545567512512207,-2.292764186859131,-1.6048222780227661
1740007287673603800,0.847603759765625,3.057931900024414,-2.6424736976623535,-1.8034573793411255
1740007287683585800,0.857585693359375,2.9176251888275146,-2.622340440750122,-1.8822674751281738
1740007287693567700,0.867567626953125,2.7123067378997803,-2.3596396446228027,-1.8285083770751953
1740007287703550000,0.877550048828125,2.5258028507232666,-2.080289602279663,-1.6252027750015259
1740007287713532000,0.887531982421875,2.4462478160858154,-1.913942575454712,-1.3029536008834839
1740007287723513900,0.897513916015625,2.4960837364196777,-1.910404920578003,-0.8998039364814758
1740007287733496000,0.90749609375,2.6211025714874268,-2.054487705230713,-0.46151450276374817
1740007287743477800,0.917477783203125,2.764348268508911,-2.3130950927734375,-0.02108851447701454
1740007287753461000,0.9274609375,2.839920997619629,-2.548187494277954,0.3876236081123352
1740007287763442700,0.937442626953125,2.8206567764282227,-2.6649069786071777,0.7225524187088013
1740007287773425000,0.9474248046875,2.7320919036865234,-2.5412986278533936,0.9408325552940369
1740007287783406800,0.95740673828125,2.6480607986450195,-2.24090576171875,1.0457403659820557
1740007287793388800,0.967388916015625,2.635326623916626,-1.941428303718567,1.0813039541244507
1740007287803371000,0.97737109375,2.6523430347442627,-1.7653744220733643,1.0814261436462402
1740007287813352700,0.987352783203125,2.6445541381835938,-1.6655687093734741,1.066031813621521
1740007287823335000,0.9973349609375,2.6111693382263184,-1.5523266792297363,1.025394082069397
1740007287833316900,1.00731689453125,2.546879291534424,-1.4090704917907715,0.9451012015342712
1740007287843298800,1.017298828125,2.4321048259735107,-1.1963138580322266,0.7936480045318604
1740007287853280800,1.02728076171875,2.307758092880249,-0.9118243455886841,0.6136124730110168
1740007287863263000,1.037262939453125,2.218425989151001,-0.5808096528053284,0.4680318236351013
1740007287873244700,1.04724462890625,2.1803371906280518,-0.36405232548713684,0.4057934880256653
1740007287883227000,1.057226806640625,2.1935081481933594,-0.4485909938812256,0.43119677901268005
1740007287893209000,1.067208984375,2.1981167793273926,-0.8316441178321838,0.4691412150859833
1740007287903190800,1.077190673828125,2.1623952388763428,-1.2125369310379028,0.4899236261844635
1740007287913174000,1.087174072265625,2.033414602279663,-1.43538236618042,0.4292983412742615
1740007287923155700,1.09715576171875,1.7683632373809814,-1.4410910606384277,0.24566492438316345
1740007287933138000,1.107137939453125,1.4501386880874634,-1.2744053602218628,0.011519275605678558
1740007287943120000,1.117119873046875,1.1654908657073975,-1.0385661125183105,-0.20276328921318054
1740007287953101800,1.127101806640625,0.8980668783187866,-0.8957343101501465,-0.3866122364997864
1740007287963084000,1.137083984375,0.6775163412094116,-0.821460485458374,-0.5467522740364075
1740007287973065700,1.147065673828125,0.5491796731948853,-0.7106993794441223,-0.6958964467048645
1740007287983048000,1.1570478515625,0.4425010681152344,-0.44871217012405396,-0.8132733702659607
1740007287993030000,1.16702978515625,0.2848416566848755,-0.08552465587854385,-0.8842186331748962
1740007288003011800,1.17701171875,0.008700446225702763,0.23098745942115784,-0.876526951789856
1740007288012993800,1.186993896484375,-0.34459689259529114,0.47424590587615967,-0.7969673871994019
1740007288022976000,1.19697607421875,-0.7307976484298706,0.7012662887573242,-0.6921738982200623
1740007288032957700,1.206957763671875,-1.0553776025772095,0.9613825678825378,-0.5849529504776001
1740007288042940000,1.21693994140625,-1.288620114326477,1.3031903505325317,-0.48231643438339233
1740007288052921900,1.226921875,-1.444938063621521,1.6767215728759766,-0.3576056659221649
1740007288062903800,1.23690380859375,-1.57869553565979,2.071820020675659,-0.20042704045772552
1740007288072887000,1.246886962890625,-1.73650062084198,2.4837963581085205,0.01815669797360897
1740007288082868700,1.25686865234375,-1.9129061698913574,2.861335515975952,0.32516685128211975
1740007288092851000,1.266850830078125,-2.0849103927612305,3.164959669113159,0.7264730334281921
1740007288102833000,1.2768330078125,-2.232313632965088,3.399463176727295,1.1957180500030518
1740007288112814800,1.28681494140625,-2.358409881591797,3.4990761280059814,1.7100367546081543
1740007288122796800,1.296796875,-2.4388880729675293,3.367335796356201,2.1981844902038574
1740007288132779000,1.306779052734375,-2.5037667751312256,3.1281192302703857,2.5954794883728027
1740007288142760700,1.3167607421875,-2.6525025367736816,2.8737568855285645,2.801293134689331
1740007288152743000,1.326742919921875,-3.059497833251953,2.7677016258239746,2.662895679473877
1740007288162724900,1.336724853515625,-3.470315933227539,3.0819168090820312,2.3891375064849854
1740007288172706800,1.346706787109375,-3.7391018867492676,3.2294909954071045,2.1617770195007324
1740007288182689000,1.35668896484375,-3.7981176376342773,2.989985466003418,2.1058177947998047
1740007288192670700,1.366670654296875,-3.6905975341796875,2.4923338890075684,2.134770631790161
1740007288202653000,1.37665283203125,-3.4548115730285645,1.8526878356933594,2.135056495666504
1740007288212635000,1.386634765625,-3.149831533432007,1.1199030876159668,2.0363426208496094
1740007288222616800,1.396616943359375,-2.942680835723877,0.4425742030143738,1.7927162647247314
1740007288232598800,1.406598876953125,-2.8803775310516357,-0.04655582830309868,1.4101382493972778
1740007288242582000,1.41658203125,-2.920074701309204,-0.3018360733985901,0.9432370066642761
1740007288252564000,1.42656396484375,-2.991528272628784,-0.4317953884601593,0.4665204882621765
1740007288262546200,1.436546142578125,-3.0541419982910156,-0.5177815556526184,0.014358287677168846
1740007288272528000,1.44652783203125,-3.0754764080047607,-0.5614566206932068,-0.40567681193351746
1740007288282510000,1.456510009765625,-3.0416200160980225,-0.5320419669151306,-0.7550790905952454
1740007288292492000,1.466491943359375,-2.933391809463501,-0.47696301341056824,-1.0415565967559814
1740007288302474000,1.476473876953125,-2.8084921836853027,-0.4504433870315552,-1.283643126487732
1740007288312456200,1.486456298828125,-2.7174901962280273,-0.4215611219406128,-1.476481556892395
1740007288322438000,1.49643798828125,-2.689822196960449,-0.35826095938682556,-1.6136164665222168
1740007288332420000,1.506420166015625,-2.723325729370117,-0.28483307361602783,-1.7394803762435913
1740007288342402000,1.516402099609375,-2.7865183353424072,-0.17911580204963684,-1.889569640159607
1740007288352384000,1.526384033203125,-2.883138656616211,0.025429880246520042,-2.0573182106018066
1740007288362366000,1.536365966796875,-2.9507105350494385,0.31507349014282227,-2.2585837841033936
1740007288372348200,1.54634814453125,-2.9794139862060547,0.6307291984558105,-2.4662599563598633
1740007288382329900,1.556329833984375,-3.0197627544403076,0.9539853930473328,-2.6389706134796143
1740007288392312000,1.56631201171875,-3.060436964035034,1.2023850679397583,-2.7632172107696533
1740007288402295000,1.576294921875,-3.0698955059051514,1.2439525127410889,-2.8700039386749268
1740007288412277000,1.586277099609375,-3.0570194721221924,1.106217861175537,-2.996004819869995
1740007288422259200,1.59625927734375,-3.047502279281616,0.9020324349403381,-3.1614739894866943
1740007288432241000,1.606240966796875,-3.0723040103912354,0.7067071199417114,-3.3578007221221924
1740007288442223000,1.61622314453125,-3.117914915084839,0.5105770230293274,-3.5485622882843018
1740007288452205000,1.626205078125,-3.0959341526031494,0.25484567880630493,-3.657588005065918
1740007288462187000,1.63618701171875,-2.936250925064087,-0.13818734884262085,-3.6606040000915527
1740007288472169000,1.6461689453125,-2.6389737129211426,-0.5813295841217041,-3.577199935913086
1740007288482151000,1.65615087890625,-2.238405227661133,-0.9600424766540527,-3.4238317012786865
1740007288492133000,1.666133056640625,-1.7292242050170898,-1.1887251138687134,-3.208037853240967
1740007288502115000,1.676114990234375,-1.1252551078796387,-1.1916477680206299,-2.9317586421966553
1740007288512097000,1.686096923828125,-0.538985550403595,-1.062315821647644,-2.58402681350708
1740007288522079000,1.696078857421875,-0.05398469418287277,-0.9720607399940491,-2.140604019165039
1740007288532061200,1.706061279296875,0.3815833032131195,-1.072919487953186,-1.640587329864502
1740007288542043000,1.71604296875,0.7866301536560059,-1.295149564743042,-1.1006221771240234
1740007288552025000,1.726025146484375,1.1556628942489624,-1.354691743850708,-0.5588383078575134
1740007288562008000,1.736008056640625,1.4279247522354126,-1.0999406576156616,-0.09802021086215973
1740007288571990000,1.745989990234375,1.6158193349838257,-0.6551748514175415,0.3162776231765747
1740007288581972200,1.75597216796875,1.8152709007263184,-0.2987927198410034,0.719040036201477
1740007288591954000,1.765953857421875,2.098200798034668,-0.14036019146442413,1.1316603422164917
1740007288601936100,1.77593603515625,2.4206960201263428,-0.07688610255718231,1.5702121257781982
1740007288611918000,1.78591796875,2.7297513484954834,-0.07436755299568176,2.044184684753418
1740007288621900000,1.795900146484375,3.0252420902252197,-0.1444973647594452,2.5138914585113525
1740007288631882000,1.805882080078125,3.2818350791931152,-0.2767118811607361,2.921618700027466
1740007288641864000,1.815864013671875,3.472686767578125,-0.35343116521835327,3.186544179916382
1740007288651846000,1.825845947265625,3.5939671993255615,-0.3148893713951111,3.288647413253784
1740007288661828000,1.835828125,3.661045551300049,-0.14026063680648804,3.1978468894958496
1740007288671810000,1.84581005859375,3.730008602142334,-0.034852467477321625,2.9115114212036133
1740007288681792000,1.8557919921875,3.837193727493286,-0.14175522327423096,2.525852918624878
1740007288691774200,1.865774169921875,3.929945230484009,-0.42362019419670105,2.1585752964019775
1740007288701756000,1.875755859375,3.946061611175537,-0.6959970593452454,1.8205205202102661
1740007288711738000,1.885738037109375,3.890889883041382,-0.8369293808937073,1.562379002571106
1740007288721720000,1.895719970703125,3.8365986347198486,-0.865525484085083,1.4348185062408447
1740007288731703000,1.905703125,3.8289151191711426,-0.8577980995178223,1.3522310256958008
1740007288741685000,1.91568505859375,3.837696075439453,-0.8261573314666748,1.3218847513198853
1740007288751667000,1.9256669921875,3.846513509750366,-0.7693358659744263,1.3425487279891968
1740007288761649200,1.935649169921875,3.8770253658294678,-0.6783403754234314,1.3998150825500488
1740007288771631000,1.945631103515625,3.941795825958252,-0.5857054591178894,1.466081142425537
1740007288781613000,1.955613037109375,4.012205600738525,-0.47428664565086365,1.5422840118408203
1740007288791595000,1.965594970703125,4.0545334815979,-0.2913690209388733,1.6015825271606445
1740007288801577200,1.9755771484375,4.094047546386719,-0.05930088832974434,1.6465216875076294
1740007288811559000,1.985558837890625,4.143065929412842,0.1947726607322693,1.6395039558410645
1740007288821541000,1.995541015625,4.204378604888916,0.473646342754364,1.5905028581619263
1740007288831522800,2.005522705078125,4.266825199127197,0.7358494400978088,1.5040805339813232
1740007288841505000,2.015505126953125,4.282339572906494,0.8641170263290405,1.3876599073410034
1740007288851487000,2.025487060546875,4.21234130859375,0.8578908443450928,1.2163861989974976
1740007288861469000,2.035468994140625,4.089338779449463,0.7857593894004822,0.983199954032898
1740007288871451100,2.045451171875,3.9416534900665283,0.6434853076934814,0.7062962055206299
1740007288881433000,2.05543310546875,3.740922451019287,0.48706626892089844,0.3566136956214905
1740007288891416000,2.065416015625,3.4525368213653564,0.34128695726394653,-0.05215833708643913
1740007288901398000,2.07539794921875,3.0823168754577637,0.24691568315029144,-0.4762427806854248
1740007288911380000,2.0853798828125,2.688791036605835,0.15295162796974182,-0.8344094753265381
1740007288921362000,2.09536181640625,2.300384998321533,0.0641164556145668,-1.0853074789047241
1740007288931344100,2.10534423828125,1.9564129114151,0.06466293334960938,-1.2474488019943237
1740007288941326000,2.115326171875,1.7016559839248657,0.10724389553070068,-1.3361419439315796
1740007288951308000,2.12530810546875,1.5189073085784912,0.12935906648635864,-1.3629698753356934
1740007288961290200,2.135290283203125,1.358391523361206,0.08946442604064941,-1.331121563911438
1740007288971272000,2.14527197265625,1.184238076210022,-0.007103926967829466,-1.2498327493667603
1740007288981254100,2.155254150390625,0.9605479836463928,-0.11518921703100204,-1.1335755586624146
1740007288991236000,2.165236083984375,0.6817435026168823,-0.22332820296287537,-0.9956477880477905
1740007289001218000,2.175218017578125,0.3895283043384552,-0.30397847294807434,-0.8451617956161499
1740007289011200000,2.185199951171875,0.09570787101984024,-0.3280164301395416,-0.6883679032325745
1740007289021182000,2.195181884765625,-0.20453418791294098,-0.28162673115730286,-0.5537511706352234
1740007289031164000,2.205163818359375,-0.5266112685203552,-0.21051765978336334,-0.44968682527542114
1740007289041146000,2.21514599609375,-0.8931121826171875,-0.12267405539751053,-0.3526236414909363
1740007289051129000,2.225129150390625,-1.2799485921859741,-0.007536549121141434,-0.2506365478038788
1740007289061111000,2.235111083984375,-1.6616499423980713,0.13708296418190002,-0.14500543475151062
1740007289071093000,2.245093017578125,-2.005462884902954,0.331719309091568,-0.05599752441048622
1740007289081075000,2.255074951171875,-2.3218231201171875,0.5272868275642395,0.016688775271177292
1740007289091057200,2.26505712890625,-2.632655382156372,0.7224792242050171,0.05478023365139961
1740007289101038800,2.275038818359375,-2.930908203125,0.9108166694641113,0.04163037985563278
1740007289111021000,2.28502099609375,-3.187514305114746,1.0785402059555054,-0.006401327904313803
1740007289121003300,2.295003173828125,-3.4059243202209473,1.2021197080612183,-0.08773382008075714
1740007289130985000,2.30498486328125,-3.5937726497650146,1.2561880350112915,-0.18846495449543
1740007289140967200,2.31496728515625,-3.7658298015594482,1.2312250137329102,-0.3221811056137085
1740007289150949000,2.32494921875,-3.8900129795074463,1.1238714456558228,-0.504306435585022
1740007289160931000,2.33493115234375,-3.9474496841430664,0.9260030388832092,-0.6969203948974609
1740007289170913000,2.3449130859375,-3.9125428199768066,0.6995190382003784,-0.8802340030670166
1740007289180895000,2.35489501953125,-3.8071401119232178,0.5010649561882019,-1.039759635925293
1740007289190877000,2.364876953125,-3.6838135719299316,0.3433397710323334,-1.1707240343093872
1740007289200860000,2.37485986328125,-3.5926403999328613,0.20776069164276123,-1.2582205533981323
1740007289210842000,2.384842041015625,-3.551985740661621,0.09789224714040756,-1.297505259513855
1740007289220824000,2.394823974609375,-3.561612606048584,0.024267887696623802,-1.2970974445343018
1740007289230806000,2.404805908203125,-3.611086845397949,0.012373410165309906,-1.2564374208450317
1740007289240788200,2.414788330078125,-3.6675591468811035,0.03604673966765404,-1.1661794185638428
1740007289250770200,2.424770263671875,-3.72064471244812,0.08042751997709274,-1.0458463430404663
1740007289260752100,2.434752197265625,-3.7545926570892334,0.11711306124925613,-0.9180920720100403
1740007289270734000,2.444734130859375,-3.762784481048584,0.18237754702568054,-0.7946787476539612
1740007289280716300,2.45471630859375,-3.731929302215576,0.3247870206832886,-0.6561063528060913
1740007289290698000,2.464697998046875,-3.6656746864318848,0.45901086926460266,-0.5029947757720947
1740007289300680200,2.47468017578125,-3.5843393802642822,0.5834138989448547,-0.3521255850791931
1740007289310662100,2.484662109375,-3.4829983711242676,0.6938373446464539,-0.22570158541202545
1740007289320644000,2.49464404296875,-3.4160726070404053,0.7682297825813293,-0.14023706316947937
1740007289330626000,2.5046259765625,-3.4147393703460693,0.8326172828674316,-0.12388312071561813
1740007289340608000,2.51460791015625,-3.442746162414551,0.893207848072052,-0.17974485456943512
1740007289350590200,2.524590087890625,-3.4812066555023193,0.9220810532569885,-0.2970094382762909
1740007289360573000,2.534572998046875,-3.5552303791046143,0.9265692830085754,-0.4612809419631958
1740007289370555100,2.54455517578125,-3.63869047164917,0.9359747767448425,-0.6503954529762268
1740007289380537000,2.554537109375,-3.725311040878296,0.8705480694770813,-0.8250477313995361
1740007289390519000,2.56451904296875,-3.830047845840454,0.6978351473808289,-0.9426020383834839
1740007289400501000,2.5745009765625,-3.975191831588745,0.40456655621528625,-0.9539830088615417
1740007289410483200,2.584483154296875,-4.130946636199951,0.007598412223160267,-0.8535288572311401
1740007289420465200,2.594465087890625,-4.260725498199463,-0.3981079161167145,-0.718122124671936
1740007289430447000,2.604447021484375,-4.200791835784912,-0.6818158030509949,-0.62419593334198
1740007289440429300,2.61442919921875,-3.9710726737976074,-0.9314603805541992,-0.5517690181732178
1740007289450411000,2.624410888671875,-3.5674490928649902,-0.9949261546134949,-0.6049677729606628
1740007289460393200,2.634393310546875,-3.0092246532440186,-0.8660309910774231,-0.7092472314834595
1740007289470375200,2.644375244140625,-2.2795119285583496,-0.7124068140983582,-0.7877511382102966
1740007289480357000,2.654357177734375,-1.3806954622268677,-0.7153704762458801,-0.7983506321907043
1740007289490339000,2.664339111328125,-0.4735143780708313,-0.8901252150535583,-0.7253499031066895
1740007289500321000,2.674321044921875,0.20040935277938843,-1.14933443069458,-0.5976554155349731
1740007289510304300,2.68430419921875,0.5836161375045776,-1.3566086292266846,-0.42116108536720276
1740007289520286200,2.6942861328125,0.757321834564209,-1.4306566715240479,-0.1977931559085846
1740007289530268200,2.70426806640625,0.7946361899375916,-1.4135531187057495,0.06808564811944962
1740007289540250000,2.71425,0.8137952089309692,-1.307261347770691,0.34787115454673767
1740007289550232000,2.724232177734375,0.9047618508338928,-1.0664788484573364,0.6193961501121521
1740007289560214000,2.734214111328125,1.11349618434906,-0.7358664870262146,0.8886067271232605
1740007289570196200,2.7441962890625,1.409964680671692,-0.42979469895362854,1.167140245437622
1740007289580178000,2.754177978515625,1.7547205686569214,-0.18279363214969635,1.4553781747817993
1740007289590160100,2.76416015625,2.103986978530884,0.03008561208844185,1.724915623664856
1740007289600142000,2.77414208984375,2.4402546882629395,0.21142876148223877,1.9416098594665527
1740007289610124000,2.7841240234375,2.752096652984619,0.36670011281967163,2.078232526779175
1740007289620106200,2.794106201171875,3.015573024749756,0.4758301377296448,2.1141955852508545
1740007289630088200,2.804088134765625,3.225450277328491,0.5590072870254517,2.0431571006774902
1740007289640070100,2.814070068359375,3.4014108180999756,0.5780750513076782,1.900130271911621
1740007289650052000,2.824052001953125,3.496021270751953,0.5262150168418884,1.7211400270462036
1740007289660034300,2.834034423828125,3.512929916381836,0.423101007938385,1.525030493736267
1740007289670017000,2.84401708984375,3.477979898452759,0.2718329131603241,1.3248153924942017
1740007289679999200,2.853999267578125,3.3797812461853027,0.07629042863845825,1.1130064725875854
1740007289689981200,2.863981201171875,3.2465901374816895,-0.11690618842840195,0.8664963841438293
1740007289699963100,2.873963134765625,3.1471426486968994,-0.32859212160110474,0.5859333872795105
1740007289709945000,2.883945068359375,3.088012218475342,-0.5161750912666321,0.24726369976997375
1740007289719927000,2.893927001953125,3.054553270339966,-0.6415420174598694,-0.1409337967634201
1740007289729909200,2.9039091796875,3.077314853668213,-0.7294769287109375,-0.5673466324806213
1740007289739891000,2.913890869140625,3.2159643173217773,-0.7943695783615112,-0.9485390186309814
1740007289749873200,2.923873046875,3.268622636795044,-0.7612521052360535,-1.2794287204742432
1740007289759855000,2.933855224609375,3.258939266204834,-0.7253422737121582,-1.5511057376861572
1740007289769837000,2.943837158203125,3.285308361053467,-0.7226905822753906,-1.6639968156814575
1740007289779819000,2.953819091796875,3.387903928756714,-0.7677945494651794,-1.6222691535949707
1740007289789801200,2.96380126953125,3.5288004875183105,-0.7396484017372131,-1.49851393699646
1740007289799783200,2.973783203125,3.7113542556762695,-0.7329739928245544,-1.331636667251587
1740007289809765000,2.98376513671875,3.905228853225708,-0.7980613708496094,-1.1231244802474976
1740007289819748000,2.993748046875,4.061398029327393,-0.863027811050415,-0.8564623594284058
1740007289829730000,3.00372998046875,4.125996112823486,-0.877149224281311,-0.518722653388977
1740007289839712300,3.013712158203125,4.089761257171631,-0.8478898406028748,-0.1287367343902588
1740007289849694000,3.02369384765625,3.9882500171661377,-0.8152464032173157,0.2823463976383209
1740007289859676200,3.03367626953125,3.8900365829467773,-0.7386974692344666,0.6645498275756836
1740007289869658000,3.043658203125,3.8133468627929688,-0.578985869884491,0.9716636538505554
1740007289879640000,3.05364013671875,3.739248752593994,-0.40215253829956055,1.1757903099060059
1740007289889622300,3.063622314453125,3.6425108909606934,-0.23692819476127625,1.2838935852050781
1740007289899604000,3.07360400390625,3.532885789871216,-0.08559166640043259,1.3044747114181519
1740007289909586200,3.083586181640625,3.4077141284942627,0.049436453729867935,1.2548028230667114
1740007289919568100,3.093568115234375,3.230380058288574,0.1441536396741867,1.1699601411819458
1740007289929550000,3.103550048828125,3.0049986839294434,0.1739770472049713,1.0926215648651123
1740007289939532000,3.113531982421875,2.735637903213501,0.18761277198791504,1.0384515523910522
1740007289949514200,3.12351416015625,2.4406051635742188,0.20155468583106995,1.017772912979126
1740007289959496000,3.133495849609375,2.1117682456970215,0.2114306390285492,1.0369646549224854
1740007289969479200,3.143479248046875,1.7730807065963745,0.20426486432552338,1.096538782119751
1740007289979461000,3.153461181640625,1.4141227006912231,0.20477470755577087,1.17754065990448
1740007289989443000,3.163443115234375,1.0336967706680298,0.22092650830745697,1.2585563659667969
1740007289999425300,3.17342529296875,0.6166451573371887,0.2320898473262787,1.313659429550171
1740007290009407000,3.183406982421875,0.17158138751983643,0.23658207058906555,1.3177764415740967
1740007290019389200,3.19338916015625,-0.28064143657684326,0.2574804425239563,1.2754443883895874
1740007290029371100,3.20337109375,-0.7447004318237305,0.3084331154823303,1.2060970067977905
1740007290039353000,3.21335302734375,-1.24956476688385,0.40690773725509644,1.1306723356246948
1740007290049335000,3.2233349609375,-1.8369039297103882,0.5387277603149414,1.060137391090393
1740007290059317000,3.23331689453125,-2.469975471496582,0.6518418788909912,1.0110772848129272
1740007290069299200,3.24329931640625,-3.095841884613037,0.6999862790107727,0.9449366331100464
1740007290079281200,3.25328125,-3.6574742794036865,0.6767597794532776,0.7811151742935181
1740007290089263000,3.26326318359375,-4.119126319885254,0.6207425594329834,0.49535292387008667
1740007290099245000,3.2732451171875,-4.451286315917969,0.5497322678565979,0.08609582483768463
1740007290109227300,3.283227294921875,-4.704471111297607,0.47840747237205505,-0.38961878418922424
1740007290119209000,3.293208984375,-4.881802082061768,0.3646298944950104,-0.8673239946365356
1740007290129192200,3.303192138671875,-4.976248264312744,0.24001018702983856,-1.2914478778839111
1740007290139174100,3.313174072265625,-4.961294174194336,0.0926760658621788,-1.6685757637023926
1740007290149156000,3.323156005859375,-4.840177536010742,-0.056115809828042984,-1.994160532951355
1740007290159138300,3.33313818359375,-4.640635013580322,-0.17051438987255096,-2.26731014251709
1740007290169120000,3.3431201171875,-4.367894172668457,-0.2370409518480301,-2.470813512802124
1740007290179102200,3.353102294921875,-4.0486836433410645,-0.278470903635025,-2.5873804092407227
1740007290189084200,3.363084228515625,-3.730386734008789,-0.3329479992389679,-2.617004156112671
1740007290199066000,3.373066162109375,-3.4437131881713867,-0.4253480136394501,-2.557907819747925
1740007290209048000,3.383048095703125,-3.2273483276367188,-0.5166363716125488,-2.409528970718384
1740007290219030000,3.393030029296875,-3.102243661880493,-0.5290870070457458,-2.2013416290283203
1740007290229012000,3.403011962890625,-3.053586483001709,-0.432456374168396,-1.9347341060638428
1740007290238993700,3.41299365234375,-3.0686540603637695,-0.26193875074386597,-1.6263805627822876
1740007290248976000,3.422975830078125,-3.146881580352783,-0.0537748858332634,-1.2964460849761963
1740007290258957600,3.43295751953125,-3.253389358520508,0.17617148160934448,-0.9633485674858093
1740007290268940800,3.44294091796875,-3.3438034057617188,0.41376805305480957,-0.6303058862686157
1740007290278922500,3.452922607421875,-3.419811487197876,0.6661381125450134,-0.31859394907951355
1740007290288904700,3.46290478515625,-3.466198205947876,0.9351423978805542,-0.0170705858618021
1740007290298886700,3.47288671875,-3.4522781372070312,1.1793291568756104,0.2877134680747986
1740007290308868600,3.48286865234375,-3.397778272628784,1.3360573053359985,0.580055832862854
1740007290318850800,3.492850830078125,-3.3502819538116455,1.3961790800094604,0.8285006880760193
1740007290328832500,3.50283251953125,-3.362572193145752,1.3295425176620483,0.9681877493858337
1740007290338814700,3.512814697265625,-3.4167730808258057,1.182289481163025,0.9452983140945435
1740007290348796700,3.522796630859375,-3.4991378784179688,1.0287680625915527,0.7037650942802429
1740007290358778600,3.532778564453125,-3.547790765762329,0.8863490223884583,0.30871593952178955
1740007290368760600,3.542760498046875,-3.6201441287994385,0.7266581654548645,-0.11062433570623398
1740007290378742800,3.55274267578125,-3.7048418521881104,0.5761639475822449,-0.4906845986843109
1740007290388724500,3.562724365234375,-3.79582142829895,0.44598037004470825,-0.8357922434806824
1740007290398706700,3.572706787109375,-3.959123134613037,0.35858026146888733,-1.159747838973999
1740007290408688600,3.582688720703125,-4.159675598144531,0.33847740292549133,-1.4511722326278687
1740007290418671600,3.592671630859375,-4.235311508178711,0.32832059264183044,-1.739327311515808
1740007290428653800,3.60265380859375,-4.123493671417236,0.3424534499645233,-2.036024332046509
1740007290438635500,3.612635498046875,-3.916623830795288,0.356207013130188,-2.2540528774261475
1740007290448617700,3.62261767578125,-3.63027286529541,0.3072197437286377,-2.3604226112365723
1740007290458599700,3.632599609375,-3.257589340209961,0.13177372515201569,-2.371013879776001
1740007290468581600,3.64258154296875,-2.7779672145843506,-0.1832907497882843,-2.303837537765503
1740007290478563600,3.6525634765625,-2.205040216445923,-0.5517758727073669,-2.1788010597229004
1740007290488545500,3.662545654296875,-1.5970619916915894,-0.8982147574424744,-1.9910709857940674
1740007290498527700,3.67252783203125,-1.049977421760559,-1.2111732959747314,-1.719866156578064
1740007290508509700,3.682509765625,-0.6029469966888428,-1.4585458040237427,-1.3323866128921509
1740007290518491600,3.69249169921875,-0.27001067996025085,-1.5780141353607178,-0.8318490982055664
1740007290528473600,3.7024736328125,-0.020536383613944054,-1.5558613538742065,-0.2550337314605713
1740007290538455800,3.712455810546875,0.20940130949020386,-1.3815207481384277,0.3835126459598541
1740007290548437500,3.7224375,0.5106820464134216,-1.0356887578964233,1.016709566116333
1740007290558419700,3.732419677734375,0.9086739420890808,-0.5476188659667969,1.5962495803833008
1740007290568402700,3.742402587890625,1.378379225730896,0.023197542876005173,2.1094188690185547
1740007290578384600,3.752384521484375,1.8583157062530518,0.5731768608093262,2.5345492362976074
1740007290588366800,3.762366943359375,2.304837942123413,1.049272894859314,2.8658974170684814
1740007290598348500,3.7723486328125,2.7069897651672363,1.4461538791656494,3.104978084564209
1740007290608330800,3.782330810546875,3.087738513946533,1.7889716625213623,3.2446694374084473
1740007290618312700,3.792312744140625,3.4267377853393555,2.0863330364227295,3.2768731117248535
1740007290628294700,3.802294677734375,3.705488681793213,2.373365640640259,3.2006640434265137
1740007290638276600,3.812276611328125,3.9421229362487793,2.6910343170166016,3.0575509071350098
1740007290648258600,3.822258544921875,4.159363269805908,3.0601820945739746,2.9160242080688477
1740007290658240500,3.832240478515625,4.354564666748047,3.430572748184204,2.82729434967041
1740007290668222700,3.84222265625,4.516791343688965,3.700066566467285,2.81219744682312
1740007290678204700,3.85220458984375,4.631459712982178,3.8069510459899902,2.847870349884033
1740007290688186600,3.8621865234375,4.698073387145996,3.750128984451294,2.900717258453369
1740007290698168800,3.8721689453125,4.710381507873535,3.548276901245117,2.901334285736084
1740007290708150500,3.882150634765625,4.647114276885986,3.2079737186431885,2.7495405673980713
1740007290718133800,3.8921337890625,4.5654096603393555,2.8204073905944824,2.3879263401031494
1740007290728115500,3.902115478515625,4.504955768585205,2.3441123962402344,1.8568882942199707
1740007290738097700,3.91209765625,4.471758842468262,1.6940217018127441,1.3030877113342285
1740007290748079600,3.92207958984375,4.440177917480469,1.0197861194610596,0.7935954928398132
1740007290758062600,3.9320625,4.476470947265625,0.4342816472053528,0.35284850001335144
1740007290768044800,3.942044921875,4.589069366455078,0.06249050796031952,0.03486599773168564
1740007290778026500,3.952026611328125,4.751359939575195,-0.06160927936434746,-0.20574629306793213
1740007290788008700,3.9620087890625,4.959512710571289,-0.05778098478913307,-0.43252456188201904
1740007290797990700,3.97199072265625,5.1817402839660645,-0.02175043523311615,-0.6140372157096863
1740007290807972600,3.98197265625,5.313523769378662,-0.05020498111844063,-0.7183343768119812
1740007290817954600,3.99195458984375,5.342962265014648,-0.11827383190393448,-0.7434690594673157
1740007290827936800,4.001936767578125,5.342843055725098,-0.1525857150554657,-0.7372015714645386
1740007290837918700,4.011918701171875,5.352753639221191,-0.0794692188501358,-0.7315583229064941
1740007290847900700,4.021900634765625,5.346163272857666,0.06930134445428848,-0.7083027958869934
1740007290857882600,4.031882568359375,5.303166389465332,0.2260493040084839,-0.6384721994400024
1740007290867864600,4.041864501953125,5.22600793838501,0.3474753499031067,-0.5253884792327881
1740007290877846800,4.0518466796875,5.1282639503479,0.4294501841068268,-0.3931638300418854
1740007290887828500,4.061828369140625,4.9980692863464355,0.5652016401290894,-0.2797917425632477
1740007290897811700,4.071811767578125,4.8630876541137695,0.7003751397132874,-0.17236492037773132
1740007290907793700,4.081793701171875,4.715952396392822,0.8010756373405457,-0.07175922393798828
1740007290917775600,4.091775634765625,4.5390849113464355,0.8737531900405884,0.028217580169439316
1740007290927757800,4.1017578125,4.299112319946289,0.9730132222175598,0.12825149297714233
1740007290937739500,4.111739501953125,3.9967164993286133,1.0913976430892944,0.22629059851169586
1740007290947721700,4.1217216796875,3.6667988300323486,1.1923339366912842,0.27481019496917725
1740007290957703700,4.13170361328125,3.3104302883148193,1.2547231912612915,0.26920202374458313
1740007290967685600,4.141685546875,2.921618938446045,1.2522715330123901,0.2258492112159729
1740007290977667600,4.15166748046875,2.481767416000366,1.206327199935913,0.16325032711029053
1740007290987649800,4.16164990234375,2.0026917457580566,1.108408808708191,0.09659034013748169
1740007290997631500,4.171631591796875,1.4953688383102417,0.93268221616745,0.008849410340189934
1740007291007613700,4.18161376953125,0.9868334531784058,0.6901758313179016,-0.11200696974992752
1740007291017595600,4.191595703125,0.5215123295783997,0.42385879158973694,-0.24358665943145752
1740007291027577600,4.20157763671875,0.10377851873636246,0.20549236238002777,-0.4425087869167328
1740007291037559800,4.211559814453125,-0.2778269946575165,0.007996443659067154,-0.701973557472229
1740007291047542500,4.22154248046875,-0.671886146068573,-0.21539616584777832,-0.9787899255752563
1740007291057524700,4.231524658203125,-1.1142956018447876,-0.4689016044139862,-1.2333621978759766
1740007291067506400,4.24150634765625,-1.6287152767181396,-0.7154802083969116,-1.3944016695022583
1740007291077488600,4.251488525390625,-2.1954073905944824,-0.9306557178497314,-1.4364964962005615
1740007291087470800,4.261470947265625,-2.7754595279693604,-1.0965996980667114,-1.3593231439590454
1740007291097452500,4.27145263671875,-3.3350515365600586,-1.2227985858917236,-1.2305654287338257
1740007291107434800,4.281434814453125,-3.872614860534668,-1.314365267753601,-1.0747475624084473
1740007291117416700,4.291416748046875,-4.349104404449463,-1.3359997272491455,-0.8790561556816101
1740007291127398700,4.301398681640625,-4.736173152923584,-1.2636654376983643,-0.6564357876777649
1740007291137380600,4.311380615234375,-4.982909202575684,-1.0863069295883179,-0.43281733989715576
1740007291147362800,4.32136279296875,-5.012350082397461,-0.7767041921615601,-0.21311038732528687
1740007291157344500,4.331344482421875,-4.742091178894043,-0.3431335687637329,0.036854710429906845
1740007291167326700,4.34132666015625,-4.221193790435791,0.13661549985408783,0.31304293870925903
1740007291177308700,4.35130859375,-3.581923007965088,0.5019176006317139,0.5977098345756531
1740007291187290600,4.36129052734375,-3.046342611312866,0.7940963506698608,0.8493978977203369
1740007291197272600,4.3712724609375,-2.8115837574005127,0.9932400584220886,1.0411542654037476
1740007291207254500,4.381254638671875,-2.8959884643554688,1.0408934354782104,1.2432912588119507
1740007291217237800,4.39123779296875,-3.1647937297821045,0.8711280822753906,1.4914544820785522
1740007291227219500,4.401219482421875,-3.429823160171509,0.5580881834030151,1.781749963760376
1740007291237201700,4.41120166015625,-3.6544418334960938,0.30708664655685425,2.065948963165283
1740007291247184000,4.421183837890625,-3.83760142326355,0.16292770206928253,2.287832021713257
1740007291257165600,4.43116552734375,-3.9302608966827393,0.0508541539311409,2.408299207687378
1740007291267147800,4.441147705078125,-3.9308714866638184,-0.07885466516017914,2.399839162826538
1740007291277130000,4.4511298828125,-3.885223150253296,-0.2409953624010086,2.3274588584899902
1740007291287111700,4.461111572265625,-3.8323042392730713,-0.4464421272277832,2.1945130825042725
1740007291297094000,4.471093994140625,-3.7788546085357666,-0.6553870439529419,2.008065938949585
1740007291307075800,4.481075927734375,-3.7399537563323975,-0.8156149387359619,1.7797995805740356
1740007291317057800,4.491057861328125,-3.751251220703125,-0.9221751689910889,1.5331727266311646
1740007291327039700,4.501039794921875,-3.7725982666015625,-0.9600424766540527,1.248412847518921
1740007291337022000,4.51102197265625,-3.7604684829711914,-0.9173781275749207,0.9378365874290466
1740007291347003600,4.521003662109375,-3.6787757873535156,-0.7897443175315857,0.6419308185577393
1740007291356987000,4.53098681640625,-3.546398162841797,-0.706408679485321,0.4287557005882263
1740007291366968800,4.54096875,-3.4306342601776123,-0.48497748374938965,0.19967618584632874
1740007291376950800,4.55095068359375,-3.3840999603271484,-0.3119172751903534,0.026155788451433182
1740007291386932700,4.5609326171875,-3.4153685569763184,-0.2968323826789856,-0.06498004496097565
1740007291396914700,4.570914794921875,-3.493558883666992,-0.3337933421134949,-0.1475268453359604
1740007291406897000,4.58089697265625,-3.5578746795654297,-0.3994899094104767,-0.27071413397789
1740007291416878600,4.590878662109375,-3.6199533939361572,-0.48184576630592346,-0.42097288370132446
1740007291426860800,4.60086083984375,-3.650892496109009,-0.5687278509140015,-0.5894457101821899
1740007291436842800,4.6108427734375,-3.636089324951172,-0.7387866973876953,-0.7496066689491272
1740007291446824700,4.62082470703125,-3.603624105453491,-0.9610984325408936,-0.9138167500495911
1740007291456807000,4.630806884765625,-3.541076898574829,-1.219954252243042,-1.105373740196228
1740007291466788900,4.640788818359375,-3.42586350440979,-1.4423786401748657,-1.3489130735397339
1740007291476770800,4.650770751953125,-3.29540753364563,-1.5465010404586792,-1.6526883840560913
1740007291486752800,4.660752685546875,-3.145446300506592,-1.5727168321609497,-1.9498192071914673
1740007291496735000,4.67073486328125,-2.975186586380005,-1.6552388668060303,-2.1740849018096924
1740007291506717700,4.6807177734375,-2.8087339401245117,-1.84999418258667,-2.322892427444458
1740007291516700000,4.690699951171875,-2.6546528339385986,-2.101194381713867,-2.4015724658966064
1740007291526681900,4.700681884765625,-2.4654293060302734,-2.306983470916748,-2.3965885639190674
1740007291536663800,4.710663818359375,-2.2116363048553467,-2.481060743331909,-2.283585786819458
1740007291546645800,4.720645751953125,-1.9123295545578003,-2.5912129878997803,-2.0928587913513184
1740007291556627700,4.730627685546875,-1.6212245225906372,-2.5765652656555176,-1.8148243427276611
1740007291566610000,4.74060986328125,-1.3456780910491943,-2.5509274005889893,-1.3351935148239136
1740007291576591600,4.750591552734375,-0.8973732590675354,-2.2152669429779053,-0.7960394620895386
1740007291586573800,4.76057373046875,-0.3240388333797455,-1.7299137115478516,-0.21157586574554443
1740007291596555800,4.7705556640625,0.3204765021800995,-1.152087688446045,0.4737367033958435
1740007291606537700,4.780537841796875,1.0279029607772827,-0.554212749004364,1.244377851486206
1740007291616519700,4.790519775390625,1.7770525217056274,0.06956590712070465,2.044726610183716
1740007291626502000,4.800501953125,2.488738536834717,0.7259593605995178,2.810232162475586
1740007291636483600,4.810483642578125,3.1248269081115723,1.3626632690429688,3.490875482559204
1740007291646466800,4.820466796875,3.658525228500366,1.936055302619934,3.984222173690796
1740007291656448800,4.83044873046875,4.028293132781982,2.540494203567505,4.308356285095215
1740007291666430700,4.8404306640625,4.24478006362915,3.0650546550750732,4.4819841384887695
1740007291676413000,4.850412841796875,4.376425266265869,3.364795684814453,4.489445209503174
1740007291686394600,4.86039453125,4.436534881591797,3.490290880203247,4.33651065826416
1740007291696376800,4.870376953125,4.426943302154541,3.4601364135742188,4.022985935211182
1740007291706358800,4.88035888671875,4.374188423156738,3.2897708415985107,3.577608823776245
1740007291716340700,4.8903408203125,4.291049957275391,3.029555320739746,3.0372352600097656
1740007291726323000,4.900322998046875,4.179831027984619,2.716756582260132,2.4411067962646484
1740007291736304600,4.9103046875,4.060754299163818,2.382891893386841,1.8663194179534912
1740007291746286800,4.920286865234375,3.949817180633545,2.072340250015259,1.343565583229065
1740007291756268800,4.930268798828125,3.8601326942443848,1.7910879850387573,0.9069395065307617
1740007291766250800,4.940250732421875,3.807023286819458,1.5298398733139038,0.541469931602478
1740007291776233700,4.950233642578125,3.77475905418396,1.2866266965866089,0.22098350524902344
1740007291786215700,4.960215576171875,3.7746353149414062,1.1164172887802124,-0.07100076973438263
1740007291796198000,4.970197998046875,3.8076624870300293,1.0159873962402344,-0.3154837489128113
1740007291806179800,4.980179931640625,3.8810176849365234,1.0228705406188965,-0.5502687692642212
1740007291816161800,4.990161865234375,3.9753923416137695,1.0887647867202759,-0.7616637945175171
1740007291826143700,5.000143798828125,4.064173221588135,1.1570427417755127,-0.9671608805656433
1740007291836126000,5.0101259765625,4.139237403869629,1.2092876434326172,-1.145284652709961
1740007291846107600,5.020107666015625,4.20217227935791,1.2245702743530273,-1.3022918701171875
1740007291856089900,5.03008984375,4.223551273345947,1.2370319366455078,-1.44773268699646
1740007291866071800,5.04007177734375,4.221547603607178,1.2537463903427124,-1.6242482662200928
1740007291876053800,5.0500537109375,4.212435245513916,1.2781046628952026,-1.8331748247146606
1740007291886035700,5.06003564453125,4.204484939575195,1.2752894163131714,-2.0380616188049316
1740007291896017700,5.070017578125,4.163131237030029,1.1934195756912231,-2.219820976257324
1740007291906000000,5.079999755859375,4.086856842041016,1.0579272508621216,-2.365007162094116
1740007291915981800,5.08998193359375,3.976919174194336,0.8566715717315674,-2.497594118118286
1740007291925964800,5.09996484375,3.8337244987487793,0.6273567080497742,-2.621588945388794
1740007291935946800,5.10994677734375,3.667574882507324,0.41219276189804077,-2.730771064758301
1740007291945928700,5.1199287109375,3.456705093383789,0.24384479224681854,-2.8118362426757812
1740007291955910700,5.12991064453125,3.144312620162964,0.11996068060398102,-2.8695356845855713
1740007291965892900,5.139892822265625,2.7634153366088867,-0.007566965185105801,-2.8836944103240967
1740007291975874800,5.149874755859375,2.3807260990142822,-0.15314628183841705,-2.792354106903076
1740007291985856800,5.159856689453125,2.003481388092041,-0.284604549407959,-2.596132755279541
1740007291995839000,5.1698388671875,1.6271673440933228,-0.3780452609062195,-2.3344197273254395
1740007292005820700,5.179820556640625,1.2516239881515503,-0.45155152678489685,-2.0443480014801025
1740007292015803000,5.189802978515625,0.8672670125961304,-0.4735143482685089,-1.7540596723556519
1740007292025784800,5.199784912109375,0.4740803837776184,-0.4540874660015106,-1.4655427932739258
1740007292035766800,5.209766845703125,0.050151195377111435,-0.36619141697883606,-1.1492724418640137
1740007292045748700,5.219748779296875,-0.4161931276321411,-0.2351580709218979,-0.8200562596321106
1740007292055731700,5.229731689453125,-0.8708040118217468,-0.0988585501909256,-0.4809969663619995
1740007292065714000,5.2397138671875,-1.2996476888656616,0.030946221202611923,-0.13203264772891998
1740007292075695900,5.24969580078125,-1.715193510055542,0.1812470406293869,0.1936567723751068
1740007292085677800,5.259677734375,-2.126753091812134,0.4028886556625366,0.5041276216506958
1740007292095659800,5.26965966796875,-2.4767889976501465,0.6051618456840515,0.808136522769928
1740007292105641700,5.279641845703125,-2.734074115753174,0.7487303018569946,1.076422095298767
1740007292115623700,5.289623779296875,-2.891981601715088,0.838965892791748,1.2589259147644043
1740007292125606000,5.29960595703125,-2.9692294597625732,0.8841450214385986,1.3432835340499878
1740007292135587600,5.309587646484375,-2.9881460666656494,0.8613177537918091,1.3576445579528809
1740007292145569800,5.31956982421875,-2.9787704944610596,0.7661677598953247,1.2979508638381958
1740007292155551700,5.3295517578125,-2.953827142715454,0.5867189168930054,1.1646757125854492
1740007292165533700,5.33953369140625,-2.950225591659546,0.3710819184780121,0.9527019262313843
1740007292175516000,5.349515869140625,-2.977184772491455,0.12334668636322021,0.6837607026100159
1740007292185497900,5.359497802734375,-3.03932523727417,-0.11406023055315018,0.35055825114250183
1740007292195480800,5.369480712890625,-3.134694814682007,-0.3312394320964813,-0.014252455905079842
1740007292205462800,5.379462890625,-3.240158796310425,-0.517625093460083,-0.3669818937778473
1740007292215444700,5.38944482421875,-3.34244704246521,-0.6774296760559082,-0.6569087505340576
1740007292225426700,5.3994267578125,-3.4500908851623535,-0.8208094835281372,-0.8640033602714539
1740007292235409000,5.409408935546875,-3.560772180557251,-0.9349496364593506,-1.0015729665756226
1740007292245390300,5.419390380859375,-3.6764419078826904,-1.0018779039382935,-1.0797594785690308
1740007292255372300,5.429372314453125,-3.7843029499053955,-1.0135142803192139,-1.1078413724899292
1740007292265354500,5.4393544921875,-3.8791234493255615,-1.0019001960754395,-1.095268726348877
1740007292275336200,5.449336181640625,-3.9621734619140625,-0.9620081186294556,-1.04054856300354
1740007292285318400,5.459318359375,-4.005273342132568,-0.8924843668937683,-0.9487548470497131
1740007292295300600,5.469300537109375,-4.064451694488525,-0.7927840948104858,-0.8430159091949463
1740007292305282300,5.4792822265625,-4.147281169891357,-0.6577761769294739,-0.7429298162460327
1740007292315264500,5.489264404296875,-4.228448867797852,-0.47463908791542053,-0.6706974506378174
1740007292325247200,5.499247314453125,-4.264507293701172,-0.21554182469844818,-0.6602098941802979
1740007292335229400,5.5092294921875,-4.257956027984619,0.09326370060443878,-0.727598249912262
1740007292345211400,5.51921142578125,-4.2560319900512695,0.39885953068733215,-0.8377050161361694
1740007292355193300,5.529193359375,-4.276003360748291,0.6594101786613464,-0.9857666492462158
1740007292365175300,5.53917529296875,-4.32088041305542,0.813068151473999,-1.176774263381958
1740007292375157200,5.5491572265625,-4.38575553894043,0.7524071931838989,-1.4052194356918335
1740007292385139500,5.559139404296875,-4.447502136230469,0.481168657541275,-1.6732935905456543
1740007292395121400,5.569121337890625,-4.476081848144531,0.10924225300550461,-1.966636300086975
1740007292405103400,5.579103271484375,-4.43876314163208,-0.19172510504722595,-2.2387285232543945
1740007292415085300,5.589085205078125,-4.28891134262085,-0.4215678870677948,-2.470532178878784
1740007292425067500,5.599067626953125,-4.027929782867432,-0.7333863973617554,-2.6580581665039062
1740007292435049200,5.60904931640625,-3.6397643089294434,-1.138408899307251,-2.8240950107574463
1740007292445031400,5.619031494140625,-3.096224308013916,-1.5618408918380737,-2.9966540336608887
1740007292455013400,5.629013427734375,-2.4229736328125,-1.9424114227294922,-3.167417049407959
1740007292464996400,5.638996337890625,-1.6738163232803345,-2.273664712905884,-3.2848973274230957
1740007292474978600,5.648978515625,-0.9821640849113464,-2.4878082275390625,-3.2431271076202393
1740007292484960300,5.658960205078125,-0.4890960156917572,-2.5205917358398438,-2.995595693588257
1740007292494942500,5.6689423828125,-0.22751766443252563,-2.3803837299346924,-2.5992825031280518
1740007292504924400,5.67892431640625,-0.1125241070985794,-2.1471405029296875,-2.0940420627593994
1740007292514906400,5.68890625,-0.06825891137123108,-1.9138119220733643,-1.5041438341140747
1740007292524888300,5.698888427734375,-0.027928553521633148,-1.6905514001846313,-0.875658392906189
1740007292534870300,5.708870361328125,0.02224859595298767,-1.5011497735977173,-0.2539581060409546
1740007292544852200,5.718852294921875,0.08485967665910721,-1.3498972654342651,0.28727826476097107
1740007292554834400,5.72883447265625,0.22100099921226501,-1.2257577180862427,0.7457270622253418
1740007292564816400,5.73881640625,0.41855305433273315,-1.126092553138733,1.1468541622161865
1740007292574798300,5.74879833984375,0.6817951202392578,-0.9915120601654053,1.4862748384475708
1740007292584780500,5.758780517578125,0.9692801237106323,-0.7385173439979553,1.7337839603424072
1740007292594763300,5.76876318359375,1.2614381313323975,-0.4227386713027954,1.904309630393982
1740007292604745500,5.778745361328125,1.5091034173965454,-0.08798906952142715,2.0443742275238037
1740007292614727200,5.78872705078125,1.6828030347824097,0.23518818616867065,2.215914487838745
1740007292624709400,5.79870947265625,1.8074151277542114,0.5294846296310425,2.4098949432373047
1740007292634691600,5.808691650390625,1.9773507118225098,0.8307430148124695,2.6168365478515625
1740007292644673300,5.81867333984375,2.2429397106170654,1.0644264221191406,2.8270106315612793
1740007292654655500,5.828655517578125,2.576540231704712,1.1339244842529297,3.0014946460723877
1740007292664637400,5.838637451171875,2.966181516647339,1.0344783067703247,3.132863998413086
1740007292674619400,5.848619384765625,3.3733150959014893,0.8541545867919922,3.2033915519714355
1740007292684601300,5.858601318359375,3.7267401218414307,0.6829624772071838,3.2353789806365967
1740007292694583300,5.868583251953125,3.994851589202881,0.6268331408500671,3.2303144931793213
1740007292704565200,5.878565185546875,4.172266960144043,0.6199566125869751,3.197674512863159
1740007292714547500,5.88854736328125,4.291125297546387,0.6312577128410339,3.1613852977752686
1740007292724529200,5.898529052734375,4.409693717956543,0.6287091374397278,3.1115853786468506
1740007292734512400,5.908512451171875,4.541718482971191,0.6045513153076172,3.0136866569519043
1740007292744494300,5.918494384765625,4.646124362945557,0.6201738715171814,2.813504934310913
1740007292754476300,5.928476318359375,4.729336261749268,0.6526098251342773,2.5260705947875977
1740007292764458500,5.93845849609375,4.761887073516846,0.6424537301063538,2.1908469200134277
1740007292774440200,5.948440185546875,4.721240520477295,0.5614576935768127,1.842485785484314
1740007292784422400,5.95842236328125,4.608419418334961,0.470411479473114,1.4841647148132324
1740007292794404400,5.968404296875,4.431378364562988,0.38479724526405334,1.0913207530975342
1740007292804386300,5.97838623046875,4.2420172691345215,0.2993834316730499,0.661453902721405
1740007292814368300,5.9883681640625,4.127986431121826,0.20537728071212769,0.2620295584201813
1740007292824350500,5.9983505859375,4.093635082244873,0.10150276869535446,-0.04187687486410141
1740007292834332400,6.00833251953125,4.076976776123047,0.01129591092467308,-0.26028215885162354
1740007292844314400,6.018314453125,4.060784339904785,-0.04377128556370735,-0.3986261785030365
1740007292854296300,6.02829638671875,4.04409122467041,-0.0814739242196083,-0.4803258180618286
1740007292864279300,6.038279296875,4.03037166595459,-0.10341062396764755,-0.5460615754127502
1740007292874261500,6.048261474609375,4.012249946594238,-0.09858711063861847,-0.5996132493019104
1740007292884243200,6.0582431640625,3.9728989601135254,-0.08261007815599442,-0.6318309903144836
1740007292894225400,6.068225341796875,3.9079668521881104,-0.0700993463397026,-0.6486770510673523
1740007292904207400,6.078207275390625,3.8185036182403564,-0.09035647660493851,-0.6799612641334534
1740007292914189300,6.088189208984375,3.7086071968078613,-0.1717466562986374,-0.7150455117225647
1740007292924171500,6.098171630859375,3.5727198123931885,-0.2794649302959442,-0.744299054145813
1740007292934153200,6.1081533203125,3.388123035430908,-0.3835356831550598,-0.771494448184967
1740007292944135400,6.118135498046875,3.123807668685913,-0.4439867436885834,-0.79451984167099
1740007292954117400,6.128117431640625,2.775339365005493,-0.4222191274166107,-0.8049703240394592
1740007292964099300,6.138099365234375,2.378319025039673,-0.35505807399749756,-0.769453227519989
1740007292974081300,6.148081298828125,1.9904245138168335,-0.31065332889556885,-0.6800461411476135
1740007292984063500,6.1580634765625,1.629831075668335,-0.29066818952560425,-0.5340465307235718
1740007292994046500,6.16804638671875,1.2748210430145264,-0.25834885239601135,-0.31918856501579285
1740007293004028400,6.1780283203125,0.8879538774490356,-0.15869717299938202,-0.05752061307430267
1740007293014010400,6.18801025390625,0.38021960854530334,0.01645519770681858,0.24190790951251984
1740007293023992300,6.197992431640625,-0.2699076533317566,0.21965955197811127,0.5857511162757874
1740007293033974500,6.207974609375,-0.9266615509986877,0.27367085218429565,0.9924831986427307
1740007293043956200,6.217956298828125,-1.4828288555145264,0.17572560906410217,1.4255326986312866
1740007293053938400,6.2279384765625,-1.9382165670394897,0.02601308375597,1.7851574420928955
1740007293063920400,6.23792041015625,-2.395490884780884,-0.0113416388630867,1.9353467226028442
1740007293073902300,6.24790234375,-2.8963003158569336,0.2240234762430191,1.7880139350891113
1740007293083884500,6.257884521484375,-3.451137065887451,0.7087578773498535,1.3917875289916992
1740007293093866200,6.2678662109375,-3.9809627532958984,1.1932415962219238,0.8973029255867004
1740007293103848400,6.277848388671875,-4.402980804443359,1.4421557188034058,0.4872756600379944
1740007293113830400,6.287830322265625,-4.640992641448975,1.479650855064392,0.19053348898887634
1740007293123813400,6.2978134765625,-4.697619915008545,1.432570219039917,-0.010765917599201202
1740007293133795300,6.30779541015625,-4.739498138427734,1.4596024751663208,-0.11826654523611069
1740007293143777300,6.31777734375,-4.703590393066406,1.260273814201355,-0.16429133713245392
1740007293153759500,6.327759521484375,-4.558445930480957,0.9965329766273499,-0.1450555920600891
1740007293163741400,6.337741455078125,-4.344942092895508,0.6093394160270691,-0.09022088348865509
1740007293173723400,6.347723388671875,-4.172774791717529,0.22658351063728333,-0.04942125454545021
1740007293183705300,6.357705322265625,-4.0655622482299805,-0.04331251233816147,-0.06691033393144608
1740007293193687600,6.3676875,-4.027584075927734,-0.185319721698761,-0.19817887246608734
1740007293203669200,6.377669189453125,-4.039809226989746,-0.27941155433654785,-0.41873520612716675
1740007293213651500,6.3876513671875,-4.068071365356445,-0.3748054504394531,-0.6601356267929077
1740007293223633400,6.39763330078125,-4.105041027069092,-0.5000461935997009,-0.8787938952445984
1740007293233615400,6.407615478515625,-4.111696720123291,-0.6218421459197998,-1.0350301265716553
1740007293243598300,6.417598388671875,-4.105376243591309,-0.691789448261261,-1.1383551359176636
1740007293253580500,6.42758056640625,-4.099292278289795,-0.6849642992019653,-1.1885623931884766
1740007293263562500,6.4375625,-4.096965789794922,-0.6060599088668823,-1.1815379858016968
1740007293273544400,6.44754443359375,-4.087728500366211,-0.47646191716194153,-1.1159517765045166
1740007293283526400,6.4575263671875,-4.082671165466309,-0.3450574576854706,-1.0112909078598022
1740007293293508600,6.467508544921875,-4.096697807312012,-0.22311265766620636,-0.8789230585098267
1740007293303490300,6.477490234375,-4.107512474060059,-0.11137951165437698,-0.7580265402793884
1740007293313472500,6.487472412109375,-4.0990071296691895,0.014541933313012123,-0.6874972581863403
1740007293323454500,6.497454345703125,-4.073868751525879,0.14918330311775208,-0.6528762578964233
1740007293333436400,6.5074365234375,-4.00931453704834,0.27501314878463745,-0.616891086101532
1740007293343418600,6.517418701171875,-3.924830913543701,0.34928861260414124,-0.5508767366409302
1740007293353400600,6.527400634765625,-3.8039469718933105,0.36577463150024414,-0.4329972267150879
1740007293363382500,6.537382568359375,-3.6403322219848633,0.3450537621974945,-0.29156914353370667
1740007293373364500,6.547364501953125,-3.445596933364868,0.23578424751758575,-0.1714552491903305
1740007293383347500,6.557347412109375,-3.221756935119629,0.035678353160619736,-0.08227162063121796
1740007293393329400,6.567329345703125,-2.985846996307373,-0.28018718957901,-0.011250438168644905
1740007293403311600,6.5773115234375,-2.756899356842041,-0.6296259164810181,0.06458684802055359
1740007293413293600,6.58729345703125,-2.5190494060516357,-0.8744189143180847,0.1541351079940796
1740007293423275500,6.597275634765625,-2.2779839038848877,-1.0404044389724731,0.22669149935245514
1740007293433257500,6.607257568359375,-2.04740047454834,-1.1735461950302124,0.24721062183380127
1740007293443239400,6.617239501953125,-1.836920976638794,-1.2523102760314941,0.18961438536643982
1740007293453221600,6.6272216796875,-1.6154125928878784,-1.3213623762130737,0.03492894023656845
1740007293463203300,6.637203369140625,-1.3329870700836182,-1.3676108121871948,-0.2004491090774536
1740007293473185500,6.647185546875,-0.9919961094856262,-1.3937249183654785,-0.47701066732406616
1740007293483167500,6.65716748046875,-0.6519516110420227,-1.3416430950164795,-0.7611590623855591
1740007293493149400,6.6671494140625,-0.3728587031364441,-1.2045283317565918,-1.031715750694275
1740007293503131400,6.67713134765625,-0.13405939936637878,-1.0888420343399048,-1.2395288944244385
1740007293513114400,6.6871142578125,0.1162194237112999,-1.0958088636398315,-1.3493744134902954
1740007293523096600,6.6970966796875,0.36563923954963684,-1.209938883781433,-1.3794444799423218
1740007293533078500,6.70707861328125,0.5811731219291687,-1.352095603942871,-1.3351750373840332
1740007293543060500,6.717060546875,0.7697153687477112,-1.4547908306121826,-1.211936116218567
1740007293553042400,6.72704248046875,0.9569521546363831,-1.5218894481658936,-1.0123462677001953
1740007293563024600,6.737024658203125,1.1272315979003906,-1.497162103652954,-0.7195293307304382
1740007293573006300,6.74700634765625,1.2865736484527588,-1.3322218656539917,-0.3486327826976776
1740007293582988500,6.756988525390625,1.4582713842391968,-1.0341655015945435,0.07103100419044495
1740007293592970500,6.766970458984375,1.6851420402526855,-0.6269892454147339,0.5164825320243835
1740007293602952400,6.776952392578125,1.9573427438735962,-0.15386947989463806,0.9741865396499634
1740007293612934700,6.7869345703125,2.2436580657958984,0.35395699739456177,1.4461649656295776
1740007293622916400,6.796916259765625,2.529052257537842,0.8856979608535767,1.948041558265686
1740007293632899600,6.806899658203125,2.8445849418640137,1.4509224891662598,2.4758975505828857
1740007293642881300,6.81688134765625,3.2088329792022705,2.0233681201934814,3.0192549228668213
1740007293652863500,6.826863525390625,3.641993522644043,2.271817207336426,3.514662027359009
1740007293662845400,6.836845458984375,4.084845542907715,2.392385482788086,3.9196090698242188
1740007293672827400,6.846827392578125,4.488729000091553,2.44974684715271,4.172505855560303
1740007293682809600,6.8568095703125,4.7504730224609375,2.404940605163574,4.230936527252197
1740007293692791600,6.86679150390625,4.847857475280762,2.1955270767211914,4.128479957580566
1740007293702773500,6.8767734375,4.800992012023926,1.9275223016738892,3.8710951805114746
1740007293712755500,6.88675537109375,4.656002521514893,1.6487213373184204,3.491194248199463
1740007293722737700,6.896737548828125,4.447958469390869,1.3786512613296509,3.0309677124023438
1740007293732719400,6.90671923828125,4.202579498291016,1.1576118469238281,2.5807857513427734
1740007293742701600,6.91670166015625,3.9526124000549316,1.066396951675415,2.1831352710723877
1740007293752683500,6.92668359375,3.7383227348327637,1.0493947267532349,1.7664188146591187
1740007293762666500,6.93666650390625,3.5865020751953125,1.0037481784820557,1.3666176795959473
1740007293772648400,6.9466484375,3.494497776031494,0.9087083339691162,0.985714852809906
1740007293782630400,6.95663037109375,3.4830715656280518,0.8143966197967529,0.6433171629905701
1740007293792612600,6.966612548828125,3.574491024017334,0.7488892674446106,0.3707064092159271
1740007293802594300,6.97659423828125,3.7287726402282715,0.7141023874282837,0.19503886997699738
1740007293812576500,6.986576416015625,3.8774478435516357,0.7396764755249023,0.07599584013223648
1740007293822558500,6.996558349609375,3.9858016967773438,0.8310774564743042,-0.010457091964781284
1740007293832540400,7.00654052734375,4.058197498321533,0.9457728862762451,-0.08013656735420227
1740007293842522400,7.0165224609375,4.092117786407471,1.0312684774398804,-0.1460733264684677
1740007293852504600,7.026504638671875,4.111175537109375,1.0582332611083984,-0.21262678503990173
1740007293862486500,7.036486572265625,4.109415531158447,1.0351636409759521,-0.2936246693134308
1740007293872468500,7.046468505859375,4.059231281280518,0.9616143703460693,-0.3865197002887726
1740007293882450700,7.05645068359375,3.980894088745117,0.8708887696266174,-0.4877307116985321
1740007293892433400,7.066433349609375,3.8493905067443848,0.785822868347168,-0.562276303768158
1740007293902415600,7.07641552734375,3.6495039463043213,0.6976222991943359,-0.6162962913513184
1740007293912397300,7.086397216796875,3.4149322509765625,0.6488733887672424,-0.6615750789642334
1740007293922379500,7.096379638671875,3.1632654666900635,0.6525501608848572,-0.7310630679130554
1740007293932361700,7.10636181640625,2.897024393081665,0.7197390198707581,-0.8004157543182373
1740007293942343400,7.116343505859375,2.644282579421997,0.7955141067504883,-0.8633837103843689
1740007293952325600,7.12632568359375,2.4135751724243164,0.8372693061828613,-0.9240800738334656
1740007293962307300,7.136307373046875,2.195638418197632,0.8181619048118591,-0.9727874994277954
1740007293972289500,7.14628955078125,1.9957540035247803,0.7341088056564331,-0.9860968589782715
1740007293982271500,7.156271484375,1.7954776287078857,0.5867450833320618,-0.9703986644744873
1740007293992253400,7.16625341796875,1.5766488313674927,0.3795658051967621,-0.8964219093322754
1740007294002235400,7.1762353515625,1.3317921161651611,0.1534135788679123,-0.7730046510696411
1740007294012218400,7.18621826171875,1.053857684135437,-0.07790672779083252,-0.598918616771698
1740007294022200600,7.19620068359375,0.7272501587867737,-0.29836076498031616,-0.4063563644886017
1740007294032182500,7.2061826171875,0.3389178514480591,-0.4743078351020813,-0.21369262039661407
1740007294042164500,7.21616455078125,-0.10980397462844849,-0.5990116596221924,-0.04133521392941475
1740007294052146400,7.226146484375,-0.5798391103744507,-0.6589053869247437,0.09287185966968536
1740007294062128600,7.236128662109375,-1.0254093408584595,-0.6813152432441711,0.18166066706180573
1740007294072110300,7.2461103515625,-1.448520302772522,-0.7127866148948669,0.2458186149597168
1740007294082092500,7.256092529296875,-1.8766061067581177,-0.7580188512802124,0.2884658873081207
1740007294092074500,7.266074462890625,-2.3142292499542236,-0.7857484817504883,0.3177209794521332
1740007294102056400,7.276056396484375,-2.7499663829803467,-0.801658034324646,0.32595160603523254
1740007294112038400,7.286038330078125,-3.171724557876587,-0.7768275141716003,0.30022841691970825
1740007294122020600,7.2960205078125,-3.5943267345428467,-0.6533295512199402,0.2321745604276657
1740007294132003600,7.306003662109375,-4.0350494384765625,-0.37394803762435913,0.08599577099084854
1740007294141985500,7.315985595703125,-4.468287467956543,0.04096164554357529,-0.12000342458486557
1740007294151967500,7.325967529296875,-4.889568328857422,0.5157265663146973,-0.3338371515274048
1740007294161949400,7.335949462890625,-5.2837700843811035,0.9189461469650269,-0.4971666932106018
1740007294171931400,7.345931396484375,-5.620222091674805,1.1720508337020874,-0.5772359371185303
1740007294181913300,7.355913330078125,-5.8893842697143555,1.1979998350143433,-0.5698314309120178
1740007294191895600,7.3658955078125,-6.067408084869385,1.020796298980713,-0.5104972720146179
1740007294201877500,7.37587744140625,-6.096909046173096,0.6998339891433716,-0.422627329826355
1740007294211859500,7.385859375,-5.9588398933410645,0.25358352065086365,-0.35142213106155396
1740007294221841700,7.395841552734375,-5.673468589782715,-0.2602962851524353,-0.2877890169620514
1740007294231823400,7.4058232421875,-5.319035053253174,-0.7558053731918335,-0.24325482547283173
1740007294241805600,7.4158056640625,-4.993565559387207,-1.1573349237442017,-0.20373940467834473
1740007294251787800,7.425787841796875,-4.758886337280273,-1.5358657836914062,-0.15391965210437775
1740007294261771000,7.43577099609375,-4.616533279418945,-1.9441639184951782,-0.05473354086279869
1740007294271753000,7.4457529296875,-4.503622531890869,-2.339494228363037,0.12147025763988495
1740007294281735000,7.45573486328125,-4.393111228942871,-2.5594394207000732,0.367652952671051
1740007294291717000,7.465717041015625,-4.299301624298096,-2.6169469356536865,0.6560271978378296
1740007294301698800,7.47569873046875,-4.22272253036499,-2.4974470138549805,0.935949981212616
1740007294311681000,7.485680908203125,-4.1438469886779785,-2.209439516067505,1.1851999759674072
1740007294321663000,7.4956630859375,-4.019362926483154,-1.8142881393432617,1.4099243879318237
1740007294331645000,7.50564501953125,-3.8429667949676514,-1.3690468072891235,1.597790002822876
1740007294341627000,7.515626953125,-3.6256866455078125,-0.9321052432060242,1.7375171184539795
1740007294351609000,7.525609130859375,-3.394087314605713,-0.5316622257232666,1.822300672531128
1740007294361591000,7.535591064453125,-3.162834405899048,-0.2840873599052429,1.8338627815246582
1740007294371573000,7.545572998046875,-2.9130568504333496,-0.050995223224163055,1.7814658880233765
1740007294381556000,7.555555908203125,-2.681870937347412,-0.02105054259300232,1.660002589225769
1740007294391538000,7.565537841796875,-2.497800350189209,-0.02738274075090885,1.458024263381958
1740007294401520000,7.57552001953125,-2.322850465774536,0.013710865750908852,1.1606740951538086
1740007294411501800,7.585501708984375,-2.1028759479522705,0.020125355571508408,0.7950515747070312
1740007294421484000,7.595484130859375,-1.8465063571929932,0.015987006947398186,0.4314381182193756
1740007294431466000,7.605466064453125,-1.6056040525436401,0.006541572045534849,0.11868847906589508
1740007294441448000,7.615447998046875,-1.421005129814148,-0.00881672278046608,-0.16302774846553802
1740007294451430100,7.62543017578125,-1.3012765645980835,-0.1181059330701828,-0.43761029839515686
1740007294461411800,7.635411865234375,-1.2185993194580078,-0.38654372096061707,-0.7257448434829712
1740007294471394000,7.64539404296875,-1.1554679870605469,-0.796859622001648,-1.0166077613830566
1740007294481376000,7.6553759765625,-1.1454322338104248,-1.2359857559204102,-1.2878764867782593
1740007294491358000,7.66535791015625,-1.1718811988830566,-1.4980213642120361,-1.541473627090454
1740007294501340000,7.67533984375,-1.1370047330856323,-1.4761985540390015,-1.7693461179733276
1740007294511323000,7.685322998046875,-1.0088715553283691,-1.2472410202026367,-1.9757843017578125
1740007294521305000,7.69530517578125,-0.8124715685844421,-0.8836426138877869,-2.149946689605713
1740007294531287000,7.705287109375,-0.5739173293113708,-0.5190481543540955,-2.2493200302124023
1740007294541269000,7.71526904296875,-0.3140503168106079,-0.282382071018219,-2.2429254055023193
1740007294551251000,7.7252509765625,-0.03385142236948013,-0.19277121126651764,-2.1419436931610107
1740007294561233200,7.735233154296875,0.28139299154281616,-0.21748928725719452,-1.925044298171997
1740007294571214800,7.74521484375,0.6445805430412292,-0.304103285074234,-1.6100469827651978
1740007294581197000,7.755197021484375,1.0438165664672852,-0.37059250473976135,-1.208612322807312
1740007294591179000,7.765178955078125,1.4458047151565552,-0.33316096663475037,-0.7430053949356079
1740007294601161000,7.775160888671875,1.8725124597549438,-0.19851945340633392,-0.2690824866294861
1740007294611143000,7.785142822265625,2.3332808017730713,0.03276250883936882,0.14913314580917358
1740007294621124900,7.795124755859375,2.8035950660705566,0.3742021322250366,0.490256130695343
1740007294631108000,7.805108154296875,3.2403531074523926,0.8091344237327576,0.7673553824424744
1740007294641089800,7.81508984375,3.623626947402954,1.2915462255477905,1.0054738521575928
1740007294651072000,7.825072021484375,3.952824592590332,1.7773009538650513,1.2231005430221558
1740007294661054000,7.835053955078125,4.245388507843018,2.196173667907715,1.4061355590820312
1740007294671036000,7.845035888671875,4.518417835235596,2.4878387451171875,1.5289866924285889
1740007294681017900,7.855017822265625,4.754550457000732,2.6027727127075195,1.5660229921340942
1740007294691000000,7.865,4.917415618896484,2.534342050552368,1.4771019220352173
1740007294700982000,7.87498193359375,4.989399433135986,2.3196020126342773,1.267959475517273
1740007294710964000,7.8849638671875,4.979974269866943,1.965294599533081,0.958157479763031
1740007294720946200,7.8949462890625,4.940714359283447,1.5095235109329224,0.5948014855384827
1740007294730929000,7.904928955078125,4.860757350921631,0.9517822861671448,0.18805943429470062
1740007294740911000,7.9149111328125,4.727433204650879,0.6421064734458923,-0.2158653885126114
1740007294750892800,7.924892822265625,4.5346150398254395,0.2982025444507599,-0.5702762603759766
1740007294760875000,7.934875,4.321136474609375,0.06776109337806702,-0.8527729511260986
1740007294770857200,7.944857177734375,4.150908470153809,-0.024893105030059814,-1.008347749710083
1740007294780839000,7.9548388671875,4.023443698883057,-0.09306949377059937,-1.038659930229187
1740007294790821000,7.964821044921875,3.9144623279571533,-0.1975814253091812,-0.960383415222168
1740007294800803000,7.974802978515625,3.85302472114563,-0.295561283826828,-0.8083637356758118
1740007294810785000,7.984784912109375,3.837009906768799,-0.31192293763160706,-0.6453229188919067
1740007294820767000,7.99476708984375,3.840345621109009,-0.2797364890575409,-0.4518953859806061
1740007294830749000,8.0047490234375,3.8772740364074707,-0.24739588797092438,-0.23139655590057373
1740007294840732200,8.014732177734375,3.9406843185424805,-0.12625615298748016,-0.023538971319794655
1740007294850713900,8.0247138671875,4.02366828918457,0.05896786227822304,0.1719357818365097
1740007294860696000,8.034696044921875,4.073677062988281,0.29522648453712463,0.3115754723548889
1740007294870678000,8.044677978515624,4.093296051025391,0.5391558408737183,0.41533514857292175
1740007294880660000,8.054659912109376,4.077232360839844,0.7749392986297607,0.4896157681941986
1740007294890642000,8.064641845703125,4.016980171203613,0.9625564217567444,0.5231559872627258
1740007294900624100,8.0746240234375,3.905712127685547,1.071819543838501,0.4936386048793793
1740007294910605800,8.084605712890625,3.746189832687378,1.1167858839035034,0.4282478392124176
1740007294920588000,8.094588134765624,3.530301094055176,1.0829885005950928,0.34889471530914307
1740007294930570000,8.104570068359376,3.258607864379883,0.9833586812019348,0.2601856589317322
1740007294940552000,8.114552001953125,2.962000608444214,0.8667753338813782,0.14698483049869537
1740007294950534100,8.1245341796875,2.6783246994018555,0.7789490222930908,0.024207383394241333
1740007294960516000,8.13451611328125,2.404284715652466,0.7267494201660156,-0.1108633503317833
1740007294970499000,8.1444990234375,2.1417806148529053,0.7042296528816223,-0.27534937858581543
1740007294980481000,8.15448095703125,1.9115368127822876,0.6786433458328247,-0.4566688537597656
1740007294990463000,8.164462890625,1.7057034969329834,0.6381245255470276,-0.6429341435432434
1740007295000445000,8.17444482421875,1.5224570035934448,0.5530604720115662,-0.8218663334846497
1740007295010427000,8.184427001953125,1.3461248874664307,0.44889748096466064,-0.9690026640892029
1740007295020409000,8.1944091796875,1.1560393571853638,0.33246487379074097,-1.0772912502288818
1740007295030391000,8.20439111328125,0.9505684971809387,0.20903587341308594,-1.1238175630569458
1740007295040373000,8.214373046875,0.7119978070259094,0.03164520859718323,-1.1128242015838623
1740007295050355000,8.22435498046875,0.40956005454063416,-0.15045179426670074,-1.0743427276611328
1740007295060337200,8.234337158203125,0.03852393478155136,-0.3152383267879486,-1.025224208831787
1740007295070318800,8.24431884765625,-0.40688830614089966,-0.4412575662136078,-0.9545857906341553
1740007295080302000,8.254302001953125,-0.9147928357124329,-0.5407572984695435,-0.8606390357017517
1740007295090284000,8.264283935546874,-1.4640687704086304,-0.6393119096755981,-0.7626955509185791
1740007295100265000,8.274264892578126,-2.0611629486083984,-0.7885764837265015,-0.7026095986366272
1740007295110248200,8.284248291015626,-2.7289233207702637,-1.060777187347412,-0.7737519145011902
1740007295120230000,8.29422998046875,-3.4407711029052734,-1.439493179321289,-1.0480318069458008
1740007295130212000,8.304212158203125,-4.152652263641357,-1.8671811819076538,-1.5593899488449097
1740007295140194000,8.314194091796875,-4.804823875427246,-2.2586207389831543,-2.2491981983184814
1740007295150176000,8.324176025390624,-5.321333408355713,-2.5359444618225098,-2.992702007293701
1740007295160158000,8.334157958984376,-5.706016540527344,-2.6274735927581787,-3.6586248874664307
1740007295170140000,8.344139892578125,-5.946908950805664,-2.421642541885376,-4.190629482269287
1740007295180121900,8.354121826171875,-5.9873175621032715,-1.9208605289459229,-4.577759742736816
1740007295190104000,8.36410400390625,-5.760159492492676,-1.1244171857833862,-4.747340679168701
1740007295200085800,8.374085693359374,-5.300367832183838,-0.16822341084480286,-4.648027420043945
1740007295210068000,8.38406787109375,-4.755075931549072,0.6428481340408325,-4.302236080169678
1740007295220050200,8.39405029296875,-4.271766185760498,1.1827526092529297,-3.7972497940063477
1740007295230033000,8.404032958984375,-3.954601764678955,1.5470349788665771,-3.205878734588623
1740007295240015000,8.41401513671875,-3.816927909851074,1.788428783416748,-2.6198713779449463
1740007295249996800,8.423996826171875,-3.755575180053711,1.8313264846801758,-2.0651345252990723
1740007295259979000,8.43397900390625,-3.699150562286377,1.7120260000228882,-1.5544897317886353
1740007295269961000,8.4439609375,-3.6483352184295654,1.535632848739624,-1.1271312236785889
1740007295279943000,8.45394287109375,-3.6082491874694824,1.4081568717956543,-0.8454466462135315
1740007295289925000,8.463925048828125,-3.5725765228271484,1.381357192993164,-0.7039217352867126
1740007295299907000,8.473906982421875,-3.538719892501831,1.3875646591186523,-0.6294581294059753
1740007295309889000,8.483888916015625,-3.535537004470825,1.3920661211013794,-0.5469227433204651
1740007295319871000,8.49387109375,-3.5404584407806396,1.4125802516937256,-0.38842543959617615
1740007295329853200,8.503853271484376,-3.528026819229126,1.4311643838882446,-0.15233542025089264
1740007295339835000,8.5138349609375,-3.3962409496307373,1.471002221107483,0.1119169369339943
1740007295349818000,8.523818115234375,-3.251171588897705,1.5161771774291992,0.42122259736061096
1740007295359800000,8.533800048828125,-3.0896925926208496,1.541864037513733,0.751288115978241
1740007295369782000,8.543781982421875,-2.900479555130005,1.5565905570983887,1.047542691230774
1740007295379764000,8.553763916015624,-2.6928963661193848,1.553542971611023,1.3003242015838623
1740007295389746000,8.563745849609376,-2.501509189605713,1.5322940349578857,1.4734933376312256
1740007295399728000,8.57372802734375,-2.3470447063446045,1.4330109357833862,1.5609763860702515
1740007295409709800,8.583709716796875,-2.1987369060516357,1.310770869255066,1.5208353996276855
1740007295419692000,8.593692138671875,-2.050684690475464,1.154485821723938,1.3599717617034912
1740007295429674000,8.603674072265624,-1.923152208328247,0.9694496989250183,1.0802967548370361
1740007295439656000,8.613656005859376,-1.832273244857788,0.6631951332092285,0.7796307802200317
1740007295449638000,8.623637939453126,-1.848592758178711,0.5198315382003784,0.4108617901802063
1740007295459620900,8.633620849609375,-1.9063944816589355,0.30262938141822815,0.02484423667192459
1740007295469603000,8.64360302734375,-1.9739433526992798,0.061714764684438705,-0.31896504759788513
1740007295479585000,8.6535849609375,-2.0376813411712646,-0.19066482782363892,-0.6196160316467285
1740007295489567000,8.66356689453125,-2.1116526126861572,-0.4230059087276459,-0.9622873663902283
1740007295499549000,8.673548828125,-2.1832149028778076,-0.6629562377929688,-1.333255410194397
1740007295509531100,8.68353125,-2.235551357269287,-0.8687996864318848,-1.696289300918579
1740007295519512800,8.693512939453125,-2.2934041023254395,-1.0034526586532593,-2.0068342685699463
1740007295529495000,8.7034951171875,-2.398258686065674,-1.0345381498336792,-2.2436671257019043
1740007295539477000,8.71347705078125,-2.529107093811035,-0.9284218549728394,-2.3934526443481445
1740007295549459000,8.723458984375,-2.6013448238372803,-0.7124472260475159,-2.4349162578582764
1740007295559441200,8.733441162109376,-2.4748361110687256,-0.4311533570289612,-2.334624767303467
1740007295569422800,8.7434228515625,-2.0880463123321533,-0.20948539674282074,-2.029571294784546
1740007295579406000,8.753406005859375,-1.5389106273651123,-0.12713101506233215,-1.510810375213623
1740007295589387800,8.7633876953125,-0.9155396223068237,-0.15268218517303467,-0.8186308145523071
1740007295599370000,8.773369873046875,-0.2562362551689148,-0.17653197050094604,-0.06756466627120972
1740007295609352000,8.78335205078125,0.4573449492454529,-0.13776007294654846,0.6173324584960938
1740007295619334000,8.793333984375,1.2274717092514038,0.0013179774396121502,1.1490094661712646
1740007295629316000,8.803316162109375,2.0044658184051514,0.21708276867866516,1.507555603981018
1740007295639298000,8.813298095703125,2.702176094055176,0.4548245370388031,1.7237322330474854
1740007295649280000,8.823280029296875,3.250757932662964,0.620069146156311,1.8655627965927124
1740007295659262000,8.833261962890624,3.6862614154815674,0.6760452389717102,1.9917576313018799
1740007295669244200,8.843244140625,4.0544352531433105,0.6468253135681152,2.098970890045166
1740007295679225900,8.853225830078125,4.386444568634033,0.6048293709754944,2.1640796661376953
1740007295689208000,8.8632080078125,4.679296970367432,0.5617056488990784,2.1634340286254883
1740007295699191000,8.87319091796875,4.907070159912109,0.5066161155700684,2.1062254905700684
1740007295709173000,8.883173095703125,5.023013591766357,0.41971370577812195,2.034224033355713
1740007295719155200,8.8931552734375,5.02969217300415,0.29004085063934326,1.981872320175171
1740007295729137000,8.903136962890626,4.931456565856934,0.17001299560070038,1.961030125617981
1740007295739119000,8.913119140625,4.755014896392822,0.10284104198217392,1.9566601514816284
1740007295749100800,8.923100830078125,4.533804893493652,0.07078856974840164,1.952655553817749
1740007295759083000,8.9330830078125,4.340433120727539,0.12224041670560837,1.9434224367141724
1740007295769065000,8.94306494140625,4.197233200073242,0.28604504466056824,1.9210931062698364
1740007295779047000,8.953046875,4.090720176696777,0.5110765695571899,1.8512684106826782
1740007295789028900,8.96302880859375,4.0052995681762695,0.6249021887779236,1.749224305152893
1740007295799011000,8.973010986328125,3.908630847930908,0.6457402110099792,1.637738823890686
1740007295808994000,8.982994140625,3.8075103759765625,0.6127172708511353,1.4940370321273804
1740007295818976000,8.99297607421875,3.7244200706481934,0.5076636672019958,1.3076812028884888
1740007295828958000,9.0029580078125,3.7042078971862793,0.32694098353385925,1.09502375125885
1740007295838940000,9.01293994140625,3.75597882270813,0.18168479204177856,0.8949817419052124
1740007295848922000,9.022922119140626,3.8284733295440674,0.15471228957176208,0.7245908379554749
1740007295858903800,9.03290380859375,3.8779187202453613,0.193450465798378,0.5833618640899658
1740007295868886000,9.042885986328125,3.9096760749816895,0.27016308903694153,0.47518905997276306
1740007295878868200,9.0528681640625,3.9348247051239014,0.35842204093933105,0.3882402181625366
1740007295888850000,9.062849853515624,3.943463087081909,0.42592358589172363,0.3399384915828705
1740007295898832100,9.07283203125,3.910391092300415,0.4845646023750305,0.302901953458786
1740007295908814000,9.08281396484375,3.8231375217437744,0.5200496315956116,0.2289305329322815
1740007295918796000,9.092796142578125,3.698725700378418,0.5129812955856323,0.1453697681427002
1740007295928779000,9.102779052734375,3.540308952331543,0.4536902606487274,0.06975224614143372
1740007295938761000,9.112760986328125,3.3522346019744873,0.37133854627609253,-0.019749807193875313
1740007295948743200,9.1227431640625,3.157959461212158,0.2618035078048706,-0.11759115010499954
1740007295958724900,9.132724853515626,2.964991331100464,0.18645155429840088,-0.26314032077789307
1740007295968707000,9.14270703125,2.782874345779419,0.1323971003293991,-0.42100077867507935
1740007295978689000,9.15268896484375,2.592949390411377,0.10442923754453659,-0.5632930994033813
1740007295988671000,9.1626708984375,2.401599884033203,0.07410728931427002,-0.6550586819648743
1740007295998653000,9.17265283203125,2.2266972064971924,0.0041088503785431385,-0.7068600058555603
1740007296008635100,9.18263525390625,2.054608106613159,-0.12167757004499435,-0.7366360425949097
1740007296018616800,9.192616943359376,1.8884913921356201,-0.27433276176452637,-0.7367104291915894
1740007296028599000,9.20259912109375,1.7500765323638916,-0.42071208357810974,-0.7389221787452698
1740007296038582000,9.21258203125,1.6446559429168701,-0.5916542410850525,-0.7769870758056641
1740007296048564000,9.22256396484375,1.5322846174240112,-0.8036296367645264,-0.8451882004737854
1740007296058546200,9.232546142578125,1.359838604927063,-1.0354645252227783,-0.9312983751296997
1740007296068527900,9.24252783203125,1.0829944610595703,-1.220637559890747,-1.0451146364212036
1740007296078510000,9.252510009765626,0.7065280079841614,-1.3284064531326294,-1.195383071899414
1740007296088492000,9.262491943359375,0.24537265300750732,-1.3713957071304321,-1.3608051538467407
1740007296098474000,9.272473876953125,-0.30524635314941406,-1.3317140340805054,-1.5091160535812378
1740007296108456000,9.2824560546875,-0.9382416605949402,-1.166753888130188,-1.6038514375686646
1740007296118438000,9.29243798828125,-1.616281509399414,-0.8741909265518188,-1.624297857284546
1740007296128419800,9.302419921875,-2.272573709487915,-0.5466610193252563,-1.5599579811096191
1740007296138402000,9.312402099609375,-2.8342363834381104,-0.23723861575126648,-1.4080424308776855
1740007296148385000,9.322385009765625,-3.2448136806488037,0.02600739523768425,-1.1892433166503906
1740007296158367000,9.332366943359375,-3.493582010269165,0.21395690739154816,-0.9355837106704712
1740007296168349000,9.342348876953125,-3.64025616645813,0.3541789948940277,-0.7065188884735107
1740007296178331000,9.352330810546874,-3.7733428478240967,0.5097648501396179,-0.5509782433509827
1740007296188313000,9.36231298828125,-3.9130640029907227,0.7206584215164185,-0.4693416655063629
1740007296198294800,9.372294677734375,-4.03640604019165,0.9223960638046265,-0.4342508912086487
1740007296208277000,9.382277099609375,-4.146979331970215,1.0303633213043213,-0.43500828742980957
1740007296218259200,9.39225927734375,-4.258251190185547,1.010879635810852,-0.4517773389816284
1740007296228241000,9.402240966796874,-4.340170383453369,0.8799871206283569,-0.4580799639225006
1740007296238223000,9.41222314453125,-4.358976364135742,0.6967257261276245,-0.4711776673793793
1740007296248204800,9.422204833984376,-4.306527137756348,0.5139966607093811,-0.48726314306259155
1740007296258186500,9.4321865234375,-4.19288444519043,0.3542006015777588,-0.5022034645080566
1740007296268169700,9.442169677734375,-4.056845188140869,0.26904258131980896,-0.499258816242218
1740007296278151700,9.452151611328125,-3.947160243988037,0.2936190664768219,-0.4458480179309845
1740007296288133600,9.462133544921874,-3.875537633895874,0.41976022720336914,-0.3412555456161499
1740007296298115800,9.47211572265625,-3.8172380924224854,0.6218610405921936,-0.177768737077713
1740007296308097500,9.48209765625,-3.754845142364502,0.8394985198974609,0.03821496292948723
1740007296318079700,9.492079833984375,-3.7081408500671387,1.0260546207427979,0.30870935320854187
1740007296328061700,9.502061767578125,-3.67714262008667,1.1557036638259888,0.5760347843170166
1740007296338043600,9.512043701171875,-3.630540132522583,1.2226008176803589,0.8174930810928345
1740007296348025600,9.522025634765624,-3.562892198562622,1.2354001998901367,1.023640513420105
1740007296358007600,9.532007568359376,-3.466883897781372,1.2426177263259888,1.1780710220336914
1740007296367989500,9.541989501953125,-3.366107702255249,1.2516919374465942,1.2714706659317017
1740007296377972500,9.551972412109375,-3.2784252166748047,1.248779296875,1.3111660480499268
1740007296387954700,9.56195458984375,-3.197294235229492,1.2119693756103516,1.3046482801437378
1740007296397936600,9.5719365234375,-3.130296230316162,1.1296539306640625,1.2488290071487427
1740007296407918600,9.581918701171874,-3.088226556777954,1.0054116249084473,1.1536142826080322
1740007296417900500,9.591900634765626,-3.0809378623962402,0.8441088199615479,1.0172125101089478
1740007296427882800,9.6018828125,-3.095459461212158,0.608140230178833,0.829529881477356
1740007296437864400,9.611864501953125,-3.0884718894958496,0.5218146443367004,0.6259334087371826
1740007296447846700,9.6218466796875,-3.089271306991577,0.3028756380081177,0.40606948733329773
1740007296457828900,9.631828857421874,-3.043828010559082,0.1417970508337021,0.17847628891468048
1740007296467810600,9.641810546875,-2.9453113079071045,-0.03647175431251526,-0.05485496297478676
1740007296477792800,9.651792724609376,-2.7818546295166016,-0.19845829904079437,-0.25432252883911133
1740007296487775500,9.661775390625,-2.5585412979125977,-0.29644906520843506,-0.40053674578666687
1740007296497757700,9.6717578125,-2.30859112739563,-0.39738669991493225,-0.5189966559410095
1740007296507739600,9.68173974609375,-2.059868812561035,-0.46762970089912415,-0.6275804042816162
1740007296517721600,9.6917216796875,-1.8221595287322998,-0.5061045289039612,-0.7162867188453674
1740007296527703800,9.701703857421874,-1.5928189754486084,-0.5114579796791077,-0.7625284790992737
1740007296537685800,9.711685791015626,-1.3554027080535889,-0.42371296882629395,-0.7857070565223694
1740007296547667700,9.721667724609375,-1.0934592485427856,-0.2889029383659363,-0.8067278861999512
1740007296557649700,9.731649658203125,-0.8395201563835144,-0.15648296475410461,-0.8079349994659424
1740007296567631600,9.741631591796875,-0.5787751078605652,-0.053508907556533813,-0.7501923441886902
1740007296577613600,9.751613525390624,-0.293761283159256,-0.00010208319872617722,-0.6271576881408691
1740007296587595800,9.761595703125,0.011899814009666443,-0.025644194334745407,-0.47394707798957825
1740007296597578800,9.771578857421876,0.29704880714416504,-0.1459008753299713,-0.29478776454925537
1740007296607560700,9.781560791015625,0.5754133462905884,-0.3380165100097656,-0.11519616842269897
1740007296617542700,9.791542724609375,0.87193763256073,-0.457379549741745,0.01796174794435501
1740007296627524600,9.801524658203125,1.2335479259490967,-0.4031200408935547,0.05774298310279846
1740007296637506800,9.8115068359375,1.6627124547958374,-0.18727144598960876,-0.005779652390629053
1740007296647488500,9.821488525390626,2.1361567974090576,0.11708365380764008,-0.12676279246807098
1740007296657470700,9.831470703125,2.6097052097320557,0.3726179599761963,-0.21030022203922272
1740007296667452700,9.84145263671875,3.0437231063842773,0.5108451247215271,-0.16418945789337158
1740007296677434600,9.8514345703125,3.4321067333221436,0.5097393989562988,-0.02562188357114792
1740007296687416600,9.86141650390625,3.7638351917266846,0.3963095545768738,0.16581200063228607
1740007296697398800,9.871398681640626,4.016435623168945,0.23619140684604645,0.3893709182739258
1740007296707381800,9.8813818359375,4.183798313140869,0.08183272927999496,0.5853390693664551
1740007296717363700,9.89136376953125,4.251793384552002,-0.0038113833870738745,0.6850906610488892
1740007296727345700,9.901345703125,4.2052178382873535,-0.01549493707716465,0.6632362604141235
1740007296737327600,9.91132763671875,4.110752582550049,0.010549027472734451,0.5981207489967346
1740007296747309600,9.9213095703125,4.019069194793701,0.057433441281318665,0.48505303263664246
1740007296757291500,9.93129150390625,3.917898654937744,0.13431133329868317,0.42074206471443176
1740007296767273700,9.941273681640626,3.8528823852539062,0.24345751106739044,0.42002326250076294
1740007296777255700,9.951255615234375,3.864908456802368,0.4175812900066376,0.5287108421325684
1740007296787237600,9.961237548828125,3.9168593883514404,0.6235482692718506,0.7037659883499146
1740007296797219800,9.9712197265625,3.9506218433380127,0.7669423818588257,0.8707944750785828
1740007296807201500,9.981201416015624,3.9278335571289062,0.7811905145645142,1.0379135608673096
1740007296817184800,9.991184814453124,3.8976457118988037,0.7113727331161499,1.1581740379333496
1740007296827166500,10.00116650390625,3.881263256072998,0.6461910605430603,1.1965376138687134
1740007296837148700,10.011148681640625,3.8772552013397217,0.5172464847564697,1.1706875562667847
1740007296847131000,10.021130859375,3.9098784923553467,0.3838743269443512,1.1052275896072388
1740007296857112600,10.031112548828125,3.955869436264038,0.2978125512599945,1.0562046766281128
1740007296867094800,10.0410947265625,3.9827828407287598,0.2819078862667084,1.0204493999481201
1740007296877076700,10.05107666015625,3.983405590057373,0.28906744718551636,0.9976877570152283
1740007296887058700,10.06105859375,3.9792637825012207,0.3369590938091278,0.9894583821296692
1740007296897040600,10.07104052734375,3.9667508602142334,0.3969821035861969,0.991804301738739
1740007296907022600,10.081022705078125,3.9468090534210205,0.4209252595901489,0.9725903868675232
1740007296917004500,10.091004638671874,3.900118112564087,0.3961614668369293,0.9321408271789551
1740007296926987800,10.10098779296875,3.8254377841949463,0.3442266285419464,0.8618341684341431
1740007296936969700,10.1109697265625,3.7173285484313965,0.28669291734695435,0.7731427550315857
1740007296946951700,10.12095166015625,3.5726780891418457,0.22270168364048004,0.676057755947113
1740007296956933600,10.13093359375,3.408169746398926,0.1580878496170044,0.5878027677536011
1740007296966915600,10.14091552734375,3.219691753387451,0.1267767995595932,0.5061880350112915
1740007296976897800,10.150897705078124,3.0143473148345947,0.12674875557422638,0.4165036678314209
1740007296986879500,10.16087939453125,2.7923789024353027,0.17061582207679749,0.3012883961200714
1740007296996861700,10.17086181640625,2.558659553527832,0.23019638657569885,0.16573916375637054
1740007297006843600,10.18084375,2.3081493377685547,0.2842777371406555,0.021199289709329605
1740007297016825600,10.19082568359375,2.031907320022583,0.3042103350162506,-0.1298084408044815
1740007297026807600,10.2008076171875,1.7421059608459473,0.29938387870788574,-0.28400254249572754
1740007297036790500,10.21079052734375,1.468436598777771,0.25171104073524475,-0.4154946208000183
1740007297046772700,10.220772705078126,1.2205182313919067,0.17878811061382294,-0.5202300548553467
1740007297056754700,10.230754638671876,0.9555079936981201,0.06704424321651459,-0.6127899289131165
1740007297066736600,10.240736572265625,0.6547194123268127,-0.0623457096517086,-0.6971636414527893
1740007297076718600,10.250718505859375,0.32897570729255676,-0.19012264907360077,-0.7731103897094727
1740007297086700800,10.26070068359375,-0.027145935222506523,-0.306350976228714,-0.8382233381271362
1740007297096682500,10.2706826171875,-0.425113320350647,-0.4167337715625763,-0.8761579990386963
1740007297106664700,10.280664794921876,-0.8794558048248291,-0.5039533376693726,-0.8562764525413513
1740007297116646700,10.290646728515625,-1.3646321296691895,-0.5697319507598877,-0.7564254999160767
1740007297126628600,10.300628662109375,-1.8616371154785156,-0.6197578310966492,-0.591945230960846
1740007297136610800,10.31061083984375,-2.3140296936035156,-0.6226215958595276,-0.38600319623947144
1740007297146593500,10.320593505859375,-2.6647040843963623,-0.5891382098197937,-0.16255387663841248
1740007297156575700,10.33057568359375,-2.8928332328796387,-0.5499697923660278,0.06396342813968658
1740007297166557400,10.340557373046876,-3.0251519680023193,-0.5192012786865234,0.2762914001941681
1740007297176539600,10.35053955078125,-3.1033902168273926,-0.4960658848285675,0.42889654636383057
1740007297186521900,10.36052197265625,-3.159345865249634,-0.48200172185897827,0.46962907910346985
1740007297196503600,10.370503662109375,-3.2298552989959717,-0.4683896601200104,0.37220674753189087
1740007297206485800,10.38048583984375,-3.342925548553467,-0.4191608726978302,0.14269819855690002
1740007297216467700,10.3904677734375,-3.5020010471343994,-0.3210451602935791,-0.1989421546459198
1740007297226449700,10.40044970703125,-3.6905462741851807,-0.2244054526090622,-0.5760375261306763
1740007297236431600,10.410431640625,-3.8814423084259033,-0.1844194531440735,-0.8705825805664062
1740007297246413800,10.420413818359375,-4.026707172393799,-0.27236422896385193,-1.0661474466323853
1740007297256396800,10.430396728515625,-4.099093437194824,-0.48463577032089233,-1.1902425289154053
1740007297266378800,10.440378662109374,-4.062366008758545,-0.7327516078948975,-1.27922785282135
1740007297276360700,10.450360595703126,-3.9074223041534424,-0.9424900412559509,-1.323855996131897
1740007297286343000,10.460343017578126,-3.679020643234253,-1.0453976392745972,-1.2954827547073364
1740007297296324900,10.470324951171875,-3.4597909450531006,-0.9803717136383057,-1.1897914409637451
1740007297306306800,10.480306884765625,-3.2919182777404785,-0.792869508266449,-1.0251660346984863
1740007297316289000,10.4902890625,-3.1976563930511475,-0.5541552305221558,-0.8258889317512512
1740007297326270700,10.500270751953124,-3.1700470447540283,-0.3222474753856659,-0.6301695108413696
1740007297336253000,10.5102529296875,-3.1490657329559326,-0.12734083831310272,-0.47301429510116577
1740007297346235000,10.52023486328125,-3.1269969940185547,0.05238685384392738,-0.3630014955997467
1740007297356216800,10.530216796875,-3.0739328861236572,0.17499509453773499,-0.29039332270622253
1740007297366200000,10.540199951171875,-2.9549896717071533,0.27494218945503235,-0.2273845374584198
1740007297376181800,10.550181640625,-2.8191118240356445,0.37251341342926025,-0.16508150100708008
1740007297386164000,10.5601640625,-2.6516592502593994,0.49139639735221863,-0.04917114973068237
1740007297396146000,10.57014599609375,-2.54602313041687,0.7020580172538757,0.08584114909172058
1740007297406127900,10.5801279296875,-2.496155261993408,0.8760444521903992,0.2890065312385559
1740007297416109800,10.59010986328125,-2.488309383392334,0.9663193821907043,0.5626220107078552
1740007297426092000,10.600092041015625,-2.3852224349975586,1.0727702379226685,0.9178653359413147
1740007297436073700,10.61007373046875,-2.35835862159729,1.1122944355010986,1.4194464683532715
1740007297446056000,10.620055908203126,-2.45039701461792,1.0181314945220947,1.8691682815551758
1740007297456037600,10.63003759765625,-2.6723451614379883,0.6011623740196228,2.169607400894165
1740007297466019800,10.640019775390625,-2.953367233276367,-0.04835306853055954,2.2852442264556885
1740007297476002800,10.6500029296875,-3.2009942531585693,-0.7217086553573608,2.1214468479156494
1740007297485984800,10.65998486328125,-3.291703939437866,-1.2364896535873413,1.6981910467147827
1740007297495967000,10.669967041015624,-3.1837897300720215,-1.495252251625061,1.1684472560882568
1740007297505948700,10.67994873046875,-2.9667654037475586,-1.44869065284729,0.6460976004600525
1740007297515931000,10.689930908203126,-2.7294206619262695,-1.225455403327942,0.23036623001098633
1740007297525912800,10.699912841796875,-2.5041847229003906,-0.922324001789093,-0.007838349789381027
1740007297535894800,10.709894775390625,-2.3060505390167236,-0.583732008934021,-0.0980425477027893
1740007297545877000,10.719876953125,-2.1163442134857178,-0.26640063524246216,-0.12455777823925018
1740007297555859000,10.72985888671875,-1.8973363637924194,0.02322673238813877,-0.14163966476917267
1740007297565841000,10.7398408203125,-1.6122995615005493,0.2279583066701889,-0.18086908757686615
1740007297575824000,10.749823974609376,-1.259596347808838,0.35999152064323425,-0.2307380884885788
1740007297585805800,10.759805908203125,-0.8836283087730408,0.3926011323928833,-0.26867347955703735
1740007297595787800,10.769787841796875,-0.5284391045570374,0.3340524435043335,-0.2964477241039276
1740007297605770000,10.77977001953125,-0.17559212446212769,0.25010189414024353,-0.31333696842193604
1740007297615752000,10.789751953125,0.17482692003250122,0.17654751241207123,-0.32001933455467224
1740007297625734000,10.79973388671875,0.5570075511932373,0.1843135505914688,-0.34364157915115356
1740007297635715800,10.8097158203125,0.977655291557312,0.28567031025886536,-0.40255099534988403
1740007297645697800,10.81969775390625,1.4435428380966187,0.45125260949134827,-0.4785320460796356
1740007297655680000,10.829679931640625,1.8933007717132568,0.624903678894043,-0.5465502142906189
1740007297665661700,10.83966162109375,2.2891457080841064,0.7885123491287231,-0.5816786289215088
1740007297675644000,10.849643798828126,2.6159121990203857,0.9036577343940735,-0.5596725344657898
1740007297685627000,10.859626953125,2.897536039352417,0.9861411452293396,-0.4766841530799866
1740007297695608800,10.86960888671875,3.1373469829559326,1.0304436683654785,-0.3320843279361725
1740007297705591000,10.879591064453125,3.3454465866088867,1.080183744430542,-0.15317131578922272
1740007297715572700,10.88957275390625,3.5115036964416504,1.1481884717941284,0.03810172155499458
1740007297725555000,10.899554931640624,3.6251587867736816,1.2389193773269653,0.22224760055541992
1740007297735537000,10.909536865234376,3.6656737327575684,1.2705312967300415,0.3914095163345337
1740007297745518800,10.919518798828125,3.6517460346221924,1.279225468635559,0.5029128789901733
1740007297755500800,10.929500732421875,3.6113529205322266,1.3204615116119385,0.5633910298347473
1740007297765483000,10.93948291015625,3.603323221206665,1.3991037607192993,0.6706091165542603
1740007297775464700,10.949464599609374,3.605214834213257,1.517450213432312,0.8336636424064636
1740007297785447000,10.959447021484374,3.6205010414123535,1.657492995262146,1.0270272493362427
1740007297795430000,10.969429931640626,3.6283295154571533,1.7222669124603271,1.2393649816513062
1740007297805411800,10.979411865234376,3.637380599975586,1.6932618618011475,1.4490668773651123
1740007297815394000,10.98939404296875,3.607083559036255,1.568291187286377,1.5819257497787476
1740007297825375700,10.999375732421875,3.5817110538482666,1.3659396171569824,1.6071157455444336
1740007297835358000,11.00935791015625,3.592085838317871,1.1468442678451538,1.5545527935028076
1740007297845339600,11.019339599609374,3.6245648860931396,0.9505249261856079,1.448784351348877
1740007297855321900,11.02932177734375,3.664008378982544,0.8142595291137695,1.2984368801116943
1740007297865303800,11.0393037109375,3.697234630584717,0.7725222110748291,1.1062350273132324
1740007297875285800,11.04928564453125,3.74579119682312,0.7851261496543884,0.9084164500236511
1740007297885268000,11.05926806640625,3.7980098724365234,0.8227115869522095,0.7177439332008362
1740007297895250700,11.069250732421875,3.853070020675659,0.8753430843353271,0.5303708910942078
1740007297905233000,11.07923291015625,3.9001917839050293,0.9306535124778748,0.3474960923194885
1740007297915214800,11.08921484375,3.922363758087158,0.968093752861023,0.17482417821884155
1740007297925196800,11.09919677734375,3.923884630203247,0.9741138219833374,0.0155903035774827
1740007297935178800,11.1091787109375,3.895226001739502,0.9216768145561218,-0.12287560850381851
1740007297945161000,11.119160888671875,3.8264424800872803,0.8217811584472656,-0.23780326545238495
1740007297955143000,11.129142822265624,3.7172887325286865,0.6807957887649536,-0.3476935029029846
1740007297965124900,11.139124755859376,3.5652472972869873,0.5299897789955139,-0.4604714512825012
1740007297975107000,11.149107177734376,3.3646326065063477,0.3928525447845459,-0.5908810496330261
1740007297985088800,11.1590888671875,3.1172661781311035,0.2713620662689209,-0.7256186008453369
1740007297995072000,11.169072021484375,2.843362331390381,0.1776246577501297,-0.8707289695739746
1740007298005053700,11.1790537109375,2.549891710281372,0.11976215243339539,-1.0192172527313232
1740007298015036000,11.189035888671874,2.220057249069214,0.0883631631731987,-1.1602774858474731
1740007298025017900,11.199017822265626,1.8503847122192383,0.09480588138103485,-1.280716061592102
1740007298034999800,11.208999755859375,1.4481709003448486,0.1447880119085312,-1.3804059028625488
1740007298044982000,11.21898193359375,1.0398480892181396,0.22549457848072052,-1.4498176574707031
1740007298054963700,11.228963623046875,0.6694318652153015,0.3079424500465393,-1.471247911453247
1740007298064946000,11.23894580078125,0.35424861311912537,0.3809543251991272,-1.437491774559021
1740007298074927900,11.248927978515624,0.10102470219135284,0.405720591545105,-1.3461337089538574
1740007298084909800,11.258909912109376,-0.15560521185398102,0.4013194739818573,-1.206895351409912
1740007298094891800,11.268891845703125,-0.4394378066062927,0.3207262456417084,-1.0386927127838135
1740007298104874800,11.278874755859375,-0.7390016317367554,0.19849969446659088,-0.8970631957054138
1740007298114857000,11.28885693359375,-1.0363640785217285,0.08579257130622864,-0.8557443022727966
1740007298124839000,11.2988388671875,-1.3472055196762085,0.03961868956685066,-0.9246589541435242
1740007298134820900,11.30882080078125,-1.6760259866714478,0.035215310752391815,-1.0396175384521484
1740007298144802800,11.318802734375,-2.024473190307617,0.015322292223572731,-1.1079412698745728
1740007298154785000,11.328784912109375,-2.394162654876709,-0.06964665651321411,-1.04612398147583
1740007298164766700,11.3387666015625,-2.7670750617980957,-0.2193722277879715,-0.8709717988967896
1740007298174749000,11.3487490234375,-3.135524272918701,-0.39241892099380493,-0.6605728268623352
1740007298184731000,11.35873095703125,-3.458604097366333,-0.552543044090271,-0.4584549069404602
1740007298194712800,11.368712890625,-3.730891227722168,-0.6441068053245544,-0.28195202350616455
1740007298204696000,11.378696044921876,-3.98250412940979,-0.6528134942054749,-0.11527010053396225
1740007298214677800,11.388677734375,-4.210521221160889,-0.6213571429252625,0.03557177260518074
1740007298224660000,11.398659912109375,-4.42236852645874,-0.6131836175918579,0.19104844331741333
1740007298234641700,11.4086416015625,-4.593372821807861,-0.6881126165390015,0.3641201853752136
1740007298244624000,11.418623779296874,-4.716576099395752,-0.8704938292503357,0.5038032531738281
1740007298254606000,11.428606201171876,-4.807086944580078,-1.1515274047851562,0.5160765647888184
1740007298264587800,11.438587890625,-4.85305643081665,-1.46834397315979,0.31104224920272827
1740007298274570000,11.448570068359375,-4.847997188568115,-1.7244963645935059,-0.10771141946315765
1740007298284552200,11.45855224609375,-4.760077953338623,-1.855310320854187,-0.6749650239944458
1740007298294534000,11.468533935546875,-4.57205057144165,-1.8530070781707764,-1.2758547067642212
1740007298304516000,11.47851611328125,-4.33116340637207,-1.776914119720459,-1.7490220069885254
1740007298314498800,11.488498779296876,-4.085709095001221,-1.7543220520019531,-2.0168843269348145
1740007298324481000,11.49848095703125,-3.8414294719696045,-1.8214560747146606,-2.1409053802490234
1740007298334463000,11.508462890625,-3.596921920776367,-1.8945773839950562,-2.169210195541382
1740007298344445000,11.51844482421875,-3.351489543914795,-1.896999478340149,-2.1567375659942627
1740007298354427100,11.52842724609375,-3.087510108947754,-1.725159764289856,-2.174577236175537
1740007298364409000,11.5384091796875,-2.8145813941955566,-1.3495376110076904,-2.267922878265381
1740007298374391000,11.54839111328125,-2.5566911697387695,-0.7863274812698364,-2.428302526473999
1740007298384373000,11.558373046875,-2.350203037261963,-0.16755828261375427,-2.5778701305389404
1740007298394355000,11.56835498046875,-2.2071433067321777,0.34872233867645264,-2.6267127990722656
1740007298404337000,11.5783369140625,-2.1279659271240234,0.698462188243866,-2.556520700454712
1740007298414319900,11.58831982421875,-2.075205087661743,0.8947595357894897,-2.405512809753418
1740007298424302000,11.598302001953124,-2.042746067047119,1.0226080417633057,-2.215254545211792
1740007298434284000,11.608283935546876,-2.0056231021881104,1.1261909008026123,-2.019333600997925
1740007298444266000,11.618265869140625,-1.9562257528305054,1.2079992294311523,-1.813301920890808
1740007298454248000,11.628248046875,-1.9017637968063354,1.2446706295013428,-1.5966976881027222
1740007298464230100,11.638230224609375,-1.868700385093689,1.2266844511032104,-1.365447998046875
1740007298474211800,11.6482119140625,-1.8567626476287842,1.1601163148880005,-1.131892204284668
1740007298484194000,11.658194091796876,-1.867969274520874,1.1196613311767578,-0.9513521790504456
1740007298494176000,11.668176025390625,-1.8988566398620605,1.1384493112564087,-0.8355792164802551
1740007298504158000,11.678157958984375,-1.9461270570755005,1.1856058835983276,-0.757504940032959
1740007298514141200,11.68814111328125,-1.9590237140655518,1.169279932975769,-0.6719339489936829
1740007298524123000,11.698122802734375,-1.8995705842971802,0.9964578151702881,-0.5665899515151978
1740007298534105000,11.70810498046875,-1.786609172821045,0.6448134779930115,-0.4614931643009186
1740007298544087000,11.718087158203126,-1.605014443397522,0.23323923349380493,-0.3778017461299896
1740007298554069000,11.728069091796876,-1.3571913242340088,-0.0661383643746376,-0.33160728216171265
1740007298564051000,11.738051025390625,-1.0879398584365845,-0.18205805122852325,-0.3479202091693878
1740007298574033000,11.748032958984375,-0.8419703245162964,-0.21754483878612518,-0.41781479120254517
1740007298584014800,11.758014892578124,-0.6164024472236633,-0.3094761073589325,-0.46573305130004883
1740007298593997000,11.7679970703125,-0.41907799243927,-0.47412586212158203,-0.4373667240142822
1740007298603978800,11.777978759765626,-0.25621822476387024,-0.6451370120048523,-0.3300360143184662
1740007298613961000,11.7879609375,-0.0804329663515091,-0.7970848679542542,-0.1530805230140686
1740007298623944000,11.79794384765625,0.12013794481754303,-0.8674439787864685,0.0845424234867096
1740007298633926000,11.80792578125,0.3280501663684845,-0.8737590312957764,0.4008348882198334
1740007298643908000,11.817908203125,0.5641795992851257,-0.7654632329940796,0.7731570601463318
1740007298653889800,11.827889892578124,0.8634693026542664,-0.5485467910766602,1.156639814376831
1740007298663872000,11.8378720703125,1.2406253814697266,-0.2682078182697296,1.5061160326004028
1740007298673854000,11.84785400390625,1.6632906198501587,0.07667796313762665,1.7913551330566406
1740007298683836000,11.8578359375,2.0747673511505127,0.4747025668621063,2.0110416412353516
1740007298693818000,11.867818115234375,2.4323596954345703,0.8554211854934692,2.1795530319213867
1740007298703800000,11.877800048828124,2.730626106262207,1.163550853729248,2.2950172424316406
1740007298713782000,11.887781982421876,2.97367262840271,1.3291155099868774,2.3715898990631104
1740007298723764000,11.897763916015625,3.1610193252563477,1.3496875762939453,2.41742205619812
1740007298733747000,11.907746826171875,3.2983431816101074,1.2688881158828735,2.381352186203003
1740007298743729000,11.91772900390625,3.3896429538726807,1.1195769309997559,2.2716026306152344
1740007298753711000,11.927711181640625,3.4409842491149902,0.8949875235557556,2.0979621410369873
1740007298763693000,11.937693115234374,3.4847795963287354,0.6441949605941772,1.8498703241348267
1740007298773675000,11.947675048828126,3.5257439613342285,0.35795602202415466,1.5687917470932007
1740007298783657000,11.957656982421875,3.565495491027832,0.02458764798939228,1.298895239830017
1740007298793639000,11.967638916015625,3.622145891189575,-0.3314812481403351,1.0777101516723633
1740007298803622000,11.977621826171875,3.7268190383911133,-0.6893203258514404,0.9284328818321228
1740007298813603800,11.987603759765625,3.8903462886810303,-0.9586535692214966,0.8468043804168701
1740007298823586000,11.9975859375,4.092514514923096,-1.132411003112793,0.8438625335693359
1740007298833568000,12.007568115234376,4.291565895080566,-1.1439416408538818,0.8978530764579773
1740007298843550000,12.017550048828125,4.49721622467041,-1.0399516820907593,1.0021660327911377
1740007298853532200,12.0275322265625,4.717091083526611,-0.8715922832489014,1.1451873779296875
1740007298863513900,12.037513916015625,4.917187213897705,-0.6572459936141968,1.313184142112732
1740007298873496000,12.04749609375,5.07567024230957,-0.37453579902648926,1.5102535486221313
1740007298883478000,12.05747802734375,5.17931604385376,-0.02624627947807312,1.71513032913208
1740007298893460000,12.0674599609375,5.225222587585449,0.2978454828262329,1.9034978151321411
1740007298903443200,12.077443115234376,5.206912517547607,0.5115545392036438,2.0770680904388428
1740007298913425000,12.0874248046875,5.11461877822876,0.6171160936355591,2.1949212551116943
1740007298923407000,12.097406982421875,4.977744102478027,0.6618949174880981,2.2141928672790527
1740007298933389000,12.10738916015625,4.840053558349609,0.6803830862045288,2.1280384063720703
1740007298943371000,12.11737109375,4.722029209136963,0.7109903693199158,1.9312137365341187
1740007298953353000,12.12735302734375,4.583583831787109,0.7607483267784119,1.5848184823989868
1740007298963335000,12.1373349609375,4.389970779418945,0.7814359068870544,1.144300103187561
1740007298973316900,12.14731689453125,4.1322174072265625,0.7409151196479797,0.7253289818763733
1740007298983299000,12.157299072265625,3.807682991027832,0.6281574964523315,0.369436651468277
1740007298993280800,12.16728076171875,3.416187286376953,0.451397567987442,0.07495788484811783
1740007299003264000,12.177263916015624,2.977489709854126,0.2638418674468994,-0.18603262305259705
1740007299013246000,12.187245849609376,2.516925573348999,0.12018030136823654,-0.44117704033851624
1740007299023228000,12.197227783203125,2.065526008605957,0.02254081331193447,-0.6955509185791016
1740007299033210000,12.207210205078125,1.6341654062271118,-0.03305773437023163,-0.9345267415046692
1740007299043191800,12.21719189453125,1.203066110610962,-0.03309958428144455,-1.1376800537109375
1740007299053174000,12.227174072265624,0.7734602689743042,0.047917768359184265,-1.2909919023513794
1740007299063156000,12.237156005859376,0.34120067954063416,0.20943056046962738,-1.393938660621643
1740007299073138000,12.247137939453125,-0.06813358515501022,0.40296298265457153,-1.4509944915771484
1740007299083120000,12.2571201171875,-0.4336744248867035,0.5587406754493713,-1.474447250366211
1740007299093102000,12.26710205078125,-0.7401911616325378,0.6254826784133911,-1.4527925252914429
1740007299103084000,12.277083984375,-1.0001665353775024,0.6071114540100098,-1.3980045318603516
1740007299113066000,12.28706591796875,-1.2130117416381836,0.5363150238990784,-1.3144066333770752
1740007299123048200,12.297048095703126,-1.3793692588806152,0.4138883352279663,-1.1921368837356567
1740007299133030000,12.30702978515625,-1.5096739530563354,0.23969924449920654,-1.033658742904663
1740007299143012000,12.31701220703125,-1.6114472150802612,-0.009127244353294373,-0.8552505970001221
1740007299152993800,12.326993896484375,-1.702233076095581,-0.28428158164024353,-0.6584786772727966
1740007299162976000,12.33697607421875,-1.8378005027770996,-0.5493085980415344,-0.4366901218891144
1740007299172959000,12.346958984375,-2.053237199783325,-0.7252798676490784,-0.20915816724300385
1740007299182941000,12.35694091796875,-2.3359527587890625,-0.8002089858055115,-0.006002714391797781
1740007299192923100,12.366923095703125,-2.6449239253997803,-0.7482089400291443,0.16796642541885376
1740007299202904800,12.37690478515625,-2.9392285346984863,-0.5845579504966736,0.297251433134079
1740007299212887000,12.386886962890625,-3.1767168045043945,-0.3811424970626831,0.3539634644985199
1740007299222869000,12.396868896484374,-3.3187265396118164,-0.18122602999210358,0.3616814911365509
1740007299232851000,12.406850830078126,-3.359466791152954,-0.045934777706861496,0.3221287429332733
1740007299242833000,12.4168330078125,-3.332685708999634,-0.003728057025000453,0.25111860036849976
1740007299252814300,12.426814453125,-3.303795099258423,-0.04115532338619232,0.16981816291809082
1740007299262796300,12.43679638671875,-3.2978107929229736,-0.13834109902381897,0.09188727289438248
1740007299272778200,12.4467783203125,-3.323611259460449,-0.2696533501148224,0.012859031558036804
1740007299282761200,12.45676123046875,-3.383007764816284,-0.3801254332065582,-0.07635807245969772
1740007299292743400,12.466743408203126,-3.4554407596588135,-0.4596330523490906,-0.16828134655952454
1740007299302725400,12.476725341796875,-3.5143871307373047,-0.5202832818031311,-0.26568931341171265
1740007299312707300,12.486707275390625,-3.5622777938842773,-0.5671234726905823,-0.369557648897171
1740007299322689300,12.496689208984375,-3.5924322605133057,-0.5934614539146423,-0.4687645137310028
1740007299332671500,12.50667138671875,-3.6049392223358154,-0.5744931101799011,-0.561887800693512
1740007299342653200,12.516653076171876,-3.606304407119751,-0.5052618384361267,-0.6257469654083252
1740007299352635400,12.526635498046875,-3.5984842777252197,-0.40124356746673584,-0.6387906074523926
1740007299362617300,12.536617431640625,-3.579573154449463,-0.2711956202983856,-0.5888369679450989
1740007299372599300,12.546599365234375,-3.5242600440979004,-0.18114639818668365,-0.4924774169921875
1740007299382582500,12.55658251953125,-3.4352259635925293,-0.12948399782180786,-0.37162524461746216
1740007299392564200,12.566564208984374,-3.299095630645752,-0.08801405131816864,-0.26228225231170654
