time,seconds_elapsed,z,y,x
1740007286850083800,0.024083740234375,0.24022085964679718,0.29507318139076233,0.9976686239242554
1740007286860065800,0.034065673828125,0.30412954092025757,0.47589728236198425,1.1198920011520386
1740007286870047700,0.0440478515625,0.37494325637817383,0.7343237996101379,1.2469916343688965
1740007286880029700,0.05402978515625,0.43829798698425293,1.0498535633087158,1.4127187728881836
1740007286890012000,0.064011962890625,0.4653490483760834,1.5163873434066772,1.5050129890441895
1740007286899993900,0.073993896484375,0.48927807807922363,1.9244757890701294,1.6232062578201294
1740007286909976800,0.083976806640625,0.3261152505874634,2.4458093643188477,1.8092703819274902
1740007286919958800,0.093958740234375,0.15767990052700043,2.9972221851348877,1.9268425703048706
1740007286929940700,0.103940673828125,0.022351378574967384,3.5436577796936035,1.9328773021697998
1740007286939922700,0.113922607421875,-0.10052021592855453,3.808493137359619,1.9244015216827393
1740007286949904600,0.123904541015625,-0.233492910861969,4.2508463859558105,1.848283052444458
1740007286959886800,0.133886962890625,-0.3427554965019226,4.586049556732178,1.7908504009246826
1740007286969868800,0.143868896484375,-0.4149084985256195,4.830657958984375,1.763859510421753
1740007286979850800,0.153850830078125,-0.4625559151172638,4.943146228790283,1.7514123916625977
1740007286989833000,0.1638330078125,-0.4807399809360504,4.848268032073975,1.688161015510559
1740007286999814700,0.173814697265625,-0.496012419462204,4.5844221115112305,1.5366162061691284
1740007287009796900,0.183796875,-0.5450486540794373,4.3011860847473145,1.301339864730835
1740007287019778800,0.19377880859375,-0.648173987865448,4.2144365310668945,0.9490392804145813
1740007287029760800,0.2037607421875,-0.8251775503158569,4.574058532714844,0.5715452432632446
1740007287039742700,0.21374267578125,-0.9597590565681458,5.087160587310791,0.29028454422950745
1740007287049725000,0.223724853515625,-1.0199171304702759,4.550923824310303,-0.07884927839040756
1740007287059706600,0.23370654296875,-1.107982873916626,4.1384735107421875,-0.5847598910331726
1740007287069688800,0.243688720703125,-1.3246313333511353,4.142349720001221,-1.1636501550674438
1740007287079671800,0.253671875,-1.6945537328720093,4.3084893226623535,-1.7683954238891602
1740007287089653800,0.26365380859375,-2.081637144088745,4.343860149383545,-2.325770139694214
1740007287099635700,0.2736357421875,-2.381155014038086,4.16884183883667,-2.738873243331909
1740007287109617700,0.28361767578125,-2.575676202774048,3.9393091201782227,-2.9537770748138428
1740007287119599900,0.293599853515625,-2.6624865531921387,3.5573205947875977,-2.983771562576294
1740007287129581600,0.30358154296875,-2.6360864639282227,3.040856122970581,-2.885263681411743
1740007287139563800,0.313563720703125,-2.5470757484436035,2.5967633724212646,-2.781000852584839
1740007287149545700,0.323545654296875,-2.4100418090820312,2.441901922225952,-2.8237617015838623
1740007287159527700,0.333527587890625,-2.2629828453063965,2.4741666316986084,-3.0827982425689697
1740007287169510000,0.343510009765625,-2.168773889541626,2.653325319290161,-3.49943208694458
1740007287179491800,0.353491943359375,-2.139838695526123,2.683441638946533,-3.928493022918701
1740007287189473800,0.363473876953125,-2.1700432300567627,2.550605058670044,-4.209222793579102
1740007287199455700,0.373455810546875,-2.1842024326324463,2.4714574813842773,-4.272449016571045
1740007287209438000,0.38343798828125,-2.1518309116363525,2.2845077514648438,-4.141852855682373
1740007287219419600,0.393419677734375,-2.0952916145324707,2.0257325172424316,-3.864839553833008
1740007287229401900,0.40340185546875,-2.052520990371704,1.831561803817749,-3.449540138244629
1740007287239383800,0.4133837890625,-2.0453648567199707,1.7287800312042236,-2.944537401199341
1740007287249366800,0.42336669921875,-2.080793619155884,1.7458128929138184,-2.387066602706909
1740007287259349000,0.433348876953125,-2.1334214210510254,1.8811578750610352,-1.8237534761428833
1740007287269331000,0.4433310546875,-2.1601076126098633,2.077186346054077,-1.263016939163208
1740007287279313000,0.45331298828125,-2.066563129425049,2.2084922790527344,-0.7281045317649841
1740007287289294800,0.463294921875,-1.8454952239990234,2.1826722621917725,-0.251420259475708
1740007287299276800,0.47327685546875,-1.5871566534042358,1.9719434976577759,0.16282354295253754
1740007287309259000,0.483259033203125,-1.3709266185760498,1.7217410802841187,0.4959772527217865
1740007287319240700,0.49324072265625,-1.253173828125,1.49516761302948,0.7360135912895203
1740007287329223000,0.503222900390625,-1.2377725839614868,1.2942712306976318,0.8492959141731262
1740007287339204900,0.513204833984375,-1.303674340248108,1.1214659214019775,0.8191494345664978
1740007287349186800,0.523186767578125,-1.4003244638442993,0.9617196321487427,0.6919292211532593
1740007287359168800,0.533168701171875,-1.5478616952896118,0.722214937210083,0.4657168388366699
1740007287369151000,0.54315087890625,-1.7978465557098389,0.3829154372215271,0.16214150190353394
1740007287379132700,0.553132568359375,-2.0711607933044434,0.053293582051992416,-0.1791958510875702
1740007287389115000,0.563114990234375,-2.2392380237579346,-0.19674289226531982,-0.5234515070915222
1740007287399097000,0.57309716796875,-2.322713851928711,-0.44059017300605774,-0.8538283705711365
1740007287409079800,0.583079833984375,-2.3831303119659424,-0.6331148743629456,-1.1148955821990967
1740007287419062000,0.59306201171875,-2.4376871585845947,-0.7212183475494385,-1.266158938407898
1740007287429043700,0.603043701171875,-2.402679681777954,-0.7684479355812073,-1.2749545574188232
1740007287439026000,0.61302587890625,-2.2775814533233643,-0.7637367844581604,-1.163209319114685
1740007287449007900,0.6230078125,-2.0650315284729004,-0.782223641872406,-0.9438831210136414
1740007287458989800,0.63298974609375,-1.7463699579238892,-0.8891834020614624,-0.640697717666626
1740007287468972000,0.642971923828125,-1.3150126934051514,-1.08735191822052,-0.25996047258377075
1740007287478953700,0.65295361328125,-0.8523207306861877,-1.2881046533584595,0.2292177379131317
1740007287488936000,0.66293603515625,-0.4027165472507477,-1.4961180686950684,0.7963925004005432
1740007287498918000,0.67291796875,0.01919633150100708,-1.6649984121322632,1.4065791368484497
1740007287508899800,0.68289990234375,0.4108184278011322,-1.646005630493164,2.0078511238098145
1740007287518881800,0.6928818359375,0.8135395050048828,-1.4700827598571777,2.463686943054199
1740007287528864000,0.702864013671875,1.170827031135559,-1.134734034538269,2.855163097381592
1740007287538845700,0.712845703125,1.474772572517395,-0.8297621607780457,3.145273208618164
1740007287548828000,0.722827880859375,1.74153470993042,-0.5657898783683777,3.29972767829895
1740007287558809900,0.732809814453125,1.9657639265060425,-0.28698596358299255,3.319399356842041
1740007287568791800,0.742791748046875,2.16933536529541,-0.06564345955848694,3.1926896572113037
1740007287578774000,0.75277392578125,2.3574483394622803,0.1172078475356102,2.8988730907440186
1740007287588756700,0.7627568359375,2.519887685775757,0.2780771553516388,2.452369213104248
1740007287598739000,0.772739013671875,2.657806634902954,0.4384537935256958,1.8837872743606567
1740007287608721000,0.782720947265625,2.810939311981201,0.49691763520240784,1.263985276222229
1740007287618702800,0.792702880859375,2.975587844848633,0.33640676736831665,0.6317180395126343
1740007287628684800,0.802684814453125,3.143699884414673,-0.0084275733679533,0.010755442082881927
1740007287638666800,0.812666748046875,3.258436918258667,-0.5329352617263794,-0.5692245960235596
1740007287648649000,0.82264892578125,3.262261152267456,-1.2685978412628174,-1.0854780673980713
1740007287658631000,0.832630859375,3.197585344314575,-2.0040054321289062,-1.4652509689331055
1740007287668612900,0.84261279296875,3.111586093902588,-2.507650852203369,-1.718197226524353
1740007287678594800,0.8525947265625,2.994786024093628,-2.669696092605591,-1.8572025299072266
1740007287688577000,0.862576904296875,2.814059019088745,-2.4977638721466064,-1.8745408058166504
1740007287698558700,0.872558837890625,2.608738899230957,-2.2070720195770264,-1.7389107942581177
1740007287708541000,0.882541015625,2.4702818393707275,-1.972473382949829,-1.477668285369873
1740007287718523000,0.89252294921875,2.4566619396209717,-1.8832591772079468,-1.1118090152740479
1740007287728504800,0.9025048828125,2.553499460220337,-1.9636181592941284,-0.6828712224960327
1740007287738486800,0.91248681640625,2.6890814304351807,-2.1589975357055664,-0.2351970672607422
1740007287748469800,0.9224697265625,2.8116371631622314,-2.428199529647827,0.19025063514709473
1740007287758452000,0.932451904296875,2.8415839672088623,-2.624173164367676,0.5660876631736755
1740007287768434000,0.942433837890625,2.777556896209717,-2.6299893856048584,0.8493273258209229
1740007287778415900,0.952415771484375,2.6801509857177734,-2.395906686782837,1.0029044151306152
1740007287788397800,0.962397705078125,2.631492853164673,-2.0722343921661377,1.0733846426010132
1740007287798379800,0.9723798828125,2.6474196910858154,-1.8331581354141235,1.084275722503662
1740007287808361700,0.98236181640625,2.648435115814209,-1.7058526277542114,1.0728733539581299
1740007287818344000,0.992343994140625,2.627439260482788,-1.602452278137207,1.0515861511230469
1740007287828325600,1.00232568359375,2.5844316482543945,-1.478811502456665,0.9919478893280029
1740007287838307800,1.012307861328125,2.4912426471710205,-1.3096344470977783,0.8779723048210144
1740007287848290000,1.0222900390625,2.3638339042663574,-1.0567418336868286,0.7043677568435669
1740007287858271700,1.032271728515625,2.2544682025909424,-0.7374055981636047,0.5312702655792236
1740007287868254000,1.04225390625,2.186535596847534,-0.4400380849838257,0.4221096932888031
1740007287878236000,1.05223583984375,2.186566114425659,-0.35332876443862915,0.4144986569881439
1740007287888217900,1.0622177734375,2.196272611618042,-0.6105243563652039,0.4531291425228119
1740007287898199800,1.07219970703125,2.1877686977386475,-1.0286701917648315,0.488275945186615
1740007287908182000,1.08218212890625,2.1142542362213135,-1.346919059753418,0.4770813286304474
1740007287918165000,1.0921650390625,1.9131118059158325,-1.4549990892410278,0.35110077261924744
1740007287928147000,1.10214697265625,1.6081883907318115,-1.3705220222473145,0.12887515127658844
1740007287938129000,1.11212890625,1.3037097454071045,-1.1470615863800049,-0.10005602985620499
1740007287948110800,1.12211083984375,1.021832823753357,-0.941810667514801,-0.29987698793411255
1740007287958092800,1.1320927734375,0.77833092212677,-0.8529196977615356,-0.4709659218788147
1740007287968074800,1.14207470703125,0.6017774343490601,-0.7667200565338135,-0.6242811679840088
1740007287978057000,1.152056884765625,0.49765744805336,-0.5963518023490906,-0.7555172443389893
1740007287988038700,1.16203857421875,0.3705578148365021,-0.26058685779571533,-0.856042206287384
1740007287998020900,1.172020751953125,0.15782584249973297,0.08531170338392258,-0.8910204768180847
1740007288008002800,1.1820029296875,-0.16321875154972076,0.36709117889404297,-0.844453752040863
1740007288017984800,1.19198486328125,-0.5396602749824524,0.5877742767333984,-0.7433924078941345
1740007288027967000,1.201967041015625,-0.9068636298179626,0.8333667516708374,-0.6393911242485046
1740007288037949000,1.211948974609375,-1.1843456029891968,1.1302226781845093,-0.5346817970275879
1740007288047931000,1.221930908203125,-1.375306487083435,1.4967825412750244,-0.4264160394668579
1740007288057912800,1.231912841796875,-1.5124469995498657,1.8770776987075806,-0.28496596217155457
1740007288067895000,1.24189501953125,-1.657090663909912,2.285238027572632,-0.10025469958782196
1740007288077877800,1.251877685546875,-1.8241276741027832,2.684170722961426,0.16028821468353271
1740007288087860000,1.26185986328125,-2.0031070709228516,3.0338573455810547,0.518775224685669
1740007288097842000,1.271842041015625,-2.161637306213379,3.2934324741363525,0.9510124325752258
1740007288107823900,1.281823974609375,-2.301844358444214,3.4853391647338867,1.4542415142059326
1740007288117806000,1.29180615234375,-2.402559280395508,3.4661004543304443,1.9619795083999634
1740007288127787800,1.301787841796875,-2.472614288330078,3.2514450550079346,2.4138760566711426
1740007288137770000,1.31177001953125,-2.5551838874816895,3.024862289428711,2.731245756149292
1740007288147752000,1.321751953125,-2.836364507675171,2.746403217315674,2.7681539058685303
1740007288157734000,1.33173388671875,-3.2782726287841797,2.937354803085327,2.5389394760131836
1740007288167715800,1.3417158203125,-3.629828453063965,3.1973695755004883,2.2539255619049072
1740007288177697800,1.35169775390625,-3.792186737060547,3.1605842113494873,2.114248752593994
1740007288187679700,1.3616796875,-3.7642934322357178,2.768423318862915,2.1160852909088135
1740007288197662000,1.371661865234375,-3.5890276432037354,2.196974515914917,2.1453959941864014
1740007288207643600,1.3816435546875,-3.301326036453247,1.497781753540039,2.1052796840667725
1740007288217625900,1.3916259765625,-3.027503490447998,0.7731146216392517,1.9358595609664917
1740007288227608000,1.401608154296875,-2.896238327026367,0.173288956284523,1.616740107536316
1740007288237591000,1.411591064453125,-2.8972930908203125,-0.1902623474597931,1.1813793182373047
1740007288247573200,1.4215732421875,-2.954178810119629,-0.3710358738899231,0.7013272047042847
1740007288257555000,1.431554931640625,-3.0266916751861572,-0.4712114632129669,0.23762720823287964
1740007288267537200,1.441537109375,-3.071258306503296,-0.5393375158309937,-0.2024037092924118
1740007288277519000,1.45151904296875,-3.068154811859131,-0.5488567352294922,-0.588400661945343
1740007288287501000,1.4615009765625,-2.9957096576690674,-0.4958305358886719,-0.9055506587028503
1740007288297483000,1.47148291015625,-2.871446132659912,-0.44782277941703796,-1.166795015335083
1740007288307465000,1.48146484375,-2.763796806335449,-0.4358135163784027,-1.3869415521621704
1740007288317447000,1.491447021484375,-2.695115089416504,-0.3839375376701355,-1.547181487083435
1740007288327429000,1.50142919921875,-2.703738212585449,-0.3157755434513092,-1.673216700553894
1740007288337410800,1.511410888671875,-2.752485990524292,-0.2325139343738556,-1.810992956161499
1740007288347393000,1.52139306640625,-2.835242509841919,-0.0873335748910904,-1.9677189588546753
1740007288357375200,1.531375244140625,-2.9237496852874756,0.17333662509918213,-2.1507785320281982
1740007288367357000,1.54135693359375,-2.9621267318725586,0.47019121050834656,-2.3618173599243164
1740007288377339100,1.551339111328125,-2.9964616298675537,0.8019092082977295,-2.5605521202087402
1740007288387321000,1.561321044921875,-3.046727418899536,1.1041297912597656,-2.7050817012786865
1740007288397304000,1.571303955078125,-3.075301170349121,1.25563383102417,-2.816923141479492
1740007288407286000,1.5812861328125,-3.0681169033050537,1.1990547180175781,-2.9311916828155518
1740007288417268000,1.59126806640625,-3.049468994140625,1.011683702468872,-3.0728087425231934
1740007288427250200,1.601250244140625,-3.057598829269409,0.8102883100509644,-3.258678436279297
1740007288437232000,1.611232177734375,-3.100468397140503,0.6165286898612976,-3.457664728164673
1740007288447214000,1.621214111328125,-3.1222007274627686,0.40514856576919556,-3.6165733337402344
1740007288457196000,1.631196044921875,-3.0340049266815186,0.07925647497177124,-3.6699702739715576
1740007288467178000,1.641177978515625,-2.8045430183410645,-0.3482418656349182,-3.627307653427124
1740007288477160000,1.651159912109375,-2.4526984691619873,-0.7780103087425232,-3.510690212249756
1740007288487142100,1.66114208984375,-2.002317190170288,-1.0911450386047363,-3.3227763175964355
1740007288497123800,1.671123779296875,-1.429206371307373,-1.2117598056793213,-3.0787551403045654
1740007288507106000,1.68110595703125,-0.8230664134025574,-1.126222848892212,-2.7679319381713867
1740007288517088000,1.691087890625,-0.28339043259620667,-0.9970278739929199,-2.375995397567749
1740007288527070000,1.701070068359375,0.1652534008026123,-0.985526442527771,-1.8918787240982056
1740007288537052000,1.711052001953125,0.5851377844810486,-1.1841574907302856,-1.3768651485443115
1740007288547034000,1.7210341796875,0.9788208603858948,-1.356213927268982,-0.8188482522964478
1740007288557016000,1.73101611328125,1.3033475875854492,-1.2546367645263672,-0.3149976134300232
1740007288566999000,1.7409990234375,1.5271992683410645,-0.881525993347168,0.10934779793024063
1740007288576981000,1.75098095703125,1.703635334968567,-0.44572314620018005,0.5197374820709229
1740007288586963000,1.760962890625,1.9496304988861084,-0.19550372660160065,0.9214249849319458
1740007288596945200,1.770945068359375,2.2573251724243164,-0.09853696078062057,1.347620964050293
1740007288606926800,1.7809267578125,2.5772194862365723,-0.06001460179686546,1.805996060371399
1740007288616909000,1.790908935546875,2.876979351043701,-0.09306229650974274,2.2822797298431396
1740007288626891300,1.800891357421875,3.1561272144317627,-0.20308120548725128,2.7337069511413574
1740007288636873000,1.810873046875,3.3838629722595215,-0.3200203478336334,3.0739223957061768
1740007288646855200,1.820855224609375,3.541421413421631,-0.3463755249977112,3.260545492172241
1740007288656836900,1.8308369140625,3.629875659942627,-0.2260429859161377,3.2725260257720947
1740007288666819000,1.840819091796875,3.687877655029297,-0.057978615164756775,3.0716071128845215
1740007288676801000,1.850801025390625,3.777261972427368,-0.052140697836875916,2.7238032817840576
1740007288686783000,1.860782958984375,3.890263319015503,-0.2637315094470978,2.3341281414031982
1740007288696765000,1.870764892578125,3.9497110843658447,-0.5633765459060669,1.9825176000595093
1740007288706747100,1.8807470703125,3.924536943435669,-0.778774619102478,1.6771390438079834
1740007288716728800,1.890728759765625,3.858839988708496,-0.8530381917953491,1.4890958070755005
1740007288726712000,1.900712158203125,3.8235597610473633,-0.8550928235054016,1.3880488872528076
1740007288736694000,1.910694091796875,3.8316447734832764,-0.8377697467803955,1.3321739435195923
1740007288746676000,1.920676025390625,3.8394181728363037,-0.7946840524673462,1.3267008066177368
1740007288756658200,1.930658203125,3.8564634323120117,-0.7216380834579468,1.370762825012207
1740007288766639900,1.940639892578125,3.904282808303833,-0.6237818598747253,1.4279738664627075
1740007288776622000,1.9506220703125,3.979078531265259,-0.5327246189117432,1.5049378871917725
1740007288786604000,1.96060400390625,4.034744739532471,-0.386141836643219,1.5736216306686401
1740007288796586000,1.9705859375,4.06864595413208,-0.17407618463039398,1.632797122001648
1740007288806568200,1.980568115234375,4.113888263702393,0.07227978855371475,1.648483157157898
1740007288816550100,1.990550048828125,4.170162677764893,0.33830589056015015,1.6214152574539185
1740007288826532000,2.000531982421875,4.235774993896484,0.6152823567390442,1.5523749589920044
1740007288836514000,2.01051416015625,4.281041145324707,0.8282244801521301,1.452864408493042
1740007288846496000,2.02049609375,4.25432825088501,0.8807851076126099,1.3085154294967651
1740007288856478000,2.03047802734375,4.153628826141357,0.8351984620094299,1.1075721979141235
1740007288866460200,2.040460205078125,4.017945766448975,0.7248240113258362,0.8560196161270142
1740007288876441900,2.05044189453125,3.8488526344299316,0.5721969604492188,0.54066002368927
1740007288886425000,2.060425048828125,3.6083033084869385,0.4151245057582855,0.15786100924015045
1740007288896407000,2.070406982421875,3.273615837097168,0.29500633478164673,-0.2665264904499054
1740007288906389000,2.080388916015625,2.8840508460998535,0.2085561454296112,-0.6660534143447876
1740007288916371200,2.09037109375,2.4903156757354736,0.10797467082738876,-0.9732117056846619
1740007288926353000,2.100352783203125,2.1187856197357178,0.05973763391375542,-1.1780681610107422
1740007288936335000,2.110335205078125,1.814886212348938,0.09220635890960693,-1.2980244159698486
1740007288946317000,2.120317138671875,1.6023521423339844,0.12881657481193542,-1.3580933809280396
1740007288956299000,2.130299072265625,1.4396353960037231,0.12488014996051788,-1.3509677648544312
1740007288966281000,2.140281005859375,1.2724591493606567,0.05230714753270149,-1.2963460683822632
1740007288976263200,2.15026318359375,1.0769280195236206,-0.053820088505744934,-1.19524347782135
1740007288986244900,2.160244873046875,0.823756992816925,-0.16508722305297852,-1.0647879838943481
1740007288996227000,2.17022705078125,0.535129725933075,-0.2647871971130371,-0.920746386051178
1740007289006209000,2.180208984375,0.24101847410202026,-0.3174482583999634,-0.7657144665718079
1740007289016191000,2.19019091796875,-0.055877380073070526,-0.30770134925842285,-0.6190065145492554
1740007289026173200,2.200173095703125,-0.3628615438938141,-0.23818433284759521,-0.5025858879089355
1740007289036155000,2.21015478515625,-0.7075158953666687,-0.1666901856660843,-0.39866748452186584
1740007289046138000,2.22013818359375,-1.086909532546997,-0.0631086602807045,-0.3040781319141388
1740007289056119800,2.230119873046875,-1.4734971523284912,0.06858545541763306,-0.19647790491580963
1740007289066102000,2.24010205078125,-1.8417141437530518,0.23400530219078064,-0.09783495217561722
1740007289076084200,2.250084228515625,-2.169387102127075,0.43824446201324463,-0.013748569414019585
1740007289086066000,2.26006591796875,-2.4814906120300293,0.6355116963386536,0.04098924621939659
1740007289096048000,2.270048095703125,-2.787899971008301,0.8246584534645081,0.05319024994969368
1740007289106030000,2.280030029296875,-3.0662641525268555,1.006147861480713,0.022245118394494057
1740007289116012000,2.290011962890625,-3.3030648231506348,1.1549322605133057,-0.04638773947954178
1740007289125994000,2.299993896484375,-3.5040106773376465,1.2432186603546143,-0.1323508471250534
1740007289135976200,2.30997607421875,-3.6862828731536865,1.2582725286483765,-0.2483738511800766
1740007289145958000,2.3199580078125,-3.835545063018799,1.1939518451690674,-0.410123348236084
1740007289155940000,2.329940185546875,-3.9315359592437744,1.0450438261032104,-0.6006344556808472
1740007289165922000,2.339922119140625,-3.9417896270751953,0.8181678056716919,-0.786923348903656
1740007289175904000,2.349904052734375,-3.869311809539795,0.6015684008598328,-0.9602181911468506
1740007289185886200,2.35988623046875,-3.746021032333374,0.4248785972595215,-1.1107096672058105
1740007289195868000,2.369867919921875,-3.634197950363159,0.27945560216903687,-1.221763253211975
1740007289205851100,2.37985107421875,-3.5654149055480957,0.15726977586746216,-1.286182165145874
1740007289215832800,2.389832763671875,-3.5526680946350098,0.061759769916534424,-1.3005115985870361
1740007289225815000,2.39981494140625,-3.5842700004577637,0.017225058749318123,-1.2810488939285278
1740007289235797000,2.409796875,-3.6420960426330566,0.02634958177804947,-1.2156156301498413
1740007289245779000,2.419779052734375,-3.699803113937378,0.06595265120267868,-1.111250877380371
1740007289255761200,2.42976123046875,-3.7406163215637207,0.10542070120573044,-0.9802608489990234
1740007289265743000,2.4397431640625,-3.7635035514831543,0.14404399693012238,-0.8580182790756226
1740007289275725000,2.44972509765625,-3.7563321590423584,0.2567809224128723,-0.7225845456123352
1740007289285707000,2.45970703125,-3.7051331996917725,0.40070000290870667,-0.5788577795028687
1740007289295689200,2.469689208984375,-3.632441759109497,0.5276185274124146,-0.4260048270225525
1740007289305671200,2.479671142578125,-3.5348665714263916,0.6488557457923889,-0.28603094816207886
1740007289315653000,2.489653076171875,-3.4450020790100098,0.7425963878631592,-0.17642776668071747
1740007289325635000,2.499635009765625,-3.4109604358673096,0.8064371347427368,-0.12204521149396896
1740007289335617000,2.509616943359375,-3.4283061027526855,0.8725740909576416,-0.1430133432149887
1740007289345599200,2.51959912109375,-3.462273359298706,0.9186158776283264,-0.22842811048030853
1740007289355582000,2.52958203125,-3.516188621520996,0.9289090037345886,-0.37533339858055115
1740007289365564200,2.539564208984375,-3.596656322479248,0.9378913044929504,-0.5581111907958984
1740007289375546000,2.549546142578125,-3.6798055171966553,0.9203346967697144,-0.7438408732414246
1740007289385528000,2.559528076171875,-3.7736384868621826,0.8027044534683228,-0.8908249735832214
1740007289395510300,2.56951025390625,-3.897958517074585,0.5718770623207092,-0.9621875882148743
1740007289405492000,2.579491943359375,-4.053629398345947,0.21722926199436188,-0.9091472625732422
1740007289415474200,2.58947412109375,-4.209312438964844,-0.1927015483379364,-0.7877550721168518
1740007289425456000,2.5994560546875,-4.260937213897705,-0.559113621711731,-0.653333306312561
1740007289435438000,2.60943798828125,-4.108589172363281,-0.8196812868118286,-0.5719702839851379
1740007289445420000,2.619419921875,-3.7926242351531982,-0.984247624874115,-0.5641371607780457
1740007289455402200,2.62940234375,-3.3073880672454834,-0.9429653882980347,-0.6582615375518799
1740007289465384000,2.639384033203125,-2.668022394180298,-0.7676825523376465,-0.7538743019104004
1740007289475366100,2.6493662109375,-1.8448454141616821,-0.6847192049026489,-0.8054056763648987
1740007289485348400,2.659348388671875,-0.915288507938385,-0.7754632234573364,-0.7706609964370728
1740007289495330000,2.669330078125,-0.0979289636015892,-1.0145341157913208,-0.6668704748153687
1740007289505312300,2.679312255859375,0.419950932264328,-1.2634973526000977,-0.514432430267334
1740007289515295000,2.689294921875,0.6923753023147583,-1.3987702131271362,-0.3121568262577057
1740007289525277200,2.699277099609375,0.7848525047302246,-1.425892949104309,-0.06823631376028061
1740007289535259100,2.709259033203125,0.799182653427124,-1.3693803548812866,0.2084043323993683
1740007289545241000,2.719240966796875,0.8437637090682983,-1.1976488828659058,0.48374801874160767
1740007289555223300,2.729223388671875,0.9948770999908447,-0.8992219567298889,0.7552357316017151
1740007289565205000,2.739205078125,1.250982403755188,-0.5697281956672668,1.028041958808899
1740007289575187200,2.749187255859375,1.5757311582565308,-0.2971837520599365,1.311435580253601
1740007289585169200,2.759169189453125,1.9285757541656494,-0.06546769291162491,1.5953855514526367
1740007289595151000,2.769151123046875,2.2729129791259766,0.1298951506614685,1.8422025442123413
1740007289605133000,2.779133056640625,2.600109338760376,0.3009188175201416,2.0201244354248047
1740007289615115300,2.789115234375,2.888054609298706,0.4315743148326874,2.1103808879852295
1740007289625097000,2.799096923828125,3.1230154037475586,0.5320290327072144,2.089141368865967
1740007289635079200,2.8090791015625,3.317408323287964,0.5833500027656555,1.9816213846206665
1740007289645061000,2.81906103515625,3.460448741912842,0.5646122694015503,1.8150103092193604
1740007289655043000,2.82904296875,3.5129802227020264,0.4867110550403595,1.626835584640503
1740007289665026300,2.8390263671875,3.4996466636657715,0.3628586232662201,1.4256750345230103
1740007289675008000,2.849008056640625,3.438140869140625,0.18384680151939392,1.223498821258545
1740007289684990200,2.858990234375,3.3073503971099854,-0.015590411610901356,0.9953932166099548
1740007289694972200,2.86897216796875,3.1912078857421875,-0.21860291063785553,0.7333592176437378
1740007289704954000,2.8789541015625,3.113910436630249,-0.421708881855011,0.4223714768886566
1740007289714936000,2.88893603515625,3.065981388092041,-0.5808050632476807,0.06376220285892487
1740007289724918000,2.89891796875,3.0506491661071777,-0.6777875423431396,-0.3570457398891449
1740007289734900000,2.90889990234375,3.134805679321289,-0.7673293948173523,-0.7666833400726318
1740007289744882200,2.918882080078125,3.2582321166992188,-0.7736954092979431,-1.1185142993927002
1740007289754864000,2.928864013671875,3.2601876258850098,-0.7395260334014893,-1.4285318851470947
1740007289764846000,2.93884619140625,3.263666868209839,-0.6999919414520264,-1.6301512718200684
1740007289774828300,2.948828369140625,3.327115535736084,-0.7484624981880188,-1.6571834087371826
1740007289784810000,2.95881005859375,3.4549880027770996,-0.7482821941375732,-1.5651943683624268
1740007289794792200,2.968792236328125,3.6167404651641846,-0.7208977341651917,-1.4181604385375977
1740007289804774100,2.978774169921875,3.8089184761047363,-0.7568376064300537,-1.2319213151931763
1740007289814756000,2.988756103515625,3.9912219047546387,-0.8274039030075073,-0.9973463416099548
1740007289824739300,2.9987392578125,4.10678243637085,-0.8703223466873169,-0.6980195641517639
1740007289834721000,3.008720947265625,4.118472099304199,-0.8597714304924011,-0.32978934049606323
1740007289844703200,3.018703125,4.041836261749268,-0.8245308995246887,0.07635016739368439
1740007289854685200,3.028685302734375,3.931729316711426,-0.7792784571647644,0.48279860615730286
1740007289864667100,3.038667236328125,3.847571611404419,-0.6579472422599792,0.8297182321548462
1740007289874649000,3.048649169921875,3.7759275436401367,-0.4826798439025879,1.088646411895752
1740007289884631000,3.058631103515625,3.6940391063690186,-0.3105144500732422,1.24583899974823
1740007289894613000,3.068613037109375,3.5867183208465576,-0.15240392088890076,1.3062386512756348
1740007289904595200,3.07859521484375,3.4740984439849854,-0.008081096224486828,1.2858554124832153
1740007289914577000,3.088576904296875,3.3229315280914307,0.11260084807872772,1.2164936065673828
1740007289924559000,3.09855908203125,3.1223390102386475,0.17012299597263336,1.1287754774093628
1740007289934541300,3.108541259765625,2.8724169731140137,0.1876937299966812,1.0569466352462769
1740007289944523000,3.11852294921875,2.5887389183044434,0.20319785177707672,1.0209656953811646
1740007289954505200,3.128505126953125,2.276653289794922,0.2182857245206833,1.024618148803711
1740007289964487200,3.138487060546875,1.9429304599761963,0.21312931180000305,1.0598782300949097
1740007289974470100,3.14847021484375,1.5930057764053345,0.21123766899108887,1.1339151859283447
1740007289984452000,3.1584521484375,1.2253808975219727,0.22115261852741241,1.2195842266082764
1740007289994434000,3.16843408203125,0.8320252895355225,0.23677152395248413,1.291195034980774
1740007290004416300,3.178416259765625,0.39506635069847107,0.24167494475841522,1.3229875564575195
1740007290014398200,3.188398193359375,-0.0557657927274704,0.2500322163105011,1.3003389835357666
1740007290024380200,3.198380126953125,-0.5109032392501831,0.2851731479167938,1.2407540082931519
1740007290034362000,3.208362060546875,-0.9891297221183777,0.3597185015678406,1.1685452461242676
1740007290044344000,3.218343994140625,-1.5345264673233032,0.48153892159461975,1.092015027999878
1740007290054326000,3.228325927734375,-2.1508796215057373,0.6087442636489868,1.0331575870513916
1740007290064308200,3.23830810546875,-2.7904865741729736,0.6936647891998291,0.9852635860443115
1740007290074290000,3.2482900390625,-3.3882734775543213,0.7004904747009277,0.8804436922073364
1740007290084272000,3.258272216796875,-3.9037771224975586,0.6580892205238342,0.6558180451393127
1740007290094254000,3.268254150390625,-4.301171779632568,0.589969277381897,0.30368664860725403
1740007290104236000,3.278236083984375,-4.586543083190918,0.5220224261283875,-0.14957989752292633
1740007290114218000,3.288218017578125,-4.80880880355835,0.43246594071388245,-0.6287806034088135
1740007290124201000,3.298200927734375,-4.938041687011719,0.30954745411872864,-1.0835098028182983
1740007290134183200,3.30818310546875,-4.987584114074707,0.17402878403663635,-1.4840811491012573
1740007290144165000,3.3181650390625,-4.913249969482422,0.025059280917048454,-1.8389431238174438
1740007290154147000,3.32814697265625,-4.753301620483398,-0.11018296331167221,-2.140145778656006
1740007290164129000,3.33812890625,-4.513611316680908,-0.20258532464504242,-2.3776400089263916
1740007290174111200,3.348111328125,-4.213607311248779,-0.25392627716064453,-2.5404562950134277
1740007290184093000,3.358093017578125,-3.889554977416992,-0.2957986295223236,-2.613003969192505
1740007290194075100,3.3680751953125,-3.5803723335266113,-0.36677613854408264,-2.595310688018799
1740007290204057300,3.378057373046875,-3.3272013664245605,-0.4692561626434326,-2.4941184520721436
1740007290214039000,3.3880390625,-3.156209945678711,-0.526603639125824,-2.314162492752075
1740007290224021200,3.398021240234375,-3.0684118270874023,-0.4883992373943329,-2.0736243724823
1740007290234003000,3.4080029296875,-3.056943416595459,-0.3450585901737213,-1.7857823371887207
1740007290243984600,3.417984619140625,-3.1046042442321777,-0.1532239019870758,-1.463627815246582
1740007290253966600,3.427966552734375,-3.203477144241333,0.06878545880317688,-1.1286202669143677
1740007290263948800,3.43794873046875,-3.302469491958618,0.2998991012573242,-0.7936989665031433
1740007290273931800,3.447931884765625,-3.3839142322540283,0.5435479879379272,-0.47255343198776245
1740007290283913700,3.457913818359375,-3.4512593746185303,0.8062102198600769,-0.16831710934638977
1740007290293895700,3.467895751953125,-3.4680354595184326,1.069366216659546,0.1344185322523117
1740007290303877600,3.477877685546875,-3.4301023483276367,1.279302954673767,0.4364284574985504
1740007290313859600,3.487859619140625,-3.3696608543395996,1.3884187936782837,0.7144629955291748
1740007290323841500,3.497841552734375,-3.3511109352111816,1.3846317529678345,0.9180025458335876
1740007290333823700,3.50782373046875,-3.3845572471618652,1.2719871997833252,0.9785018563270569
1740007290343805400,3.517805419921875,-3.468381881713867,1.1060656309127808,0.8535385727882385
1740007290353787600,3.52778759765625,-3.5209364891052246,0.9614318013191223,0.518475353717804
1740007290363769900,3.537769775390625,-3.580296039581299,0.8159302473068237,0.0949331670999527
1740007290373751600,3.54775146484375,-3.6624157428741455,0.650870144367218,-0.3034336566925049
1740007290383733800,3.557733642578125,-3.7486164569854736,0.5178170204162598,-0.6657434105873108
1740007290393715700,3.5677158203125,-3.8682541847229004,0.4037999212741852,-0.998527467250824
1740007290403697700,3.57769775390625,-4.067605495452881,0.33960282802581787,-1.2960273027420044
1740007290413679600,3.5876796875,-4.223909854888916,0.34270888566970825,-1.5968258380889893
1740007290423662600,3.59766259765625,-4.196135997772217,0.3385530114173889,-1.8946428298950195
1740007290433644800,3.607644775390625,-4.030890464782715,0.36094194650650024,-2.1548666954040527
1740007290443626800,3.617626708984375,-3.7854490280151367,0.3486538529396057,-2.3185794353485107
1740007290453608700,3.627608642578125,-3.456941604614258,0.24706332385540009,-2.3775908946990967
1740007290463590700,3.637590576171875,-3.03328800201416,-0.004062918480485678,-2.3448984622955322
1740007290473572600,3.647572509765625,-2.5031778812408447,-0.3604167699813843,-2.2494759559631348
1740007290483554600,3.657554443359375,-1.9020203351974487,-0.7216383814811707,-2.0901896953582764
1740007290493536800,3.667536865234375,-1.3122968673706055,-1.0539811849594116,-1.866011142730713
1740007290503518500,3.6775185546875,-0.8147754669189453,-1.3415833711624146,-1.5420544147491455
1740007290513500700,3.687500732421875,-0.42581841349601746,-1.5275799036026,-1.0964990854263306
1740007290523482600,3.697482666015625,-0.138618603348732,-1.5771958827972412,-0.5527356266975403
1740007290533464600,3.707464599609375,0.09077251702547073,-1.482981562614441,0.06119012087583542
1740007290543446500,3.717446533203125,0.3467579483985901,-1.2183719873428345,0.7020987272262573
1740007290553428700,3.7274287109375,0.696432888507843,-0.8013063073158264,1.3122984170913696
1740007290563410700,3.73741064453125,1.135630488395691,-0.2610433101654053,1.8630774021148682
1740007290573393700,3.7473935546875,1.6201093196868896,0.31277841329574585,2.333108901977539
1740007290583375600,3.757375732421875,2.0862936973571777,0.8265402913093567,2.7127623558044434
1740007290593357600,3.767357666015625,2.5105819702148438,1.2618483304977417,2.9977126121520996
1740007290603339800,3.77733984375,2.8999671936035156,1.628538966178894,3.1880791187286377
1740007290613321500,3.787321533203125,3.2633004188537598,1.9515926837921143,3.2715351581573486
1740007290623303700,3.7973037109375,3.573894500732422,2.234354257583618,3.2482805252075195
1740007290633286000,3.807285888671875,3.824012041091919,2.531428575515747,3.1312944889068604
1740007290643267600,3.817267578125,4.051187992095947,2.8749423027038574,2.9826948642730713
1740007290653249800,3.827249755859375,4.258822441101074,3.2574243545532227,2.86232852935791
1740007290663231500,3.8372314453125,4.437593460083008,3.592729091644287,2.8113584518432617
1740007290673213700,3.847213623046875,4.579157829284668,3.78427791595459,2.8273274898529053
1740007290683195600,3.857195556640625,4.6648077964782715,3.8048713207244873,2.872744560241699
1740007290693177600,3.867177490234375,4.711045742034912,3.6767566204071045,2.9179108142852783
1740007290703159600,3.87715966796875,4.683647632598877,3.3946831226348877,2.8476405143737793
1740007290713142500,3.887142578125,4.601043224334717,3.0265231132507324,2.5948193073272705
1740007290723124700,3.897124755859375,4.531912326812744,2.607649564743042,2.136103868484497
1740007290733106700,3.907106689453125,4.486062526702881,2.0396108627319336,1.5798414945602417
1740007290743088600,3.917088623046875,4.453086853027344,1.3557287454605103,1.0404107570648193
1740007290753071600,3.927071533203125,4.444190502166748,0.711537778377533,0.5642026662826538
1740007290763053600,3.937053466796875,4.522353172302246,0.21767373383045197,0.17985126376152039
1740007290773035800,3.947035888671875,4.662661552429199,-0.015903599560260773,-0.08948434144258499
1740007290783017700,3.957017822265625,4.847555160522461,-0.0625683069229126,-0.32031169533729553
1740007290792999700,3.966999755859375,5.071447849273682,-0.02798209898173809,-0.5286979079246521
1740007290802981600,3.976981689453125,5.260776519775391,-0.02124563418328762,-0.6699753999710083
1740007290812963800,3.9869638671875,5.3363847732543945,-0.07889001816511154,-0.739561140537262
1740007290822945500,3.996945556640625,5.340588092803955,-0.13605637848377228,-0.7423854470252991
1740007290832927700,4.006927734375,5.346872329711914,-0.1243528425693512,-0.7386003136634827
1740007290842909700,4.01690966796875,5.351290702819824,-0.00688933115452528,-0.7243494391441345
1740007290852891600,4.0268916015625,5.328817844390869,0.158178448677063,-0.6786602735519409
1740007290862873600,4.03687353515625,5.265410900115967,0.2995036244392395,-0.5827438235282898
1740007290872855600,4.04685546875,5.175150394439697,0.39753884077072144,-0.4603063464164734
1740007290882837800,4.056837646484375,5.062835216522217,0.49316737055778503,-0.33275026082992554
1740007290892819700,4.06681982421875,4.93264102935791,0.641667366027832,-0.22696684300899506
1740007290902802700,4.076802734375,4.789350986480713,0.7620611190795898,-0.11856099963188171
1740007290912784600,4.08678466796875,4.63435173034668,0.8444803953170776,-0.019537216052412987
1740007290922766600,4.0967666015625,4.4274067878723145,0.927919864654541,0.0769035667181015
1740007290932748500,4.10674853515625,4.1517653465271,1.0409668684005737,0.1791260838508606
1740007290942730800,4.116730712890625,3.8312833309173584,1.148855209350586,0.26096662878990173
1740007290952712700,4.126712646484375,3.4934568405151367,1.2397252321243286,0.27642279863357544
1740007290962694700,4.136694580078125,3.120126247406006,1.267372488975525,0.2541470527648926
1740007290972676900,4.1466767578125,2.7051467895507812,1.2420480251312256,0.19445550441741943
1740007290982658600,4.156658447265625,2.2436747550964355,1.1683636903762817,0.12788739800453186
1740007290992640800,4.166640869140625,1.7514002323150635,1.0383654832839966,0.05560600385069847
1740007291002622700,4.176622802734375,1.2350252866744995,0.8223777413368225,-0.04764421656727791
1740007291012604700,4.186604736328125,0.74612957239151,0.5588377118110657,-0.17485889792442322
1740007291022586600,4.196586669921875,0.30324801802635193,0.313818097114563,-0.3324780762195587
1740007291032568600,4.206568603515625,-0.09128277748823166,0.116755910217762,-0.5666583776473999
1740007291042551800,4.2165517578125,-0.4718266427516937,-0.09345671534538269,-0.837131142616272
1740007291052533500,4.226533447265625,-0.8895296454429626,-0.33457478880882263,-1.1099634170532227
1740007291062515700,4.236515625,-1.3670679330825806,-0.5879266262054443,-1.3247151374816895
1740007291072497700,4.24649755859375,-1.9043515920639038,-0.8226855993270874,-1.429640769958496
1740007291082479600,4.256479736328125,-2.4883453845977783,-1.0111173391342163,-1.4110220670700073
1740007291092461600,4.266461669921875,-3.0562000274658203,-1.1568081378936768,-1.293523907661438
1740007291102443800,4.27644384765625,-3.6117074489593506,-1.266469955444336,-1.1541599035263062
1740007291112425500,4.286425537109375,-4.122381687164307,-1.338046908378601,-0.982455313205719
1740007291122407700,4.29640771484375,-4.558382034301758,-1.3017430305480957,-0.7705212235450745
1740007291132389600,4.3063896484375,-4.883902549743652,-1.1851298809051514,-0.5439527630805969
1740007291142371600,4.31637158203125,-5.032027721405029,-0.9377903342247009,-0.3245469331741333
1740007291152353800,4.326353759765625,-4.916961669921875,-0.5649382472038269,-0.09496805816888809
1740007291162335700,4.336335693359375,-4.509381294250488,-0.08616018295288086,0.17448657751083374
1740007291172317700,4.346317626953125,-3.9019112586975098,0.33801504969596863,0.4563981592655182
1740007291182299600,4.356299560546875,-3.289022922515869,0.6650970578193665,0.7319671511650085
1740007291192281600,4.366281494140625,-2.8845536708831787,0.9141808748245239,0.9497029185295105
1740007291202263600,4.376263671875,-2.8224902153015137,1.0453979969024658,1.1367233991622925
1740007291212245800,4.386245849609375,-3.023198366165161,0.9858883619308472,1.3638492822647095
1740007291222228700,4.396228759765625,-3.303459644317627,0.7270592451095581,1.6339060068130493
1740007291232210700,4.406210693359375,-3.54488205909729,0.42505115270614624,1.9314711093902588
1740007291242192600,4.416192626953125,-3.75237774848938,0.2308366745710373,2.1885881423950195
1740007291252174800,4.4261748046875,-3.8977136611938477,0.11688826978206635,2.3665077686309814
1740007291262156800,4.43615673828125,-3.943455457687378,-0.006713562645018101,2.417112112045288
1740007291272138800,4.446138671875,-3.910804033279419,-0.14744964241981506,2.3758342266082764
1740007291282120700,4.45612060546875,-3.8605501651763916,-0.333309531211853,2.26775860786438
1740007291292103000,4.46610302734375,-3.8083763122558594,-0.546111524105072,2.107530355453491
1740007291302084600,4.476084716796875,-3.7548670768737793,-0.7357789278030396,1.8955624103546143
1740007291312066800,4.48606689453125,-3.7434849739074707,-0.8703588247299194,1.6599698066711426
1740007291322048800,4.496048828125,-3.768773078918457,-0.94121253490448,1.3943322896957397
1740007291332030700,4.50603076171875,-3.7737338542938232,-0.9474403262138367,1.0901892185211182
1740007291342013000,4.516012939453125,-3.728092908859253,-0.851706862449646,0.7915447354316711
1740007291351995000,4.525994873046875,-3.6133766174316406,-0.7057291865348816,0.5060836672782898
1740007291361977900,4.535977783203125,-3.4825148582458496,-0.5845348238945007,0.309700071811676
1740007291371959800,4.545959716796875,-3.3980281352996826,-0.3769366145133972,0.10235566645860672
1740007291381941800,4.555941650390625,-3.3901681900024414,-0.2859923541545868,-0.023792147636413574
1740007291391923700,4.565923828125,-3.4543204307556152,-0.30389171838760376,-0.10301719605922699
1740007291401905700,4.57590576171875,-3.5305581092834473,-0.3556976616382599,-0.20697954297065735
1740007291411887900,4.585887939453125,-3.590327262878418,-0.43304863572120667,-0.3407740890979767
1740007291421869800,4.595869873046875,-3.643678665161133,-0.5097237229347229,-0.5073407292366028
1740007291431851800,4.605851806640625,-3.6473796367645264,-0.6418513655662537,-0.672753095626831
1740007291441833700,4.615833740234375,-3.6205997467041016,-0.8396832346916199,-0.8276737332344055
1740007291451816000,4.62581591796875,-3.5832595825195312,-1.0848549604415894,-1.0038061141967773
1740007291461797600,4.635797607421875,-3.4887287616729736,-1.3344250917434692,-1.2164180278778076
1740007291471779800,4.64577978515625,-3.3602514266967773,-1.5053582191467285,-1.491435170173645
1740007291481761800,4.65576171875,-3.224734306335449,-1.5540516376495361,-1.8085482120513916
1740007291491743700,4.66574365234375,-3.064232349395752,-1.5939873456954956,-2.0755155086517334
1740007291501727000,4.67572705078125,-2.8913068771362305,-1.7329652309417725,-2.256464958190918
1740007291511708700,4.685708740234375,-2.73455810546875,-1.9669073820114136,-2.3706517219543457
1740007291521691000,4.69569091796875,-2.5692572593688965,-2.204542875289917,-2.410956621170044
1740007291531672800,4.7056728515625,-2.347018241882324,-2.3884384632110596,-2.3518271446228027
1740007291541654800,4.71565478515625,-2.0707623958587646,-2.5390727519989014,-2.1976966857910156
1740007291551636700,4.72563671875,-1.7629233598709106,-2.5911753177642822,-1.9667081832885742
1740007291561618700,4.73561865234375,-1.4775487184524536,-2.5231125354766846,-1.6347558498382568
1740007291571600600,4.7456005859375,-1.1515690088272095,-2.408792018890381,-1.054699420928955
1740007291581582800,4.755582763671875,-0.6210989356040955,-1.9849746227264404,-0.5142952799797058
1740007291591564800,4.765564697265625,-0.014333399012684822,-1.4386491775512695,0.12065078318119049
1740007291601546800,4.775546630859375,0.6679602265357971,-0.849471390247345,0.8523279428482056
1740007291611529000,4.785529052734375,1.400294303894043,-0.24065335094928741,1.6450740098953247
1740007291621510700,4.7955107421875,2.1417136192321777,0.39122769236564636,2.4363372325897217
1740007291631492900,4.805492919921875,2.8195767402648926,1.0600054264068604,3.1678481101989746
1740007291641475600,4.8154755859375,3.408970832824707,1.6512751579284668,3.7625539302825928
1740007291651457800,4.825457763671875,3.8625683784484863,2.248385190963745,4.162543296813965
1740007291661440000,4.83543994140625,4.152880668640137,2.834031105041504,4.413905143737793
1740007291671421700,4.845421630859375,4.315891265869141,3.2443132400512695,4.506223678588867
1740007291681404000,4.85540380859375,4.413586616516113,3.454916477203369,4.434203624725342
1740007291691385900,4.8653857421875,4.438338279724121,3.5023341178894043,4.197107315063477
1740007291701367800,4.875367919921875,4.401633262634277,3.395068407058716,3.813887357711792
1740007291711349800,4.885349853515625,4.3354058265686035,3.1740832328796387,3.3162147998809814
1740007291721331700,4.895331787109375,4.234748840332031,2.885928153991699,2.742408275604248
1740007291731313700,4.905313720703125,4.119319438934326,2.5521817207336426,2.1501972675323486
1740007291741295900,4.9152958984375,4.000675201416016,2.2360494136810303,1.5974513292312622
1740007291751277600,4.925277587890625,3.8994593620300293,1.9320980310440063,1.1093062162399292
1740007291761259800,4.935259765625,3.828124761581421,1.665077567100525,0.7173205614089966
1740007291771241700,4.94524169921875,3.7828524112701416,1.4161654710769653,0.37984853982925415
1740007291781223700,4.9552236328125,3.7677319049835205,1.1943601369857788,0.06826693564653397
1740007291791207000,4.96520703125,3.783734083175659,1.0617786645889282,-0.1952991932630539
1740007291801188600,4.975188720703125,3.8392207622528076,1.0158928632736206,-0.43592751026153564
1740007291811170800,4.9851708984375,3.9238407611846924,1.058606743812561,-0.656614363193512
1740007291821152800,4.99515283203125,4.020965099334717,1.1349974870681763,-0.8658730387687683
1740007291831134700,5.005134765625,4.104422569274902,1.1915664672851562,-1.0581002235412598
1740007291841116700,5.01511669921875,4.172516345977783,1.2238234281539917,-1.2221781015396118
1740007291851099000,5.025098876953125,4.217017650604248,1.2319256067276,-1.373529076576233
1740007291861080800,5.035080810546875,4.223083972930908,1.2513203620910645,-1.53326416015625
1740007291871062800,5.045062744140625,4.21546745300293,1.2724586725234985,-1.725446343421936
1740007291881045000,5.055044921875,4.208921432495117,1.2960238456726074,-1.9389796257019043
1740007291891026700,5.065026611328125,4.187563419342041,1.2473671436309814,-2.132242441177368
1740007291901009000,5.0750087890625,4.127065658569336,1.141072154045105,-2.295915126800537
1740007291910990600,5.084990478515625,4.034557819366455,0.9639833569526672,-2.432617664337158
1740007291920973800,5.094973876953125,3.9058005809783936,0.7526021003723145,-2.5603339672088623
1740007291930955800,5.104955810546875,3.75213623046875,0.5197435617446899,-2.6786537170410156
1740007291940937700,5.114937744140625,3.573012113571167,0.33154332637786865,-2.778722047805786
1740007291950920000,5.124919921875,3.3112661838531494,0.18196794390678406,-2.839442253112793
1740007291960901600,5.134901611328125,2.953462839126587,0.06717264652252197,-2.886009693145752
1740007291970883800,5.1448837890625,2.5685112476348877,-0.07083316147327423,-2.854652166366577
1740007291980865800,5.15486572265625,2.1887075901031494,-0.21548035740852356,-2.709131956100464
1740007291990847700,5.16484765625,1.8175203800201416,-0.3339603841304779,-2.4663784503936768
1740007292000829700,5.17482958984375,1.438755989074707,-0.4108455777168274,-2.1904923915863037
1740007292010812000,5.18481201171875,1.0557966232299805,-0.46757277846336365,-1.89578378200531
1740007292020793600,5.194793701171875,0.6687207818031311,-0.46057265996932983,-1.6126964092254639
1740007292030775800,5.20477587890625,0.2654460668563843,-0.41012388467788696,-1.3155086040496826
1740007292040758000,5.214758056640625,-0.18264970183372498,-0.30098700523376465,-0.983577311038971
1740007292050739700,5.22473974609375,-0.6471707820892334,-0.16194069385528564,-0.6503570079803467
1740007292060723000,5.234722900390625,-1.0886735916137695,-0.025793779641389847,-0.30475085973739624
1740007292070704600,5.24470458984375,-1.5078696012496948,0.10379297286272049,0.03141731023788452
1740007292080686800,5.254686767578125,-1.9230749607086182,0.29780957102775574,0.3512544333934784
1740007292090668800,5.264668701171875,-2.31400990486145,0.5180780291557312,0.6568934321403503
1740007292100650800,5.274650634765625,-2.61993408203125,0.6948773264884949,0.9518521428108215
1740007292110633000,5.284633056640625,-2.826478958129883,0.8033084273338318,1.1818454265594482
1740007292120614700,5.29461474609375,-2.9410488605499268,0.8759464621543884,1.3104223012924194
1740007292130596900,5.304596923828125,-2.987825870513916,0.8870755434036255,1.3598500490188599
1740007292140578800,5.314578857421875,-2.9873147010803223,0.8333603739738464,1.3375606536865234
1740007292150560800,5.324560791015625,-2.9690277576446533,0.688750684261322,1.2430166006088257
1740007292160542700,5.334542724609375,-2.9493825435638428,0.49306830763816833,1.068017601966858
1740007292170525000,5.34452490234375,-2.9616940021514893,0.25582510232925415,0.8269155025482178
1740007292180506600,5.354506591796875,-3.002746343612671,0.010871023871004581,0.5201638340950012
1740007292190489900,5.36448974609375,-3.086275339126587,-0.2195797562599182,0.1695200502872467
1740007292200471800,5.374471923828125,-3.1891396045684814,-0.4233821630477905,-0.19641850888729095
1740007292210453800,5.384453857421875,-3.2918481826782227,-0.5919256210327148,-0.523093044757843
1740007292220436000,5.39443603515625,-3.395264148712158,-0.7465359568595886,-0.7676692008972168
1740007292230417700,5.404417724609375,-3.505959987640381,-0.875092625617981,-0.9430349469184875
1740007292240400000,5.41439990234375,-3.619344472885132,-0.9681493043899536,-1.046881914138794
1740007292250381600,5.424381591796875,-3.733994245529175,-1.0044496059417725,-1.0994881391525269
1740007292260363300,5.43436328125,-3.834719657897949,-1.006120204925537,-1.1051956415176392
1740007292270345500,5.444345458984375,-3.9247639179229736,-0.9766210913658142,-1.0728092193603516
1740007292280327400,5.454327392578125,-3.984722852706909,-0.930000901222229,-0.9944427013397217
1740007292290309400,5.464309326171875,-4.032793045043945,-0.8382363319396973,-0.8979923725128174
1740007292300291300,5.474291259765625,-4.105669975280762,-0.7260178923606873,-0.7928832173347473
1740007292310273500,5.4842734375,-4.190868854522705,-0.5672053694725037,-0.6989791393280029
1740007292320255200,5.494255126953125,-4.255009174346924,-0.34749138355255127,-0.6562201976776123
1740007292330238500,5.504238525390625,-4.266007423400879,-0.05487842857837677,-0.6832531690597534
1740007292340220400,5.514220458984375,-4.25494384765625,0.2545028626918793,-0.7727044820785522
1740007292350202400,5.524202392578125,-4.264628887176514,0.5425477027893066,-0.9065176844596863
1740007292360184300,5.534184326171875,-4.297941207885742,0.7589290142059326,-1.0760505199432373
1740007292370166300,5.544166259765625,-4.353236198425293,0.8189547657966614,-1.2854719161987305
1740007292380148500,5.5541484375,-4.4208083152771,0.6430263519287109,-1.5344630479812622
1740007292390130200,5.564130126953125,-4.470373153686523,0.3022237718105316,-1.819588541984558
1740007292400112400,5.5741123046875,-4.472841739654541,-0.05229143425822258,-2.10589861869812
1740007292410094300,5.58409423828125,-4.3833394050598145,-0.29728707671165466,-2.362919569015503
1740007292420076300,5.594076171875,-4.179046154022217,-0.5565245151519775,-2.567859411239624
1740007292430058500,5.60405859375,-3.8556742668151855,-0.9166762828826904,-2.742138385772705
1740007292440040400,5.61404052734375,-3.389153003692627,-1.348645806312561,-2.9100797176361084
1740007292450022400,5.6240224609375,-2.773496389389038,-1.751535415649414,-3.0794591903686523
1740007292460005400,5.63400537109375,-2.052929162979126,-2.110611915588379,-3.241765022277832
1740007292469987300,5.6439873046875,-1.3099939823150635,-2.3958988189697266,-3.2933006286621094
1740007292479969300,5.65396923828125,-0.7076628804206848,-2.523292303085327,-3.1472387313842773
1740007292489951500,5.663951416015625,-0.3376736342906952,-2.4608588218688965,-2.812368392944336
1740007292499933400,5.673933349609375,-0.15774701535701752,-2.2580370903015137,-2.355952501296997
1740007292509915400,5.683915283203125,-0.08769549429416656,-2.02628493309021,-1.80575692653656
1740007292519897300,5.6938974609375,-0.05326002463698387,-1.7926504611968994,-1.1906324625015259
1740007292529879300,5.70387939453125,-0.006930344272404909,-1.5838228464126587,-0.5598936676979065
1740007292539861500,5.713861572265625,0.04459809511899948,-1.4138424396514893,0.02696557156741619
1740007292549843200,5.72384326171875,0.14231586456298828,-1.2804598808288574,0.5244805216789246
1740007292559825400,5.733825439453125,0.30905479192733765,-1.1639750003814697,0.9537368416786194
1740007292569807400,5.743807373046875,0.543862521648407,-1.0680387020111084,1.3300126791000366
1740007292579789300,5.753789306640625,0.8234959840774536,-0.8685628175735474,1.622720718383789
1740007292589771300,5.763771240234375,1.1148998737335205,-0.5757091045379639,1.8253295421600342
1740007292599754200,5.773754150390625,1.3916881084442139,-0.24932700395584106,1.9762418270111084
1740007292609736400,5.783736328125,1.6058741807937622,0.0810551717877388,2.1252195835113525
1740007292619718400,5.793718505859375,1.7445518970489502,0.39188387989997864,2.3118348121643066
1740007292629700400,5.803700439453125,1.879602074623108,0.6901429891586304,2.511775493621826
1740007292639682300,5.813682373046875,2.0997517108917236,0.9664073586463928,2.723372220993042
1740007292649664500,5.82366455078125,2.3999061584472656,1.1315441131591797,2.918403387069702
1740007292659646200,5.833646240234375,2.7645862102508545,1.105155110359192,3.074876070022583
1740007292669628400,5.84362841796875,3.172971487045288,0.9577552676200867,3.178652048110962
1740007292679610400,5.8536103515625,3.557960271835327,0.763309895992279,3.2251131534576416
1740007292689592300,5.86359228515625,3.872650623321533,0.6481777429580688,3.235856294631958
1740007292699574500,5.873574462890625,4.0954766273498535,0.6246042251586914,3.2180886268615723
1740007292709556200,5.88355615234375,4.2356390953063965,0.6333385705947876,3.1776483058929443
1740007292719538400,5.893538330078125,4.347815990447998,0.6419826745986938,3.1397087574005127
1740007292729521200,5.903521240234375,4.472972869873047,0.6231716871261597,3.0716464519500732
1740007292739503400,5.91350341796875,4.596926212310791,0.6036760210990906,2.927137613296509
1740007292749485300,5.9234853515625,4.68802547454834,0.6498672366142273,2.67931866645813
1740007292759467300,5.93346728515625,4.755649566650391,0.6568832993507385,2.3637075424194336
1740007292769449500,5.943449462890625,4.744604587554932,0.6135028004646301,2.0169363021850586
1740007292779431400,5.953431396484375,4.672537326812744,0.5205563902854919,1.6646075248718262
1740007292789413400,5.963413330078125,4.523828506469727,0.43592405319213867,1.2934355735778809
1740007292799395300,5.973395263671875,4.33211612701416,0.34736356139183044,0.8754156827926636
1740007292809377500,5.98337744140625,4.172262668609619,0.26305267214775085,0.45175066590309143
1740007292819359200,5.993359130859375,4.105604648590088,0.15777765214443207,0.09848236292600632
1740007292829341400,6.003341552734375,4.086155414581299,0.058871038258075714,-0.1617569476366043
1740007292839323400,6.013323486328125,4.069843769073486,-0.012444152496755123,-0.3389711380004883
1740007292849305300,6.023305419921875,4.049873352050781,-0.05619775876402855,-0.4420522451400757
1740007292859288600,6.03328857421875,4.03429651260376,-0.0869239792227745,-0.5116800665855408
1740007292869270300,6.043270263671875,4.0216240882873535,-0.09837956726551056,-0.572328507900238
1740007292879252500,6.05325244140625,3.994232654571533,-0.08363630622625351,-0.618206799030304
1740007292889234400,6.063234375,3.9421966075897217,-0.06886055320501328,-0.6408566832542419
1740007292899216400,6.07321630859375,3.8646278381347656,-0.06649966537952423,-0.6604109406471252
1740007292909198300,6.0831982421875,3.7621891498565674,-0.11730052530765533,-0.6995223760604858
1740007292919180300,6.09318017578125,3.6424148082733154,-0.22058776021003723,-0.7297045588493347
1740007292929162200,6.103162353515625,3.486006736755371,-0.32686465978622437,-0.7586888074874878
1740007292939144400,6.11314453125,3.26531720161438,-0.41748300194740295,-0.7805359959602356
1740007292949126400,6.12312646484375,2.9567272663116455,-0.4368976950645447,-0.8044973015785217
1740007292959108400,6.1331083984375,2.5777366161346436,-0.38579005002975464,-0.7911873459815979
1740007292969090600,6.143090576171875,2.1792032718658447,-0.32012659311294556,-0.7334808707237244
1740007292979072300,6.153072265625,1.807093858718872,-0.29082146286964417,-0.6161574721336365
1740007292989055500,6.163055419921875,1.4516336917877197,-0.2752070724964142,-0.4355970025062561
1740007292999037200,6.173037109375,1.0867053270339966,-0.2096182107925415,-0.19114811718463898
1740007293009019400,6.183019287109375,0.6530100107192993,-0.07568597048521042,0.08845396339893341
1740007293019001600,6.193001708984375,0.06428657472133636,0.13492612540721893,0.40743887424468994
1740007293028983300,6.2029833984375,-0.6071764826774597,0.27721643447875977,0.7799336314201355
1740007293038965500,6.212965576171875,-1.2221189737319946,0.24552294611930847,1.2100770473480225
1740007293048947500,6.222947509765625,-1.7188252210617065,0.10488007962703705,1.6233927011489868
1740007293058929400,6.232929443359375,-2.1632778644561768,-0.010339989326894283,1.8973898887634277
1740007293068911400,6.242911376953125,-2.6395514011383057,0.07362761348485947,1.9046128988265991
1740007293078893300,6.252893310546875,-3.1697068214416504,0.4527224600315094,1.6143752336502075
1740007293088875300,6.262875244140625,-3.7245728969573975,0.9763540029525757,1.14699387550354
1740007293098857500,6.272857421875,-4.213611125946045,1.3510797023773193,0.6781771779060364
1740007293108839200,6.282839111328125,-4.552945613861084,1.4803169965744019,0.32559940218925476
1740007293118822400,6.292822509765625,-4.690814971923828,1.4718912839889526,0.08106768876314163
1740007293128804400,6.302804443359375,-4.6987152099609375,1.4249746799468994,-0.07913476228713989
1740007293138786300,6.312786376953125,-4.737940311431885,1.3929249048233032,-0.14992931485176086
1740007293148768500,6.3227685546875,-4.645671844482422,1.151557445526123,-0.16400039196014404
1740007293158750200,6.332750244140625,-4.45428466796875,0.8232219815254211,-0.12135092914104462
1740007293168732400,6.342732421875,-4.252201557159424,0.41251006722450256,-0.06496275216341019
1740007293178714400,6.35271435546875,-4.111583232879639,0.08066395670175552,-0.04426972568035126
1740007293188696300,6.3626962890625,-4.04160213470459,-0.11748508363962173,-0.11756417900323868
1740007293198678300,6.37267822265625,-4.0301899909973145,-0.22750985622406006,-0.3034355044364929
1740007293208660500,6.382660400390625,-4.053415298461914,-0.3174155056476593,-0.5382834672927856
1740007293218642400,6.392642333984375,-4.0889763832092285,-0.42848050594329834,-0.7766606211662292
1740007293228624400,6.402624267578125,-4.111928462982178,-0.5588400959968567,-0.9640800356864929
1740007293238606300,6.4126064453125,-4.11167049407959,-0.658786952495575,-1.0908193588256836
1740007293248588500,6.422588623046875,-4.1015191078186035,-0.6906445026397705,-1.1699104309082031
1740007293258571300,6.4325712890625,-4.09591817855835,-0.6465502381324768,-1.1898561716079712
1740007293268553500,6.442553466796875,-4.093111991882324,-0.5357763171195984,-1.1536182165145874
1740007293278535700,6.45253564453125,-4.086877822875977,-0.4026710093021393,-1.068380355834961
1740007293288517400,6.462517333984375,-4.090591907501221,-0.2743798792362213,-0.9478216767311096
1740007293298499600,6.47249951171875,-4.105035781860352,-0.1637926548719406,-0.8119027614593506
1740007293308481500,6.4824814453125,-4.108222484588623,-0.04254106804728508,-0.7183672189712524
1740007293318463500,6.49246337890625,-4.091938495635986,0.0878201350569725,-0.6632296442985535
1740007293328445400,6.502445556640625,-4.047785758972168,0.2236863523721695,-0.6368475556373596
1740007293338427600,6.512427734375,-3.971702814102173,0.3251242935657501,-0.5890254378318787
1740007293348409300,6.522409423828125,-3.873295307159424,0.3749842643737793,-0.4986867606639862
1740007293358391600,6.5323916015625,-3.7305750846862793,0.37023210525512695,-0.36243730783462524
1740007293368373500,6.54237353515625,-3.5498921871185303,0.3122292757034302,-0.22651329636573792
1740007293378356500,6.5523564453125,-3.3361213207244873,0.15598613023757935,-0.12539386749267578
1740007293388338700,6.562338623046875,-3.1073193550109863,-0.10651605576276779,-0.0466359443962574
1740007293398320400,6.5723203125,-2.8739047050476074,-0.45382076501846313,0.025649437680840492
1740007293408302600,6.582302490234375,-2.642848491668701,-0.762037992477417,0.10581617802381516
1740007293418284500,6.592284423828125,-2.398923397064209,-0.9563142657279968,0.19466082751750946
1740007293428266500,6.6022666015625,-2.165252685546875,-1.1031614542007446,0.24431413412094116
1740007293438248400,6.61224853515625,-1.9408819675445557,-1.2126398086547852,0.2297687530517578
1740007293448230400,6.62223046875,-1.7331311702728271,-1.2835121154785156,0.12252138555049896
1740007293458212400,6.63221240234375,-1.483445405960083,-1.3398057222366333,-0.07345211505889893
1740007293468194600,6.642194580078125,-1.1700571775436401,-1.3804162740707397,-0.33626535534858704
1740007293478176500,6.652176513671875,-0.8160793781280518,-1.3706613779067993,-0.6183292865753174
1740007293488158500,6.662158447265625,-0.5054911375045776,-1.2758541107177734,-0.9000980854034424
1740007293498140700,6.672140625,-0.2533172070980072,-1.1284772157669067,-1.147365689277649
1740007293508123400,6.682123291015625,-0.01041429117321968,-1.07068932056427,-1.305315375328064
1740007293518105600,6.692105712890625,0.24443185329437256,-1.1371159553527832,-1.3716297149658203
1740007293528087300,6.70208740234375,0.47737401723861694,-1.2752901315689087,-1.3645739555358887
1740007293538069500,6.712069580078125,0.677239179611206,-1.4063493013381958,-1.280131220817566
1740007293548051700,6.7220517578125,0.8603035807609558,-1.485329031944275,-1.1201272010803223
1740007293558033400,6.732033447265625,1.0476473569869995,-1.5148675441741943,-0.8759070038795471
1740007293568015600,6.742015625,1.206821322441101,-1.4282325506210327,-0.54139244556427
1740007293577997600,6.75199755859375,1.3639440536499023,-1.1901187896728516,-0.14505332708358765
1740007293587979500,6.7619794921875,1.5622875690460205,-0.8364006280899048,0.29263320565223694
1740007293597961500,6.77196142578125,1.8136036396026611,-0.3890412151813507,0.7430530786514282
1740007293607943400,6.781943359375,2.094430446624756,0.10035776346921921,1.2091974020004272
1740007293617925400,6.79192529296875,2.385910749435425,0.6235645413398743,1.6956908702850342
1740007293627907600,6.801907470703125,2.67405104637146,1.1440082788467407,2.2028417587280273
1740007293637890600,6.811890625,3.0137124061584473,1.7833157777786255,2.7489795684814453
1740007293647872500,6.82187255859375,3.4227263927459717,2.1814229488372803,3.2749059200286865
1740007293657854500,6.8318544921875,3.8594887256622314,2.346337080001831,3.7312231063842773
1740007293667836400,6.84183642578125,4.295721530914307,2.434957981109619,4.067646503448486
1740007293677818600,6.851818603515625,4.643461227416992,2.457179069519043,4.2257080078125
1740007293687800300,6.86180029296875,4.819000720977783,2.3196959495544434,4.198005199432373
1740007293697782500,6.871782470703125,4.8390021324157715,2.0678136348724365,4.017789363861084
1740007293707764500,6.881764404296875,4.736530303955078,1.798752784729004,3.6897494792938232
1740007293717746400,6.891746337890625,4.562410354614258,1.5146965980529785,3.271834373474121
1740007293727728600,6.901728759765625,4.324655532836914,1.264525055885315,2.795274257659912
1740007293737710600,6.911710693359375,4.076388359069824,1.0991134643554688,2.382584571838379
1740007293747692500,6.921692626953125,3.8340706825256348,1.063307285308838,1.9766734838485718
1740007293757674500,6.931674560546875,3.6557250022888184,1.04102623462677,1.564447283744812
1740007293767657500,6.941657470703125,3.5282907485961914,0.9633790850639343,1.1752849817276
1740007293777639400,6.951639404296875,3.4747068881988525,0.8660999536514282,0.8044975399971008
1740007293787621400,6.961621337890625,3.5146524906158447,0.7856956124305725,0.49507951736450195
1740007293797603600,6.971603515625,3.6460554599761963,0.7356838583946228,0.27204883098602295
1740007293807585500,6.98158544921875,3.809324026107788,0.7242168188095093,0.13123178482055664
1740007293817567500,6.9915673828125,3.933845043182373,0.7801794409751892,0.033365145325660706
1740007293827549400,7.001549560546875,4.025322437286377,0.8942255973815918,-0.04698135703802109
1740007293837531600,7.01153173828125,4.0774922370910645,1.0004539489746094,-0.10718957334756851
1740007293847513300,7.021513427734375,4.10355281829834,1.0579782724380493,-0.17510363459587097
1740007293857495600,7.03149560546875,4.111293315887451,1.0598793029785156,-0.25195926427841187
1740007293867477500,7.0414775390625,4.0867180824279785,1.0105972290039062,-0.3404443860054016
1740007293877459500,7.05145947265625,4.021909713745117,0.9225754737854004,-0.4383499324321747
1740007293887442700,7.061442626953125,3.922147750854492,0.8377098441123962,-0.530048668384552
1740007293897424400,7.07142431640625,3.7547945976257324,0.7453151941299438,-0.5891082882881165
1740007293907406600,7.081406494140625,3.5355165004730225,0.6727440357208252,-0.6369684934616089
1740007293917388500,7.091388427734375,3.2891106605529785,0.6481603980064392,-0.6952674388885498
1740007293927370500,7.10137060546875,3.0292513370513916,0.684999406337738,-0.7675973176956177
1740007293937352400,7.1113525390625,2.770014762878418,0.7696143984794617,-0.8338088393211365
1740007293947334400,7.12133447265625,2.5278878211975098,0.8287381529808044,-0.8932284712791443
1740007293957316400,7.13131640625,2.300602912902832,0.8443464040756226,-0.950176477432251
1740007293967298600,7.141298583984375,2.0917723178863525,0.7885020971298218,-0.9815335869789124
1740007293977280300,7.1512802734375,1.8940622806549072,0.6758317351341248,-0.9837495684623718
1740007293987262500,7.161262451171875,1.6866403818130493,0.49410000443458557,-0.9406066536903381
1740007293997244700,7.17124462890625,1.4575486183166504,0.27193352580070496,-0.8402864336967468
1740007294007227400,7.181227294921875,1.1969231367111206,0.04126754403114319,-0.6898940205574036
1740007294017209600,7.191209716796875,0.8956900238990784,-0.18824101984500885,-0.5024389028549194
1740007294027191300,7.20119140625,0.541473388671875,-0.38655969500541687,-0.3077136278152466
1740007294037173500,7.211173583984375,0.11932426691055298,-0.5346357226371765,-0.12399598211050034
1740007294047155500,7.221155517578125,-0.3461502194404602,-0.6304234862327576,0.02997441031038761
1740007294057137400,7.231137451171875,-0.8030807375907898,-0.6665990948677063,0.1427060216665268
1740007294067119600,7.24111962890625,-1.2375386953353882,-0.6848249435424805,0.21509979665279388
1740007294077101600,7.2511015625,-1.6620124578475952,-0.7272485494613647,0.2694767415523529
1740007294087083500,7.26108349609375,-2.0921378135681152,-0.7686516642570496,0.3065178692340851
1740007294097065500,7.2710654296875,-2.537977695465088,-0.7921847105026245,0.32536637783050537
1740007294107047700,7.281047607421875,-2.9640583992004395,-0.7919889688491821,0.31859129667282104
1740007294117029400,7.291029296875,-3.385469675064087,-0.7225283980369568,0.27395644783973694
1740007294127011600,7.301011474609375,-3.8173952102661133,-0.5284907221794128,0.16832615435123444
1740007294136994600,7.31099462890625,-4.2560200691223145,-0.16990408301353455,-0.013500895351171494
1740007294146976500,7.3209765625,-4.681710243225098,0.2859705090522766,-0.22873757779598236
1740007294156958500,7.33095849609375,-5.0940752029418945,0.7406216263771057,-0.4232258200645447
1740007294166940400,7.3409404296875,-5.461573600769043,1.080854892730713,-0.5488308668136597
1740007294176922600,7.350922607421875,-5.764303684234619,1.2164305448532104,-0.5808117389678955
1740007294186904300,7.360904296875,-5.99343204498291,1.1381183862686157,-0.5448646545410156
1740007294196886500,7.370886474609375,-6.104750156402588,0.8819563984870911,-0.4649610221385956
1740007294206868500,7.380868408203125,-6.051474571228027,0.5000697374343872,-0.38847318291664124
1740007294216850400,7.390850341796875,-5.831984519958496,0.00014194648247212172,-0.3154138922691345
1740007294226832400,7.400832275390625,-5.499256610870361,-0.5087814927101135,-0.2648462951183319
1740007294236814600,7.410814697265625,-5.145485877990723,-0.9634091854095459,-0.22345519065856934
1740007294246797000,7.420797119140625,-4.863675594329834,-1.3364967107772827,-0.18454082310199738
1740007294256779000,7.430779052734375,-4.680971145629883,-1.7298288345336914,-0.11338594555854797
1740007294266762000,7.440761962890625,-4.563124656677246,-2.1497385501861572,0.021318605169653893
1740007294276744000,7.450743896484375,-4.4477949142456055,-2.465280294418335,0.23613663017749786
1740007294286726000,7.460725830078125,-4.344927787780762,-2.605917453765869,0.5109679102897644
1740007294296708000,7.4707080078125,-4.260050296783447,-2.569554328918457,0.7979272603988647
1740007294306690000,7.48068994140625,-4.185574531555176,-2.36914324760437,1.0635184049606323
1740007294316672000,7.490672119140625,-4.091725826263428,-2.0115082263946533,1.3001139163970947
1740007294326654000,7.500654052734375,-3.938230276107788,-1.588639736175537,1.5089116096496582
1740007294336636200,7.51063623046875,-3.7368597984313965,-1.1403511762619019,1.6713823080062866
1740007294346617900,7.520617919921875,-3.511777877807617,-0.7154781818389893,1.785140872001648
1740007294356600000,7.53060009765625,-3.2819247245788574,-0.38393595814704895,1.8379875421524048
1740007294366582000,7.54058203125,-3.0401391983032227,-0.15457385778427124,1.8156346082687378
1740007294376564000,7.55056396484375,-2.7928292751312256,-0.0012130698887631297,1.728435754776001
1740007294386547200,7.560547119140625,-2.582496166229248,-0.02744387462735176,1.569512963294983
1740007294396529000,7.57052880859375,-2.4136524200439453,0,1.3217556476593018
1740007294406511000,7.580510986328125,-2.22214937210083,0.026854250580072403,0.9859586954116821
1740007294416493000,7.5904931640625,-1.9760005474090576,0.025166606530547142,0.6117957234382629
1740007294426475000,7.60047509765625,-1.721621036529541,0.014590926468372345,0.2688373327255249
1740007294436457000,7.61045703125,-1.509285807609558,0.013068930245935917,-0.025044100359082222
1740007294446439000,7.62043896484375,-1.357896327972412,-0.03698944300413132,-0.30155158042907715
1740007294456420900,7.6304208984375,-1.2576637268066406,-0.2228652983903885,-0.5791621804237366
1740007294466403000,7.640403076171875,-1.1841626167297363,-0.5696762800216675,-0.8747498989105225
1740007294476384800,7.650384765625,-1.1426411867141724,-1.018534779548645,-1.1565791368484497
1740007294486367000,7.660366943359375,-1.159477710723877,-1.394247055053711,-1.420438289642334
1740007294496349200,7.67034912109375,-1.1660200357437134,-1.5135189294815063,-1.656325101852417
1740007294506332000,7.680331787109375,-1.0833957195281982,-1.3758212327957153,-1.8761309385299683
1740007294516314000,7.690314208984375,-0.9178501963615417,-1.0693185329437256,-2.0718860626220703
1740007294526295800,7.7002958984375,-0.6975308656692505,-0.6853245496749878,-2.211989641189575
1740007294536278000,7.710278076171875,-0.44653940200805664,-0.3763589859008789,-2.258260726928711
1740007294546260000,7.720260009765625,-0.18060599267482758,-0.20981794595718384,-2.203819751739502
1740007294556242000,7.730241943359375,0.11511567234992981,-0.18690943717956543,-2.0477075576782227
1740007294566224100,7.74022412109375,0.4543307423591614,-0.24565264582633972,-1.7794877290725708
1740007294576206000,7.7502060546875,0.8396376967430115,-0.3438660204410553,-1.4205213785171509
1740007294586188000,7.76018798828125,1.2403353452682495,-0.35700365900993347,-0.9791886806488037
1740007294596170000,7.770169921875,1.655975341796875,-0.2717745304107666,-0.5013818740844727
1740007294606152000,7.78015185546875,2.098374843597412,-0.09208891540765762,-0.04899364337325096
1740007294616134000,7.7901337890625,2.5683631896972656,0.19666805863380432,0.3294154405593872
1740007294626116000,7.8001162109375,3.0265448093414307,0.5893176198005676,0.636212944984436
1740007294636099000,7.81009912109375,3.4361376762390137,1.054270625114441,0.8873857855796814
1740007294646081000,7.8200810546875,3.7905473709106445,1.5433346033096313,1.118764877319336
1740007294656063000,7.83006298828125,4.099242687225342,2.0103211402893066,1.3209667205810547
1740007294666045000,7.840044921875,4.3826212882995605,2.3680179119110107,1.478074312210083
1740007294676027100,7.850027099609375,4.6415629386901855,2.5742924213409424,1.5616531372070312
1740007294686008800,7.8600087890625,4.848269939422607,2.5942680835723877,1.5397305488586426
1740007294695991000,7.869990966796875,4.9612135887146,2.451674699783325,1.3870328664779663
1740007294705973000,7.879972900390625,4.990629196166992,2.1648740768432617,1.1235988140106201
1740007294715955000,7.889954833984375,4.9589433670043945,1.7500981092453003,0.7798231244087219
1740007294725938200,7.899938232421875,4.9042229652404785,1.2278703451156616,0.3990967869758606
1740007294735919900,7.909919921875,4.7961273193359375,0.7883396148681641,-0.022702116519212723
1740007294745902000,7.919902099609375,4.636348724365234,0.4826963543891907,-0.3967931568622589
1740007294755884000,7.929884033203125,4.422407150268555,0.16305123269557953,-0.7275676131248474
1740007294765866000,7.939865966796875,4.227238655090332,0.022042185068130493,-0.9473729729652405
1740007294775848000,7.949847900390625,4.0818328857421875,-0.05218517407774925,-1.0391534566879272
1740007294785830100,7.959830078125,3.9662282466888428,-0.13633494079113007,-1.0078275203704834
1740007294795811800,7.969811767578125,3.8730742931365967,-0.2404823750257492,-0.8904633522033691
1740007294805794000,7.9797939453125,3.8392174243927,-0.31019461154937744,-0.7292645573616028
1740007294815775700,7.989775634765625,3.8317573070526123,-0.2819294333457947,-0.5554094314575195
1740007294825758000,7.999758056640625,3.8590524196624756,-0.266702800989151,-0.3386736512184143
1740007294835740200,8.009740234375,3.9048895835876465,-0.19277504086494446,-0.12490518391132355
1740007294845723000,8.019722900390626,3.9822962284088135,-0.03707306459546089,0.07862397283315659
1740007294855705000,8.029705078125,4.055624961853027,0.18227633833885193,0.24774588644504547
1740007294865686800,8.039686767578125,4.086589813232422,0.4248064160346985,0.3701778054237366
1740007294875669000,8.0496689453125,4.090212821960449,0.6693738102912903,0.45716968178749084
1740007294885651000,8.05965087890625,4.050485610961914,0.8859849572181702,0.5098581910133362
1740007294895633000,8.0696328125,3.9655704498291016,1.0319639444351196,0.514881432056427
1740007294905615000,8.079614990234376,3.8301894664764404,1.111641764640808,0.46615731716156006
1740007294915597000,8.08959716796875,3.647796154022217,1.1158349514007568,0.39101701974868774
1740007294925579000,8.0995791015625,3.3949811458587646,1.0438307523727417,0.30722200870513916
1740007294935561000,8.10956103515625,3.107743740081787,0.9314405918121338,0.2073286920785904
1740007294945543200,8.119543212890624,2.8175957202911377,0.8251527547836304,0.08725953847169876
1740007294955524900,8.12952490234375,2.5371994972229004,0.7541465163230896,-0.040281377732753754
1740007294965508000,8.139508056640626,2.270780563354492,0.7216993570327759,-0.19161151349544525
1740007294975490000,8.149489990234375,2.023411512374878,0.6961314082145691,-0.3635942041873932
1740007294985472000,8.159471923828125,1.8023152351379395,0.6697596907615662,-0.5529481172561646
1740007294995454000,8.169453857421875,1.6092110872268677,0.6063884496688843,-0.7312872409820557
1740007295005436000,8.179435791015624,1.4351415634155273,0.5092666745185852,-0.8999188542366028
1740007295015418000,8.189418212890626,1.251369595527649,0.39788132905960083,-1.0302505493164062
1740007295025399800,8.19939990234375,1.0514460802078247,0.28147295117378235,-1.1079554557800293
1740007295035382000,8.209382080078125,0.8330115079879761,0.12938834726810455,-1.125397801399231
1740007295045364000,8.219364013671875,0.5693508386611938,-0.05422968417406082,-1.0972316265106201
1740007295055346000,8.229345947265625,0.22982041537761688,-0.23212137818336487,-1.0509017705917358
1740007295065327900,8.239327880859374,-0.17548500001430511,-0.37379488348960876,-0.9955263733863831
1740007295075310000,8.24931005859375,-0.6544345617294312,-0.4854646921157837,-0.9072324633598328
1740007295085293000,8.25929296875,-1.1847599744796753,-0.579879641532898,-0.8053526878356934
1740007295095274000,8.26927392578125,-1.753692626953125,-0.6923121809959412,-0.7175437211990356
1740007295105256200,8.279256103515625,-2.387688636779785,-0.9025601744651794,-0.7125793695449829
1740007295115239000,8.289239013671875,-3.0861258506774902,-1.2300810813903809,-0.8813267946243286
1740007295125221000,8.29922119140625,-3.799591302871704,-1.6510951519012451,-1.273324728012085
1740007295135202800,8.309202880859376,-4.491330623626709,-2.0647501945495605,-1.8900991678237915
1740007295145185000,8.31918505859375,-5.082611083984375,-2.4110119342803955,-2.6199212074279785
1740007295155167000,8.3291669921875,-5.530568599700928,-2.6034018993377686,-3.3395791053771973
1740007295165149000,8.33914892578125,-5.848932266235352,-2.554779291152954,-3.9388046264648438
1740007295175131100,8.349131103515624,-5.998987674713135,-2.205064296722412,-4.406247615814209
1740007295185112800,8.35911279296875,-5.910390853881836,-1.5515522956848145,-4.696042537689209
1740007295195095000,8.369094970703125,-5.55536413192749,-0.6432514190673828,-4.730578899383545
1740007295205077000,8.379076904296875,-5.031535625457764,0.27552053332328796,-4.4975175857543945
1740007295215059000,8.389058837890625,-4.499882221221924,0.9517716765403748,-4.0697455406188965
1740007295225041000,8.399041015625,-4.088140487670898,1.3840426206588745,-3.505657434463501
1740007295235024000,8.40902392578125,-3.8701367378234863,1.6964898109436035,-2.9064130783081055
1740007295245006000,8.419006103515626,-3.784895181655884,1.8386554718017578,-2.333681106567383
1740007295254988000,8.428988037109375,-3.7300961017608643,1.7896572351455688,-1.8013427257537842
1740007295264970000,8.438969970703125,-3.672741651535034,1.632128357887268,-1.3281269073486328
1740007295274952000,8.448951904296875,-3.629356861114502,1.4651676416397095,-0.96758633852005
1740007295284934100,8.45893408203125,-3.5965330600738525,1.391386866569519,-0.7602003812789917
1740007295294915800,8.468915771484374,-3.5535287857055664,1.391312837600708,-0.6606572866439819
1740007295304898000,8.47889794921875,-3.536625862121582,1.3985430002212524,-0.592805027961731
1740007295314880000,8.4888798828125,-3.5412516593933105,1.410151720046997,-0.47704485058784485
1740007295324862000,8.498862060546875,-3.5528712272644043,1.4019694328308105,-0.24606409668922424
1740007295334844000,8.508843994140625,-3.4722368717193604,1.4508302211761475,-0.025855299085378647
1740007295344827000,8.518826904296875,-3.3255536556243896,1.5011259317398071,0.2619786262512207
1740007295354809000,8.52880908203125,-3.1732916831970215,1.533875823020935,0.5882206559181213
1740007295364791000,8.538791015625,-3.0013844966888428,1.5607216358184814,0.9049226641654968
1740007295374773000,8.54877294921875,-2.7949883937835693,1.56122624874115,1.1814574003219604
1740007295384755000,8.5587548828125,-2.5983986854553223,1.555375337600708,1.3933632373809814
1740007295394737000,8.56873681640625,-2.422654628753662,1.5010638236999512,1.5290662050247192
1740007295404718800,8.57871875,-2.2733891010284424,1.376362681388855,1.5554271936416626
1740007295414701000,8.588701171875,-2.125816822052002,1.2416578531265259,1.4604392051696777
1740007295424683000,8.59868310546875,-1.9838839769363403,1.0745266675949097,1.233294129371643
1740007295434665000,8.6086650390625,-1.881466031074524,0.8734313249588013,0.9110990762710571
1740007295444647200,8.618647216796875,-1.8304544687271118,0.6090912818908691,0.6119701862335205
1740007295454628900,8.62862890625,-1.8778023719787598,0.4137580394744873,0.2124086618423462
1740007295464612000,8.638612060546874,-1.9446502923965454,0.19094598293304443,-0.15058152377605438
1740007295474593800,8.64859375,-2.01183819770813,-0.05297107249498367,-0.48007020354270935
1740007295484576000,8.658575927734375,-2.0733225345611572,-0.2997174859046936,-0.7833659052848816
1740007295494558200,8.66855810546875,-2.150744915008545,-0.5375590324401855,-1.1454317569732666
1740007295504540000,8.678539794921875,-2.212954521179199,-0.7672889232635498,-1.5152974128723145
1740007295514522000,8.688522216796875,-2.2651278972625732,-0.9390127658843994,-1.8611421585083008
1740007295524504000,8.698504150390624,-2.336989164352417,-1.028549075126648,-2.138190269470215
1740007295534486000,8.708486083984376,-2.466134548187256,-0.9896056056022644,-2.327086925506592
1740007295544468000,8.718468017578125,-2.5846450328826904,-0.8274577260017395,-2.4273629188537598
1740007295554450000,8.728449951171875,-2.5741491317749023,-0.5721727013587952,-2.4077179431915283
1740007295564432000,8.738431884765625,-2.308971881866455,-0.2983970642089844,-2.210716485977173
1740007295574414800,8.748414794921874,-1.8289010524749756,-0.145923912525177,-1.7955173254013062
1740007295584397000,8.75839697265625,-1.2318968772888184,-0.12609349191188812,-1.1784451007843018
1740007295594379000,8.76837890625,-0.5926132798194885,-0.16340197622776031,-0.44254839420318604
1740007295604361000,8.77836083984375,0.08816501498222351,-0.16150900721549988,0.2898014485836029
1740007295614343000,8.788343017578125,0.8353191018104553,-0.0716177299618721,0.9064875841140747
1740007295624325000,8.7983251953125,1.6193944215774536,0.10880690813064575,1.347822904586792
1740007295634306800,8.808306884765624,2.3679404258728027,0.3475686311721802,1.627278447151184
1740007295644289000,8.8182890625,2.994309902191162,0.5583644509315491,1.79896080493927
1740007295654271000,8.82827099609375,3.4786460399627686,0.6687785983085632,1.9290894269943237
1740007295664253000,8.8382529296875,3.8750250339508057,0.6723078489303589,2.048060178756714
1740007295674235100,8.848235107421875,4.222513198852539,0.6300064325332642,2.1382675170898438
1740007295684217000,8.858217041015624,4.534344673156738,0.5905019044876099,2.1721527576446533
1740007295694200000,8.868199951171874,4.800821781158447,0.5427367687225342,2.1405935287475586
1740007295704182000,8.87818212890625,4.977807998657227,0.47726669907569885,2.07051420211792
1740007295714164000,8.8881640625,5.036913871765137,0.3667449653148651,2.0053398609161377
1740007295724146000,8.89814599609375,4.989679336547852,0.23080818355083466,1.9656338691711426
1740007295734127900,8.9081279296875,4.850559234619141,0.13592320680618286,1.9592654705047607
1740007295744110000,8.918110107421874,4.6426472663879395,0.09037703275680542,1.952888011932373
1740007295754092000,8.928092041015624,4.4281439781188965,0.08971976488828659,1.9438763856887817
1740007295764074000,8.938073974609376,4.2584614753723145,0.19776926934719086,1.9373985528945923
1740007295774056000,8.948055908203125,4.137005805969238,0.40876859426498413,1.891934871673584
1740007295784038100,8.9580380859375,4.042798042297363,0.5917035341262817,1.8022327423095703
1740007295794019800,8.968019775390625,3.9577395915985107,0.648923397064209,1.6960093975067139
1740007295804003000,8.978003173828125,3.858039379119873,0.6367791295051575,1.5728254318237305
1740007295813985000,8.987985107421874,3.7593777179718018,0.58055180311203,1.402227759361267
1740007295823967000,8.997967041015626,3.703605890274048,0.42765945196151733,1.204901933670044
1740007295833949200,9.00794921875,3.7194480895996094,0.25050386786460876,0.9931071400642395
1740007295843931000,9.017930908203125,3.792356491088867,0.1607886105775833,0.8067761659622192
1740007295853913000,9.0279130859375,3.854682207107544,0.17693109810352325,0.6513428688049316
1740007295863895000,9.03789501953125,3.889227867126465,0.23607458174228668,0.5288214683532715
1740007295873877000,9.047876953125,3.921673059463501,0.3207886815071106,0.4283508062362671
1740007295883859000,9.05785888671875,3.941864490509033,0.4017045497894287,0.36034727096557617
1740007295893841200,9.067841064453125,3.930736541748047,0.4648217558860779,0.3260129988193512
1740007295903822800,9.07782275390625,3.8727190494537354,0.5132215023040771,0.2710932791233063
1740007295913805000,9.08780517578125,3.764387845993042,0.5272084474563599,0.18631315231323242
1740007295923788000,9.0977880859375,3.622495412826538,0.49208906292915344,0.10761008411645889
1740007295933770000,9.10777001953125,3.4480106830596924,0.41662731766700745,0.028488632291555405
1740007295943752000,9.117751953125,3.2512693405151367,0.3211572468280792,-0.0636543408036232
1740007295953734000,9.12773388671875,3.058012008666992,0.2288893759250641,-0.18637093901634216
1740007295963716000,9.137716064453125,2.8719112873077393,0.161391019821167,-0.3389351963996887
1740007295973697800,9.14769775390625,2.685896635055542,0.12261539697647095,-0.49388083815574646
1740007295983680000,9.157679931640626,2.494445562362671,0.09921792894601822,-0.6175644397735596
1740007295993662000,9.167661865234376,2.3091378211975098,0.04814143106341362,-0.6825002431869507
1740007296003644000,9.177643798828125,2.1411514282226562,-0.04755447059869766,-0.7255276441574097
1740007296013626000,9.187626220703125,1.9707753658294678,-0.19200512766838074,-0.7377946972846985
1740007296023608000,9.197608154296875,1.8107860088348389,-0.34035810828208923,-0.7325037717819214
1740007296033590000,9.207590087890624,1.6935036182403564,-0.4952249228954315,-0.7498577237129211
1740007296043573000,9.217572998046874,1.5897244215011597,-0.6872798204421997,-0.8086352944374084
1740007296053555000,9.227554931640626,1.4559309482574463,-0.9144133925437927,-0.8839894533157349
1740007296063537000,9.237536865234375,1.230744481086731,-1.1323672533035278,-0.9842297434806824
1740007296073519000,9.24751904296875,0.9047671556472778,-1.2780730724334717,-1.117711067199707
1740007296083501000,9.2575009765625,0.484762966632843,-1.35133957862854,-1.2764443159103394
1740007296093483000,9.26748291015625,-0.020326044410467148,-1.3597594499588013,-1.4392374753952026
1740007296103465000,9.27746484375,-0.612307071685791,-1.2617793083190918,-1.5668779611587524
1740007296113447000,9.287447021484375,-1.2765271663665771,-1.0271801948547363,-1.6224493980407715
1740007296123429000,9.29742919921875,-1.9524403810501099,-0.7043733596801758,-1.6038932800292969
1740007296133410800,9.307410888671875,-2.5702099800109863,-0.38028475642204285,-1.493131399154663
1740007296143393000,9.31739306640625,-3.0633130073547363,-0.0886627584695816,-1.3074586391448975
1740007296153376000,9.3273759765625,-3.386996030807495,0.1381528079509735,-1.0641573667526245
1740007296163358000,9.33735791015625,-3.5766000747680664,0.29329338669776917,-0.8112188577651978
1740007296173340200,9.347340087890625,-3.7059407234191895,0.4337162971496582,-0.6158043146133423
1740007296183321900,9.35732177734375,-3.8422226905822754,0.6134927272796631,-0.5038732886314392
1740007296193304000,9.367303955078125,-3.9801759719848633,0.8325028419494629,-0.4484054744243622
1740007296203286000,9.3772861328125,-4.094873428344727,0.9995589256286621,-0.43278416991233826
1740007296213268000,9.38726806640625,-4.2050065994262695,1.0389598608016968,-0.44310498237609863
1740007296223250000,9.39725,-4.309791088104248,0.9623745083808899,-0.4562636613845825
1740007296233232100,9.407232177734375,-4.359518051147461,0.7978004813194275,-0.4638907015323639
1740007296243213800,9.4172138671875,-4.345369338989258,0.6133145689964294,-0.47965848445892334
1740007296253195800,9.42719580078125,-4.254880905151367,0.43211865425109863,-0.4957141578197479
1740007296263178500,9.437178466796874,-4.125089645385742,0.30808591842651367,-0.5069851875305176
1740007296273160700,9.44716064453125,-3.998603343963623,0.27441132068634033,-0.4825354814529419
1740007296283142700,9.457142578125,-3.9089038372039795,0.35192421078681946,-0.3995383381843567
1740007296293124600,9.46712451171875,-3.8492870330810547,0.5210232138633728,-0.2670849561691284
1740007296303106600,9.4771064453125,-3.7903804779052734,0.7423833012580872,-0.07505320757627487
1740007296313088800,9.4870888671875,-3.7286007404327393,0.9422509074211121,0.16943056881427765
1740007296323070700,9.49707080078125,-3.6947779655456543,1.1109371185302734,0.4442373812198639
1740007296333052700,9.507052734375,-3.656749963760376,1.2008239030838013,0.7032316327095032
1740007296343034600,9.51703466796875,-3.6024580001831055,1.2394967079162598,0.9257755279541016
1740007296353016600,9.5270166015625,-3.5144848823547363,1.2466773986816406,1.1078755855560303
1740007296362998800,9.536998779296875,-3.4180591106414795,1.2528481483459473,1.2340329885482788
1740007296372981500,9.5469814453125,-3.325624465942383,1.2589435577392578,1.2933650016784668
1740007296382963700,9.556963623046874,-3.2386832237243652,1.241955280303955,1.3127533197402954
1740007296392945700,9.566945556640626,-3.165210723876953,1.1828725337982178,1.2823532819747925
1740007296402927600,9.576927734375,-3.109781265258789,1.075640320777893,1.2056108713150024
1740007296412909800,9.586909912109375,-3.078268527984619,0.9423070549964905,1.0896941423416138
1740007296422891500,9.5968916015625,-3.0936028957366943,0.6929481029510498,0.9251616597175598
1740007296432873700,9.606873779296874,-3.0927650928497314,0.582122802734375,0.7318693995475769
1740007296442855700,9.616855712890626,-3.093381643295288,0.42425382137298584,0.5168058276176453
1740007296452837600,9.626837646484375,-3.0762064456939697,0.22917726635932922,0.29148751497268677
1740007296462819600,9.636819580078125,-3.0026729106903076,0.06167588010430336,0.060746703296899796
1740007296472801800,9.6468017578125,-2.8746161460876465,-0.11909016966819763,-0.16220249235630035
1740007296482783500,9.656783447265624,-2.6771087646484375,-0.24371226131916046,-0.33404242992401123
1740007296492766700,9.6667666015625,-2.4380712509155273,-0.3419453501701355,-0.46070581674575806
1740007296502748700,9.676748779296876,-2.181583881378174,-0.4312174320220947,-0.5760212540626526
1740007296512730600,9.686730712890625,-1.939523696899414,-0.48228222131729126,-0.6774423718452454
1740007296522712800,9.696712890625,-1.7090811729431152,-0.513376772403717,-0.7465921640396118
1740007296532694500,9.706694580078125,-1.47581148147583,-0.47444215416908264,-0.7724533081054688
1740007296542676700,9.7166767578125,-1.2276605367660522,-0.35375967621803284,-0.7970638871192932
1740007296552658400,9.726658447265624,-0.9685370922088623,-0.21279029548168182,-0.8079751133918762
1740007296562640600,9.736640625,-0.7147940397262573,-0.09218878298997879,-0.7881073951721191
1740007296572622800,9.746622802734375,-0.44840601086616516,-0.009972206316888332,-0.6939249634742737
1740007296582604500,9.7566044921875,-0.13883058726787567,0.0016567525453865528,-0.5559926629066467
1740007296592586800,9.766586669921875,0.15179485082626343,-0.06584745645523071,-0.38551226258277893
1740007296602569500,9.776569580078124,0.4351370930671692,-0.23873427510261536,-0.20182420313358307
1740007296612551700,9.7865517578125,0.7150715589523315,-0.4089965522289276,-0.039803072810173035
1740007296622533600,9.79653369140625,1.0439213514328003,-0.445427268743515,0.051667455583810806
1740007296632515600,9.806515625,1.438763976097107,-0.30605125427246094,0.03726561367511749
1740007296642497500,9.81649755859375,1.895574927330017,-0.029995715245604515,-0.06390947103500366
1740007296652479700,9.826479736328125,2.374629020690918,0.2629634439945221,-0.1783236712217331
1740007296662461700,9.836461669921874,2.8324191570281982,0.4682995676994324,-0.20237919688224792
1740007296672443600,9.846443603515626,3.243955373764038,0.530187726020813,-0.10431601852178574
1740007296682425900,9.85642578125,3.6007611751556396,0.46999305486679077,0.06674760580062866
1740007296692407600,9.866407470703125,3.9003403186798096,0.3265690505504608,0.2794356346130371
1740007296702389800,9.8763896484375,4.108606338500977,0.15906742215156555,0.4941093325614929
1740007296712372500,9.88637255859375,4.230510711669922,0.037101563066244125,0.6514579057693481
1740007296722354700,9.896354736328124,4.238835334777832,-0.013440707698464394,0.6832307577133179
1740007296732336600,9.906336669921876,4.1586432456970215,0.001752360025420785,0.6399354934692383
1740007296742318600,9.916318603515625,4.065305709838867,0.028981316834688187,0.5388709306716919
1740007296752300800,9.92630078125,3.9676780700683594,0.10189919918775558,0.44873863458633423
1740007296762282500,9.936282470703125,3.876004219055176,0.1846526712179184,0.4121670424938202
1740007296772264700,9.9462646484375,3.849160671234131,0.3294961452484131,0.45841658115386963
1740007296782246700,9.95624658203125,3.8906140327453613,0.5199111104011536,0.6220420002937317
1740007296792228600,9.966228515625,3.9349420070648193,0.7246631979942322,0.7882781028747559
1740007296802210600,9.97621044921875,3.9415416717529297,0.7939090728759766,0.9555280804634094
1740007296812192800,9.98619287109375,3.909933567047119,0.7497174143791199,1.1083240509033203
1740007296822175700,9.99617578125,3.886608123779297,0.6910215616226196,1.188997507095337
1740007296832157700,10.00615771484375,3.871999502182007,0.5924966335296631,1.189494013786316
1740007296842139600,10.0161396484375,3.8867485523223877,0.45376670360565186,1.1393769979476929
1740007296852121600,10.02612158203125,3.9363996982574463,0.3378765881061554,1.0820695161819458
1740007296862103800,10.036103759765625,3.972597599029541,0.28948426246643066,1.0373307466506958
1740007296872085500,10.04608544921875,3.9863903522491455,0.287214994430542,1.0099060535430908
1740007296882067700,10.056067626953125,3.980210304260254,0.31772977113723755,0.992618203163147
1740007296892049700,10.066049560546874,3.971583604812622,0.37362366914749146,0.9895731210708618
1740007296902031600,10.076031494140626,3.957207441329956,0.42385992407798767,0.9868186116218567
1740007296912013800,10.086013916015625,3.9270217418670654,0.42263007164001465,0.9570958614349365
1740007296921995500,10.09599560546875,3.866562843322754,0.3776088058948517,0.8996379375457764
1740007296931978800,10.105978759765625,3.773517608642578,0.3220970928668976,0.8185063004493713
1740007296941960400,10.11596044921875,3.6476762294769287,0.26165103912353516,0.7233664989471436
1740007296951942700,10.125942626953124,3.492496967315674,0.19500410556793213,0.6304724812507629
1740007296961924600,10.135924560546876,3.309917688369751,0.14458833634853363,0.5449053645133972
1740007296971906600,10.145906494140625,3.11639666557312,0.12904053926467896,0.46399855613708496
1740007296981888800,10.155888671875,2.9029576778411865,0.15063664317131042,0.3636152148246765
1740007296991870700,10.16587060546875,2.6758759021759033,0.20801019668579102,0.23225773870944977
1740007297001852700,10.175852783203124,2.4310708045959473,0.26627856492996216,0.09613825380802155
1740007297011834600,10.185834716796874,2.1690099239349365,0.3043367266654968,-0.049677275121212006
1740007297021816800,10.19581689453125,1.8871593475341797,0.31220743060112,-0.20662720501422882
1740007297031798500,10.205798583984375,1.599940299987793,0.2888677418231964,-0.3517993092536926
1740007297041781800,10.21578173828125,1.3434436321258545,0.22808855772018433,-0.4727039039134979
1740007297051763700,10.225763671875,1.0901814699172974,0.13130982220172882,-0.5678051114082336
1740007297061745700,10.23574560546875,0.8058344721794128,0.010962369851768017,-0.6534315943717957
1740007297071727900,10.245727783203124,0.492868036031723,-0.11997886747121811,-0.735601544380188
1740007297081709600,10.25570947265625,0.1516007035970688,-0.24045655131340027,-0.8096771240234375
1740007297091691800,10.26569189453125,-0.21895231306552887,-0.35648301243782043,-0.8602740168571472
1740007297101673700,10.275673828125,-0.6487947702407837,-0.4545762836933136,-0.8747780919075012
1740007297111655700,10.28565576171875,-1.1213103532791138,-0.5324569940567017,-0.8163754940032959
1740007297121637600,10.2956376953125,-1.6168400049209595,-0.592066764831543,-0.6822560429573059
1740007297131619600,10.30561962890625,-2.097675085067749,-0.6201111674308777,-0.49065732955932617
1740007297141601500,10.3156015625,-2.5077686309814453,-0.603042483329773,-0.27546700835227966
1740007297151584500,10.32558447265625,-2.7964882850646973,-0.5591695308685303,-0.05048953741788864
1740007297161566700,10.335566650390625,-2.971651315689087,-0.5278419852256775,0.1744767278432846
1740007297171548700,10.345548583984375,-3.0708141326904297,-0.4998337924480438,0.3625528812408447
1740007297181530600,10.355530517578124,-3.1339845657348633,-0.48020175099372864,0.4651431739330292
1740007297191512600,10.3655126953125,-3.1950628757476807,-0.47135528922080994,0.4367767870426178
1740007297201494800,10.375494873046875,-3.2852087020874023,-0.44317078590393066,0.2732592225074768
1740007297211476500,10.3854765625,-3.4168248176574707,-0.3656882345676422,-0.016690563410520554
1740007297221458700,10.395458740234375,-3.595817804336548,-0.26051121950149536,-0.3918503224849701
1740007297231440600,10.405440673828124,-3.7910420894622803,-0.18478955328464508,-0.7365432381629944
1740007297241422600,10.415422607421876,-3.9653968811035156,-0.20506766438484192,-0.980294406414032
1740007297251404800,10.42540478515625,-4.0748772621154785,-0.3618064224720001,-1.1341012716293335
1740007297261387800,10.4353876953125,-4.094209671020508,-0.6035141348838806,-1.2396436929702759
1740007297271370000,10.445369873046875,-4.000535011291504,-0.8364222049713135,-1.307695984840393
1740007297281351700,10.4553515625,-3.796276092529297,-1.0072029829025269,-1.318457841873169
1740007297291334000,10.465333984375,-3.5651721954345703,-1.0253052711486816,-1.2509996891021729
1740007297301315800,10.47531591796875,-3.3699557781219482,-0.8918151259422302,-1.1158642768859863
1740007297311297800,10.4852978515625,-3.2377312183380127,-0.6692126989364624,-0.9262599349021912
1740007297321279700,10.49527978515625,-3.180835723876953,-0.42701736092567444,-0.7224234342575073
1740007297331262000,10.505261962890625,-3.1640231609344482,-0.21597330272197723,-0.5462055206298828
1740007297341244000,10.515243896484375,-3.1399199962615967,-0.02901540696620941,-0.40980827808380127
1740007297351225900,10.525225830078124,-3.1114017963409424,0.12603755295276642,-0.3254585266113281
1740007297361208000,10.5352080078125,-3.017122507095337,0.23020949959754944,-0.25637584924697876
1740007297371190800,10.545190673828126,-2.8897042274475098,0.3308298587799072,-0.19927023351192474
1740007297381173000,10.555173095703125,-2.7349722385406494,0.4182100296020508,-0.11128577589988708
1740007297391154700,10.56515478515625,-2.593717098236084,0.6053064465522766,0.015093465335667133
1740007297401137000,10.575136962890625,-2.5106751918792725,0.8114553093910217,0.1664891093969345
1740007297411119000,10.585119140625,-2.503950357437134,0.9164968132972717,0.4378732144832611
1740007297421100800,10.595100830078126,-2.4291694164276123,1.025490403175354,0.7188785076141357
1740007297431083000,10.6050830078125,-2.362318515777588,1.1096556186676025,1.1646125316619873
1740007297441065000,10.61506494140625,-2.388679027557373,1.1021734476089478,1.6651220321655273
1740007297451047000,10.625046875,-2.548962116241455,0.8535133004188538,2.0414633750915527
1740007297461028900,10.63502880859375,-2.811093807220459,0.30313482880592346,2.25687837600708
1740007297471011800,10.64501171875,-3.089766025543213,-0.39826613664627075,2.242605686187744
1740007297480993800,10.654993896484376,-3.2740862369537354,-1.0012539625167847,1.9333257675170898
1740007297490975700,10.664975830078125,-3.2575953006744385,-1.4011894464492798,1.4384806156158447
1740007297500958000,10.6749580078125,-3.0829849243164062,-1.499812126159668,0.9009361863136292
1740007297510940000,10.68493994140625,-2.851571559906006,-1.3450191020965576,0.42208945751190186
1740007297520921900,10.694921875,-2.6155169010162354,-1.0754786729812622,0.08838312327861786
1740007297530903800,10.70490380859375,-2.3998029232025146,-0.7483482360839844,-0.06750793755054474
1740007297540886000,10.714885986328126,-2.21433424949646,-0.41490983963012695,-0.11602940410375595
1740007297550867700,10.72486767578125,-2.0143513679504395,-0.10580286383628845,-0.1294884830713272
1740007297560850000,10.734849853515625,-1.7682185173034668,0.14024844765663147,-0.16022615134716034
1740007297570832000,10.744831787109375,-1.4438649415969849,0.31473690271377563,-0.2074304223060608
1740007297580814800,10.75481494140625,-1.0750731229782104,0.39517927169799805,-0.2534221410751343
1740007297590797000,10.764797119140624,-0.7047235369682312,0.3776705861091614,-0.28302156925201416
1740007297600778800,10.77477880859375,-0.35262808203697205,0.299022912979126,-0.3067657947540283
1740007297610761000,10.784760986328125,-0.003120692213997245,0.21190986037254333,-0.31590789556503296
1740007297620743000,10.794742919921875,0.3576393723487854,0.17573054134845734,-0.32743245363235474
1740007297630724900,10.804724853515625,0.7568019032478333,0.2323743849992752,-0.37148913741111755
1740007297640706800,10.814706787109374,1.208607792854309,0.3714289367198944,-0.4402892291545868
1740007297650688800,10.824688720703126,1.6718792915344238,0.5438811182975769,-0.512946367263794
1740007297660670700,10.834670654296875,2.0981199741363525,0.7176460027694702,-0.5674344301223755
1740007297670653000,10.84465283203125,2.4600799083709717,0.8544973134994507,-0.5787477493286133
1740007297680635000,10.854634765625,2.7608256340026855,0.9577318429946899,-0.5271903276443481
1740007297690617900,10.864617919921875,3.019063711166382,1.0168523788452148,-0.4076063930988312
1740007297700599800,10.874599853515624,3.2473676204681396,1.058377742767334,-0.24482759833335876
1740007297710581800,10.884581787109376,3.4303300380706787,1.11790931224823,-0.060262806713581085
1740007297720564000,10.89456396484375,3.5748348236083984,1.2027010917663574,0.13209651410579681
1740007297730545700,10.904545654296875,3.6519885063171387,1.2701270580291748,0.3124271333217621
1740007297740527900,10.91452783203125,3.661565065383911,1.2810728549957275,0.4604179263114929
1740007297750510000,10.924510009765624,3.6282548904418945,1.3021315336227417,0.5338426232337952
1740007297760491800,10.93449169921875,3.6052258014678955,1.3620625734329224,0.6101941466331482
1740007297770474000,10.944473876953126,3.60186505317688,1.4598551988601685,0.7457264065742493
1740007297780456000,10.9544560546875,3.608769655227661,1.5980393886566162,0.9265590310096741
1740007297790439000,10.96443896484375,3.6201012134552,1.705583930015564,1.133406162261963
1740007297800420900,10.9744208984375,3.635911464691162,1.7275714874267578,1.3534663915634155
1740007297810402800,10.98440283203125,3.6229283809661865,1.6483278274536133,1.5268813371658325
1740007297820385000,10.994385009765624,3.587775230407715,1.481398582458496,1.6029366254806519
1740007297830367000,11.004366943359376,3.5777156352996826,1.2633171081542969,1.585789680480957
1740007297840349000,11.014348876953125,3.6042559146881104,1.0501840114593506,1.5085039138793945
1740007297850331000,11.024330810546875,3.643566846847534,0.8782601952552795,1.379063606262207
1740007297860312800,11.034312744140625,3.6798644065856934,0.7904661297798157,1.2084189653396606
1740007297870294800,11.044294677734374,3.7183096408843994,0.7808169722557068,1.0061699151992798
1740007297880277000,11.054277099609376,3.7687525749206543,0.805382251739502,0.814725399017334
1740007297890258700,11.0642587890625,3.8217246532440186,0.857299268245697,0.6233277916908264
1740007297900242000,11.074241943359375,3.877342462539673,0.9137494564056396,0.43628543615341187
1740007297910224000,11.084223876953125,3.9130160808563232,0.9595521092414856,0.2590893507003784
1740007297920205800,11.094205810546875,3.922473430633545,0.9853760004043579,0.09172805398702621
1740007297930188000,11.10418798828125,3.9111979007720947,0.9617004990577698,-0.05636394023895264
1740007297940169700,11.114169677734376,3.8636882305145264,0.8839731812477112,-0.18269658088684082
1740007297950152000,11.12415185546875,3.7714455127716064,0.7621825933456421,-0.29369446635246277
1740007297960134000,11.1341337890625,3.6416192054748535,0.6093272566795349,-0.4025815427303314
1740007297970115800,11.14411572265625,3.46852970123291,0.46624812483787537,-0.5234254002571106
1740007297980097800,11.154097900390624,3.2435078620910645,0.33025699853897095,-0.6547567844390869
1740007297990080000,11.164080078125,2.9825985431671143,0.22692954540252686,-0.796633243560791
1740007298000063000,11.17406298828125,2.696493148803711,0.1538095325231552,-0.9452077746391296
1740007298010045000,11.184044921875,2.3906168937683105,0.10690594464540482,-1.09317946434021
1740007298020027000,11.19402685546875,2.0416014194488525,0.09123723208904266,-1.2190483808517456
1740007298030008800,11.2040087890625,1.6515936851501465,0.11977220326662064,-1.333040475845337
1740007298039990800,11.21399072265625,1.2411319017410278,0.18968071043491364,-1.4206653833389282
1740007298049972700,11.22397265625,0.8461150527000427,0.27182886004447937,-1.4679144620895386
1740007298059955000,11.233954833984376,0.5024157166481018,0.3554028272628784,-1.460141658782959
1740007298069936600,11.2439365234375,0.22181202471256256,0.4040564000606537,-1.3967454433441162
1740007298079918800,11.2539189453125,-0.024284034967422485,0.4168611466884613,-1.2814276218414307
1740007298089901000,11.263901123046875,-0.2953972816467285,0.3783116042613983,-1.1263943910598755
1740007298099883800,11.2738837890625,-0.5929722785949707,0.26369449496269226,-0.9580833911895752
1740007298109866000,11.283865966796874,-0.8887661099433899,0.1446775496006012,-0.8569860458374023
1740007298119847700,11.29384765625,-1.1887820959091187,0.058215368539094925,-0.8784202337265015
1740007298129830000,11.303829833984375,-1.5134574174880981,0.04477839171886444,-0.9815599322319031
1740007298139811800,11.313811767578125,-1.849703073501587,0.037276796996593475,-1.0873585939407349
1740007298149793800,11.323793701171875,-2.20770001411438,-0.012077702209353447,-1.0944141149520874
1740007298159776000,11.33377587890625,-2.582942247390747,-0.1308608055114746,-0.9673873782157898
1740007298169758000,11.343758056640626,-2.955993175506592,-0.3031119406223297,-0.7665837407112122
1740007298179740000,11.353739990234375,-3.308589458465576,-0.4657762050628662,-0.557016909122467
1740007298189721900,11.363721923828125,-3.6014513969421387,-0.6019138097763062,-0.3685913383960724
1740007298199703800,11.373703857421875,-3.858462333679199,-0.6502193212509155,-0.1962752342224121
1740007298209686800,11.383686767578125,-4.101029396057129,-0.6333308815956116,-0.037335120141506195
1740007298219669000,11.3936689453125,-4.322237968444824,-0.6037045121192932,0.11166448146104813
1740007298229651000,11.40365087890625,-4.516034126281738,-0.6317436099052429,0.27572107315063477
1740007298239633000,11.4136328125,-4.659339904785156,-0.7552934885025024,0.4433412253856659
1740007298249614800,11.42361474609375,-4.768739223480225,-0.9919667840003967,0.5310021042823792
1740007298259597000,11.43359716796875,-4.838100433349609,-1.3044443130493164,0.4420485198497772
1740007298269579000,11.4435791015625,-4.860223293304443,-1.6045335531234741,0.12801656126976013
1740007298279561000,11.45356103515625,-4.819294452667236,-1.7970062494277954,-0.3790905773639679
1740007298289543000,11.46354296875,-4.677224636077881,-1.8625801801681519,-0.9791867733001709
1740007298299525000,11.473525146484375,-4.455843448638916,-1.8137120008468628,-1.5368303060531616
1740007298309506800,11.4835068359375,-4.210324764251709,-1.7424514293670654,-1.9054288864135742
1740007298319490000,11.493489990234375,-3.9649906158447266,-1.774747610092163,-2.0912387371063232
1740007298329472000,11.503471923828124,-3.7205026149749756,-1.8559577465057373,-2.1614270210266113
1740007298339454000,11.513453857421876,-3.4774086475372314,-1.9062411785125732,-2.1655097007751465
1740007298349436200,11.523436279296876,-3.2250471115112305,-1.8281018733978271,-2.1612741947174072
1740007298359417900,11.53341796875,-2.953256368637085,-1.5592701435089111,-2.211890459060669
1740007298369400000,11.543400146484375,-2.6828601360321045,-1.0785272121429443,-2.341966152191162
1740007298379382000,11.553382080078125,-2.447572946548462,-0.4691579043865204,-2.5087997913360596
1740007298389364000,11.563364013671874,-2.2725160121917725,0.11640037596225739,-2.6174662113189697
1740007298399346000,11.573345947265626,-2.1622493267059326,0.5496849417686462,-2.6051185131073
1740007298409327900,11.583327880859375,-2.1017682552337646,0.8150237202644348,-2.487229347229004
1740007298419311000,11.59331103515625,-2.0591671466827393,0.9701507091522217,-2.3116207122802734
1740007298429292800,11.603292724609375,-2.026761531829834,1.0818207263946533,-2.1165716648101807
1740007298439275000,11.61327490234375,-1.9871703386306763,1.1779433488845825,-1.9157217741012573
1740007298449257000,11.623257080078124,-1.9320921897888184,1.238153338432312,-1.7064920663833618
1740007298459239000,11.633239013671876,-1.882267951965332,1.250478744506836,-1.483202576637268
1740007298469220900,11.643220947265625,-1.859951138496399,1.2023324966430664,-1.244128704071045
1740007298479203000,11.653203125,-1.8614108562469482,1.1391762495040894,-1.0330356359481812
1740007298489185000,11.66318505859375,-1.8836830854415894,1.1330746412277222,-0.8884398341178894
1740007298499167000,11.6731669921875,-1.9254039525985718,1.1697940826416016,-0.7946110963821411
1740007298509149200,11.683149169921874,-1.9660533666610718,1.2012134790420532,-0.720422089099884
1740007298519132000,11.6931318359375,-1.9401363134384155,1.116575002670288,-0.6210025548934937
1740007298529114000,11.703114013671875,-1.8499845266342163,0.8463821411132812,-0.5119551420211792
1740007298539095800,11.713095703125,-1.7041977643966675,0.44244664907455444,-0.414681613445282
1740007298549078000,11.723078125,-1.4885203838348389,0.07440552115440369,-0.3462676703929901
1740007298559060200,11.733060302734375,-1.2198423147201538,-0.13659219443798065,-0.3324549198150635
1740007298569042000,11.7430419921875,-0.9619619846343994,-0.1907326728105545,-0.3825276792049408
1740007298579024100,11.753024169921876,-0.7267548441886902,-0.24945589900016785,-0.44701558351516724
1740007298589005800,11.763005859375,-0.5128377079963684,-0.3806229829788208,-0.46063125133514404
1740007298598988000,11.772988037109375,-0.3346349895000458,-0.5576741695404053,-0.391855388879776
1740007298608970000,11.782969970703125,-0.1817367672920227,-0.7125988006591797,-0.25297075510025024
1740007298618953000,11.792952880859374,0.017242103815078735,-0.8361985087394714,-0.041071537882089615
1740007298628935200,11.80293505859375,0.2187879979610443,-0.8760225772857666,0.23157064616680145
1740007298638916900,11.812916748046876,0.4381246268749237,-0.8332573175430298,0.582935094833374
1740007298648899000,11.822899169921875,0.7020961046218872,-0.6625023484230042,0.9673128128051758
1740007298658881000,11.832881103515625,1.0433146953582764,-0.4103800654411316,1.3406025171279907
1740007298668863000,11.842863037109375,1.4492712020874023,-0.10133753716945648,1.6597919464111328
1740007298678845000,11.852844970703124,1.872109293937683,0.27885985374450684,1.9107682704925537
1740007298688827100,11.8628271484375,2.2587344646453857,0.6740013360977173,2.104950189590454
1740007298698808800,11.872808837890625,2.5873587131500244,1.026929259300232,2.240891218185425
1740007298708791000,11.882791015625,2.858245849609375,1.2711409330368042,2.339033365249634
1740007298718773000,11.89277294921875,3.0713210105895996,1.3676775693893433,2.40240478515625
1740007298728756000,11.902755859375,3.2333900928497314,1.3239809274673462,2.413823366165161
1740007298738738200,11.91273828125,3.350093364715576,1.2099571228027344,2.3373889923095703
1740007298748719900,11.922719970703126,3.416685104370117,1.0175613164901733,2.194157361984253
1740007298758702000,11.9327021484375,3.462456464767456,0.7841773629188538,1.9800962209701538
1740007298768684000,11.94268408203125,3.5069284439086914,0.5089146494865417,1.7127201557159424
1740007298778666000,11.952666015625,3.5421628952026367,0.19654421508312225,1.4279494285583496
1740007298788648000,11.96264794921875,3.5892691612243652,-0.14771169424057007,1.1797212362289429
1740007298798631000,11.972630859375,3.6627426147460938,-0.5104062557220459,0.9967215657234192
1740007298808613000,11.982613037109376,3.80076003074646,-0.8312500715255737,0.879581093788147
1740007298818594800,11.9925947265625,3.986830234527588,-1.0516782999038696,0.8371194005012512
1740007298828577000,12.002576904296875,4.188486099243164,-1.1540075540542603,0.8652501106262207
1740007298838559000,12.01255908203125,4.391200065612793,-1.0918843746185303,0.9459835886955261
1740007298848541000,12.022541015625,4.606982231140137,-0.953172504901886,1.0680605173110962
1740007298858523000,12.03252294921875,4.821391582489014,-0.7638947367668152,1.2274760007858276
1740007298868505000,12.042505126953126,5.001440048217773,-0.5194690227508545,1.4088926315307617
1740007298878486800,12.05248681640625,5.133511543273926,-0.19582968950271606,1.6130462884902954
1740007298888469000,12.062468994140625,5.208493709564209,0.15185131132602692,1.8112245798110962
1740007298898451200,12.072451171875,5.226243019104004,0.42828369140625,1.9939886331558228
1740007298908434000,12.082433837890624,5.171349048614502,0.5797520279884338,2.1447677612304688
1740007298918416100,12.092416015625,5.045903205871582,0.6516001224517822,2.2149436473846436
1740007298928397800,12.102397705078126,4.905618190765381,0.6799481511116028,2.1835649013519287
1740007298938380000,12.112380126953125,4.780740737915039,0.6983442306518555,2.051079273223877
1740007298948362000,12.122362060546875,4.653489589691162,0.7437926530838013,1.777368187904358
1740007298958344000,12.132343994140625,4.492377281188965,0.7814926505088806,1.3708972930908203
1740007298968326100,12.142326171875,4.268463134765625,0.7758869528770447,0.9291614294052124
1740007298978307800,12.152307861328126,3.9744582176208496,0.6998891234397888,0.5403679013252258
1740007298988290000,12.1622900390625,3.6149210929870605,0.5515528917312622,0.21746574342250824
1740007298998272000,12.17227197265625,3.196803092956543,0.3601195514202118,-0.05607392266392708
1740007299008255000,12.1822548828125,2.7449724674224854,0.19160591065883636,-0.31304898858070374
1740007299018237000,12.19223681640625,2.2874410152435303,0.07145101577043533,-0.5685036778450012
1740007299028219000,12.202218994140624,1.8469173908233643,-0.004768922459334135,-0.8195984959602356
1740007299038201000,12.212201171875,1.417377233505249,-0.0376906543970108,-1.038068175315857
1740007299048183000,12.22218310546875,0.9866271615028381,0.00018801917030941695,-1.2209006547927856
1740007299058165000,12.2321650390625,0.5544991493225098,0.1274394541978836,-1.3490221500396729
1740007299068147000,12.24214697265625,0.13027651607990265,0.3122343420982361,-1.4268550872802734
1740007299078129200,12.252129150390624,-0.2607479691505432,0.49709340929985046,-1.4656717777252197
1740007299088110800,12.26211083984375,-0.5965848565101624,0.610598623752594,-1.470307469367981
1740007299098093000,12.272093017578126,-0.8746883273124695,0.6326594948768616,-1.4278967380523682
1740007299108075000,12.282074951171875,-1.1158056259155273,0.5853734612464905,-1.357145071029663
1740007299118057000,12.292056884765625,-1.3013685941696167,0.4878133535385132,-1.2583366632461548
1740007299128039000,12.302038818359375,-1.4509857892990112,0.342207670211792,-1.1179898977279663
1740007299138021000,12.312021240234374,-1.5639692544937134,0.12393952161073685,-0.9461329579353333
1740007299148003000,12.322003173828126,-1.65670907497406,-0.13664865493774414,-0.7575628161430359
1740007299157985000,12.331985107421875,-1.7589606046676636,-0.4210068881511688,-0.5495182275772095
1740007299167967000,12.341967041015625,-1.9358235597610474,-0.6426567435264587,-0.3212004005908966
1740007299177950000,12.351949951171875,-2.1921451091766357,-0.7668399214744568,-0.10288350284099579
1740007299187932000,12.361931884765625,-2.488557815551758,-0.7859078645706177,0.08823558688163757
1740007299197913900,12.371913818359374,-2.7979536056518555,-0.6660235524177551,0.23813825845718384
1740007299207896000,12.38189599609375,-3.070127487182617,-0.4792078733444214,0.3332890272140503
1740007299217878000,12.3918779296875,-3.2620151042938232,-0.27330636978149414,0.36476197838783264
1740007299227860000,12.40185986328125,-3.353867292404175,-0.09248838573694229,0.3452617824077606
1740007299237842200,12.41184228515625,-3.35178279876709,-0.006478139199316502,0.2918528914451599
1740007299247824000,12.421823974609374,-3.3178319931030273,-0.004792624618858099,0.21082808077335358
1740007299257805300,12.431805419921876,-3.2987232208251953,-0.0735064446926117,0.126404270529747
1740007299267787500,12.44178759765625,-3.3067986965179443,-0.19716180860996246,0.05339398235082626
1740007299277770200,12.451770263671875,-3.3536930084228516,-0.3251996636390686,-0.028329908847808838
1740007299287752400,12.46175244140625,-3.418623924255371,-0.4157729744911194,-0.12401142716407776
1740007299297734100,12.471734130859375,-3.486809253692627,-0.4850601553916931,-0.2202247828245163
1740007299307716400,12.48171630859375,-3.5447869300842285,-0.5420435667037964,-0.3162756860256195
1740007299317698600,12.491698486328126,-3.58073353767395,-0.575029730796814,-0.4180779457092285
1740007299327680300,12.50168017578125,-3.6000378131866455,-0.582503080368042,-0.5194215774536133
1740007299337662500,12.511662353515625,-3.6075947284698486,-0.5398104786872864,-0.5989995002746582
1740007299347644400,12.52164453125,-3.6044578552246094,-0.4496220052242279,-0.6386004686355591
1740007299357626400,12.53162646484375,-3.5946335792541504,-0.3267517685890198,-0.6202092170715332
1740007299367608300,12.5416083984375,-3.55755877494812,-0.20993991196155548,-0.5463179349899292
1740007299377591300,12.55159130859375,-3.485886335372925,-0.1442333459854126,-0.4314219653606415
1740007299387573500,12.561573486328125,-3.3758020401000977,-0.10250986367464066,-0.31236669421195984
