time,seconds_elapsed,z,y,x
1739983190121195000,0.035195068359375,-0.6054229736328125,-0.1948699951171875,0.6503448486328125
1739983190131178200,0.04517822265625,-0.5010223388671875,-0.28387451171875,0.6635589599609375
1739983190141160000,0.055159912109375,-0.4020233154296875,-0.32684326171875,0.642791748046875
1739983190151142100,0.06514208984375,-0.349273681640625,-0.3055877685546875,0.5829010009765625
1739983190161124400,0.075124267578125,-0.317962646484375,-0.3111572265625,0.5362548828125
1739983190171106000,0.08510595703125,-0.32769775390625,-0.3485107421875,0.603973388671875
1739983190181088300,0.095088134765625,-0.46661376953125,-0.388946533203125,0.5743865966796875
1739983190191071000,0.105071044921875,-0.7141876220703125,-0.451324462890625,0.5044097900390625
1739983190201053200,0.11505322265625,-0.8400115966796875,-0.488922119140625,0.5657501220703125
1739983190211035100,0.12503515625,-0.8464202880859375,-0.4372406005859375,0.6412811279296875
1739983190221017000,0.13501708984375,-0.8896484375,-0.3789520263671875,0.6585540771484375
1739983190230999300,0.144999267578125,-0.9212188720703125,-0.3655242919921875,0.6595001220703125
1739983190240982000,0.15498193359375,-1.02117919921875,-0.4148101806640625,0.5081939697265625
1739983190250964200,0.164964111328125,-0.995330810546875,-0.498748779296875,0.236419677734375
1739983190260946000,0.17494580078125,-0.755462646484375,-0.51251220703125,0.1277618408203125
1739983190270928100,0.18492822265625,-0.4765777587890625,-0.4745330810546875,0.035247802734375
1739983190280910000,0.19491015625,-0.4151458740234375,-0.372161865234375,0.09954833984375
1739983190290892000,0.20489208984375,-0.512939453125,-0.1542205810546875,0.447052001953125
1739983190300875300,0.214875244140625,-0.5844268798828125,-0.0297393798828125,0.631683349609375
1739983190310857000,0.22485693359375,-0.5779876708984375,0.0269927978515625,0.7519073486328125
1739983190320839200,0.234839111328125,-0.5592803955078125,0.075958251953125,0.798553466796875
1739983190330821000,0.244821044921875,-0.5434417724609375,0.1291046142578125,0.8353424072265625
1739983190340803000,0.254802978515625,-0.4787139892578125,0.156341552734375,0.857391357421875
1739983190350785000,0.264784912109375,-0.386505126953125,0.1278839111328125,0.7053375244140625
1739983190360768000,0.27476806640625,-0.3084716796875,0.0718231201171875,0.6098785400390625
1739983190370750200,0.284750244140625,-0.247406005859375,-0.01617431640625,0.5399322509765625
1739983190380732200,0.294732177734375,-0.3125762939453125,-0.1163787841796875,0.4315032958984375
1739983190390714000,0.304714111328125,-0.38958740234375,-0.135009765625,0.3210296630859375
1739983190400696000,0.314696044921875,-0.356475830078125,-0.02374267578125,0.3324432373046875
1739983190410678300,0.32467822265625,-0.3109130859375,0.0874786376953125,0.4628448486328125
1739983190420661200,0.3346611328125,-0.2956085205078125,0.1238861083984375,0.5361175537109375
1739983190430643200,0.344643310546875,-0.33282470703125,0.12213134765625,0.5689544677734375
1739983190440625200,0.354625244140625,-0.3787994384765625,0.1188201904296875,0.6069793701171875
1739983190450607000,0.364607177734375,-0.3865203857421875,0.148223876953125,0.581756591796875
1739983190460589000,0.374589111328125,-0.3447418212890625,0.1871185302734375,0.5751953125
1739983190470571000,0.384571044921875,-0.30621337890625,0.2048797607421875,0.56890869140625
1739983190480554000,0.394553955078125,-0.304107666015625,0.19842529296875,0.4428558349609375
1739983190490536200,0.4045361328125,-0.3094329833984375,0.1815032958984375,0.336517333984375
1739983190500518100,0.41451806640625,-0.263092041015625,0.3267059326171875,0.378387451171875
1739983190510500000,0.4245,-0.2418365478515625,0.457000732421875,0.5507049560546875
1739983190520482000,0.43448193359375,-0.2949066162109375,0.4357452392578125,0.675994873046875
1739983190530465000,0.444465087890625,-0.3776397705078125,0.418548583984375,0.8201446533203125
1739983190540447200,0.454447265625,-0.46380615234375,0.4936065673828125,0.975677490234375
1739983190550429200,0.46442919921875,-0.5424041748046875,0.6179962158203125,1.12615966796875
1739983190560411100,0.4744111328125,-0.5818328857421875,0.7222137451171875,1.292083740234375
1739983190570393000,0.48439306640625,-0.5881500244140625,0.717193603515625,1.360015869140625
1739983190580375300,0.494375244140625,-0.5873565673828125,0.6300811767578125,1.33538818359375
1739983190590358000,0.50435791015625,-0.5576324462890625,0.602935791015625,1.3560791015625
1739983190600340200,0.51434033203125,-0.5511016845703125,0.622467041015625,1.5447235107421875
1739983190610322200,0.524322265625,-0.57391357421875,0.6343231201171875,1.8541717529296875
1739983190620304100,0.53430419921875,-0.5740966796875,0.62200927734375,2.0924835205078125
1739983190630286300,0.544286376953125,-0.5497283935546875,0.587005615234375,2.183685302734375
1739983190640268000,0.55426806640625,-0.51904296875,0.521270751953125,2.17303466796875
1739983190650251300,0.564251220703125,-0.481353759765625,0.469085693359375,2.11383056640625
1739983190660233000,0.57423291015625,-0.4536590576171875,0.44635009765625,2.0548248291015625
1739983190670215200,0.584215087890625,-0.4597320556640625,0.4297332763671875,2.03387451171875
1739983190680197000,0.594197021484375,-0.500244140625,0.394683837890625,2.04461669921875
1739983190690179000,0.604178955078125,-0.5546417236328125,0.3691864013671875,2.139495849609375
1739983190700162000,0.614162109375,-0.5996551513671875,0.353790283203125,2.292694091796875
1739983190710144000,0.62414404296875,-0.6416473388671875,0.2999725341796875,2.3790740966796875
1739983190720126200,0.634126220703125,-0.6576690673828125,0.21484375,2.382904052734375
1739983190730108000,0.64410791015625,-0.632568359375,0.111297607421875,2.274749755859375
1739983190740090000,0.654090087890625,-0.5821380615234375,0.0251007080078125,2.13623046875
1739983190750072300,0.664072265625,-0.53118896484375,-0.0623626708984375,1.9312591552734375
1739983190760055000,0.674054931640625,-0.4760894775390625,-0.1721954345703125,1.6726531982421875
1739983190770037200,0.684037353515625,-0.414276123046875,-0.2830047607421875,1.467376708984375
1739983190780019000,0.69401904296875,-0.3570709228515625,-0.3478240966796875,1.37188720703125
1739983190790001200,0.704001220703125,-0.2837371826171875,-0.3434295654296875,1.393157958984375
1739983190799983000,0.713983154296875,-0.2378387451171875,-0.3016815185546875,1.442535400390625
1739983190809966000,0.723966064453125,-0.2274169921875,-0.2836761474609375,1.4924163818359375
1739983190819948300,0.7339482421875,-0.20050048828125,-0.2763824462890625,1.47064208984375
1739983190829930000,0.743929931640625,-0.176300048828125,-0.2608489990234375,1.3733673095703125
1739983190839912200,0.753912109375,-0.154296875,-0.219390869140625,1.2891998291015625
1739983190849894100,0.76389404296875,-0.1332244873046875,-0.1605224609375,1.244964599609375
1739983190859876000,0.7738759765625,-0.11968994140625,-0.113311767578125,1.206085205078125
1739983190869859300,0.783859375,-0.101531982421875,-0.0811614990234375,1.156707763671875
1739983190879841000,0.793841064453125,-0.078277587890625,-0.0621795654296875,1.1225128173828125
1739983190889823200,0.8038232421875,-0.039764404296875,-0.045013427734375,1.100341796875
1739983190899805200,0.81380517578125,-0.050262451171875,-0.05181884765625,1.1026458740234375
1739983190909787100,0.823787109375,-0.0938873291015625,-0.0778350830078125,1.072540283203125
1739983190919770400,0.833770263671875,-0.0550994873046875,-0.0687103271484375,1.048370361328125
1739983190929752000,0.843751953125,-0.050445556640625,-0.0310516357421875,1.0189361572265625
1739983190939734300,0.853734375,-0.0825042724609375,0.0078277587890625,0.9838409423828125
1739983190949716000,0.863716064453125,-0.1173553466796875,0.0423583984375,0.9789276123046875
1739983190959698200,0.8736982421875,-0.1569366455078125,0.0724945068359375,0.9512939453125
1739983190969680100,0.88368017578125,-0.1878662109375,0.103515625,0.924957275390625
1739983190979663000,0.8936630859375,-0.2064361572265625,0.132965087890625,0.901947021484375
1739983190989645300,0.903645263671875,-0.23248291015625,0.1486053466796875,0.9615631103515625
1739983190999627000,0.913626953125,-0.2297821044921875,0.1761932373046875,1.0471038818359375
1739983191009609200,0.923609130859375,-0.1977386474609375,0.2030181884765625,1.067901611328125
1739983191019591200,0.933591064453125,-0.1634063720703125,0.2198486328125,1.0637969970703125
1739983191029574100,0.94357421875,-0.1226959228515625,0.249114990234375,1.0790863037109375
1739983191039556000,0.95355615234375,-0.0721893310546875,0.2992401123046875,1.106048583984375
1739983191049538000,0.9635380859375,-0.01885986328125,0.345489501953125,1.1131591796875
1739983191059520300,0.973520263671875,0.0272674560546875,0.38818359375,1.131134033203125
1739983191069502200,0.983502197265625,0.04931640625,0.4199981689453125,1.1341400146484375
1739983191079484200,0.993484130859375,0.0586700439453125,0.417999267578125,1.1205902099609375
1739983191089467100,1.003467041015625,0.0643310546875,0.398284912109375,1.1428680419921875
1739983191099449000,1.013448974609375,0.0739288330078125,0.395751953125,1.1886444091796875
1739983191109431000,1.02343115234375,0.1014862060546875,0.4124908447265625,1.2413177490234375
1739983191119413200,1.033413330078125,0.1120758056640625,0.4231109619140625,1.2642974853515625
1739983191129395000,1.04339501953125,0.1162567138671875,0.4371337890625,1.303192138671875
1739983191139378200,1.053378173828125,0.1308135986328125,0.4505462646484375,1.314208984375
1739983191149360000,1.063360107421875,0.1475372314453125,0.46954345703125,1.3112030029296875
1739983191159342000,1.073342041015625,0.1363983154296875,0.5,1.311737060546875
1739983191169324000,1.083323974609375,0.0988311767578125,0.52825927734375,1.3068695068359375
1739983191179306000,1.093305908203125,0.0440826416015625,0.541778564453125,1.307830810546875
1739983191189289200,1.103289306640625,-0.0048370361328125,0.5557708740234375,1.322998046875
1739983191199271200,1.113271240234375,-0.0431671142578125,0.5995941162109375,1.3587493896484375
1739983191209253000,1.123253173828125,-0.0779571533203125,0.6473541259765625,1.4049835205078125
1739983191219235000,1.133235107421875,-0.0930938720703125,0.6729583740234375,1.4076385498046875
1739983191229217000,1.143217041015625,-0.084564208984375,0.7407073974609375,1.3917083740234375
1739983191239199200,1.15319921875,-0.05804443359375,0.8010711669921875,1.3490447998046875
1739983191249182200,1.16318212890625,-0.045654296875,0.8110198974609375,1.260955810546875
1739983191259164200,1.1731640625,-0.06884765625,0.7455291748046875,1.1100921630859375
1739983191269146000,1.18314599609375,-0.1064910888671875,0.6645355224609375,0.9619903564453125
1739983191279128000,1.193128173828125,-0.130340576171875,0.60711669921875,0.871124267578125
1739983191289110300,1.2031103515625,-0.1434173583984375,0.5714569091796875,0.8046417236328125
1739983191299093000,1.213093017578125,-0.154998779296875,0.527618408203125,0.7458648681640625
1739983191309075200,1.2230751953125,-0.16668701171875,0.468505859375,0.7266693115234375
1739983191319057200,1.23305712890625,-0.1520233154296875,0.418853759765625,0.750762939453125
1739983191329039000,1.2430390625,-0.10888671875,0.3927001953125,0.819854736328125
1739983191339021300,1.253021240234375,-0.069732666015625,0.384490966796875,0.893585205078125
1739983191349003000,1.2630029296875,-0.0437469482421875,0.3736572265625,0.9473114013671875
1739983191358986200,1.272986328125,-0.0283966064453125,0.3662872314453125,0.98822021484375
1739983191368968000,1.282968017578125,-0.0191497802734375,0.3466796875,1.025146484375
1739983191378950100,1.2929501953125,0.0036773681640625,0.3202056884765625,1.0225067138671875
1739983191388932400,1.302932373046875,0.0353240966796875,0.299407958984375,0.989410400390625
1739983191398914000,1.3129140625,0.0600128173828125,0.2871551513671875,0.9369659423828125
1739983191408897300,1.322897216796875,0.0775146484375,0.2701568603515625,0.8623504638671875
1739983191418879000,1.33287890625,0.0894317626953125,0.249786376953125,0.78021240234375
1739983191428861200,1.342861083984375,0.0897216796875,0.2236328125,0.7043914794921875
1739983191438843100,1.352843017578125,0.09259033203125,0.191162109375,0.6501617431640625
1739983191448825000,1.3628251953125,0.0865325927734375,0.1622314453125,0.6015167236328125
1739983191458808000,1.37280810546875,0.07989501953125,0.1370697021484375,0.561767578125
1739983191468790000,1.3827900390625,0.0754852294921875,0.1219329833984375,0.537933349609375
1739983191478772200,1.392772216796875,0.0758056640625,0.1181640625,0.5416107177734375
1739983191488754000,1.40275390625,0.0808258056640625,0.10809326171875,0.535430908203125
1739983191498735600,1.412735595703125,0.0766143798828125,0.0996551513671875,0.5211029052734375
1739983191508718800,1.42271875,0.0615692138671875,0.09918212890625,0.4971771240234375
1739983191518700500,1.432700439453125,0.052520751953125,0.1019134521484375,0.480621337890625
1739983191528682800,1.442682861328125,0.0538482666015625,0.0997161865234375,0.4775848388671875
1739983191538664700,1.452664794921875,0.068023681640625,0.0989227294921875,0.50054931640625
1739983191548646700,1.462646728515625,0.0936431884765625,0.1042633056640625,0.5279541015625
1739983191558628600,1.472628662109375,0.12884521484375,0.097381591796875,0.5047760009765625
1739983191568611600,1.482611572265625,0.1520538330078125,0.084747314453125,0.4637908935546875
1739983191578593800,1.49259375,0.167205810546875,0.0940399169921875,0.4465484619140625
1739983191588575500,1.502575439453125,0.1690673828125,0.133087158203125,0.4723968505859375
1739983191598557700,1.5125576171875,0.1487579345703125,0.170928955078125,0.524505615234375
1739983191608539600,1.52253955078125,0.11602783203125,0.1903076171875,0.5776214599609375
1739983191618522600,1.532522705078125,0.0851593017578125,0.1912689208984375,0.632110595703125
1739983191628504600,1.542504638671875,0.0504913330078125,0.193817138671875,0.6979522705078125
1739983191638486500,1.552486572265625,0.03656005859375,0.21160888671875,0.7761993408203125
1739983191648468700,1.56246875,0.044464111328125,0.2433013916015625,0.8982391357421875
1739983191658450700,1.57245068359375,0.0572509765625,0.29254150390625,1.0587921142578125
1739983191668433700,1.58243359375,0.07525634765625,0.3209228515625,1.2190704345703125
1739983191678415600,1.59241552734375,0.1096038818359375,0.296478271484375,1.4093170166015625
1739983191688397600,1.6023974609375,0.1123809814453125,0.36041259765625,1.495086669921875
1739983191698379500,1.612379638671875,0.0897216796875,0.3675079345703125,1.604217529296875
1739983191708361700,1.62236181640625,0.0172882080078125,0.37127685546875,1.7038726806640625
1739983191718344700,1.6323447265625,-0.0234222412109375,0.3820953369140625,1.738494873046875
1739983191728326700,1.64232666015625,-0.0708465576171875,0.3687286376953125,1.6900482177734375
1739983191738308600,1.65230859375,-0.126800537109375,0.3386993408203125,1.683135986328125
1739983191748290600,1.66229052734375,-0.19976806640625,0.32281494140625,1.7148895263671875
1739983191758272800,1.672272705078125,-0.2938079833984375,0.335479736328125,1.79266357421875
1739983191768255700,1.682255859375,-0.425872802734375,0.3381805419921875,1.8711090087890625
1739983191778237700,1.69223779296875,-0.5695343017578125,0.33587646484375,1.9742431640625
1739983191788219600,1.7022197265625,-0.7225799560546875,0.30548095703125,2.087188720703125
1739983191798201600,1.71220166015625,-0.8787689208984375,0.1998748779296875,2.1067657470703125
1739983191808183600,1.72218359375,-1.0205535888671875,0.0920257568359375,2.0347747802734375
1739983191818166800,1.732166748046875,-1.1327972412109375,-0.0096588134765625,1.9267120361328125
1739983191828148500,1.7421484375,-1.1445465087890625,-0.119232177734375,1.849578857421875
1739983191838130700,1.752130615234375,-1.049652099609375,-0.1906280517578125,1.7585601806640625
1739983191848112600,1.762112548828125,-0.8885345458984375,-0.1589813232421875,1.6776275634765625
1739983191858094600,1.772094482421875,-0.688934326171875,-0.0389556884765625,1.6511077880859375
1739983191868076500,1.78207666015625,-0.5051116943359375,0.0858917236328125,1.6334991455078125
1739983191878059500,1.7920595703125,-0.3654327392578125,0.174072265625,1.5792083740234375
1739983191888041700,1.802041748046875,-0.278045654296875,0.2191925048828125,1.521514892578125
1739983191898023700,1.812023681640625,-0.2436676025390625,0.2230224609375,1.5118255615234375
1739983191908005600,1.822005615234375,-0.207061767578125,0.2287445068359375,1.5062713623046875
1739983191917987600,1.831987548828125,-0.1555023193359375,0.25799560546875,1.4229888916015625
1739983191927970600,1.841970458984375,-0.1311492919921875,0.260589599609375,1.250152587890625
1739983191937952500,1.851952392578125,-0.1240081787109375,0.2075042724609375,1.032562255859375
1739983191947934700,1.861934814453125,-0.1314849853515625,0.1320648193359375,0.8436431884765625
1739983191957916700,1.871916748046875,-0.1646270751953125,0.06195068359375,0.7297515869140625
1739983191967898600,1.881898681640625,-0.2158660888671875,-0.0116424560546875,0.6433258056640625
1739983191977881600,1.891881591796875,-0.30682373046875,-0.095123291015625,0.6356201171875
1739983191987863600,1.901863525390625,-0.4207000732421875,-0.203033447265625,0.6279449462890625
1739983191997845800,1.911845703125,-0.5263671875,-0.3028106689453125,0.659881591796875
1739983192007827500,1.921827392578125,-0.617401123046875,-0.3753662109375,0.72247314453125
1739983192017809700,1.9318095703125,-0.6748199462890625,-0.4217376708984375,0.7933807373046875
1739983192027792600,1.941792724609375,-0.709014892578125,-0.440948486328125,0.856903076171875
1739983192037774600,1.951774658203125,-0.7202911376953125,-0.4271697998046875,0.8499908447265625
1739983192047756500,1.961756591796875,-0.6801910400390625,-0.3883056640625,0.82049560546875
1739983192057738500,1.971738525390625,-0.5972442626953125,-0.3072662353515625,0.8135986328125
1739983192067720700,1.981720703125,-0.507843017578125,-0.1845245361328125,0.8887939453125
1739983192077703700,1.99170361328125,-0.4228363037109375,-0.064056396484375,0.995361328125
1739983192087685600,2.001685546875,-0.3264923095703125,0.0378570556640625,1.0486907958984375
1739983192097667600,2.01166748046875,-0.2405242919921875,0.14300537109375,1.084136962890625
1739983192107649500,2.0216494140625,-0.1790313720703125,0.2602386474609375,1.12420654296875
1739983192117631700,2.0316318359375,-0.1436920166015625,0.375579833984375,1.1856536865234375
1739983192127614700,2.04161474609375,-0.13232421875,0.49053955078125,1.275146484375
1739983192137596700,2.0515966796875,-0.12371826171875,0.6201171875,1.3975677490234375
1739983192147578600,2.06157861328125,-0.1058197021484375,0.775238037109375,1.5499114990234375
1739983192157560600,2.071560546875,-0.0856170654296875,0.9255218505859375,1.6461181640625
1739983192167542800,2.081542724609375,-0.0561676025390625,1.032379150390625,1.68328857421875
1739983192177525500,2.091525390625,-0.0229949951171875,1.08917236328125,1.651763916015625
1739983192187507700,2.1015078125,0.0089569091796875,1.1114349365234375,1.5287017822265625
1739983192197489700,2.11148974609375,0.039093017578125,1.0927886962890625,1.3250885009765625
1739983192207471600,2.1214716796875,0.035858154296875,1.0217132568359375,1.0601043701171875
1739983192217453800,2.131453857421875,-0.00445556640625,0.9111480712890625,0.79486083984375
1739983192227436500,2.1414365234375,-0.0535430908203125,0.764678955078125,0.599700927734375
1739983192237418800,2.151418701171875,-0.11541748046875,0.65924072265625,0.5511932373046875
1739983192247400400,2.161400390625,-0.17816162109375,0.6199188232421875,0.6300048828125
1739983192257382700,2.171382568359375,-0.184234619140625,0.591522216796875,0.7602691650390625
1739983192267365600,2.18136572265625,-0.1339263916015625,0.5441436767578125,0.8994293212890625
1739983192277347600,2.19134765625,-0.0428466796875,0.5214385986328125,1.0120849609375
1739983192287329800,2.201329833984375,0.072967529296875,0.553253173828125,1.106719970703125
1739983192297311500,2.2113115234375,0.185333251953125,0.608306884765625,1.1548919677734375
1739983192307293700,2.221293701171875,0.2664337158203125,0.6316070556640625,1.1308746337890625
1739983192317276700,2.231276611328125,0.3231201171875,0.61334228515625,1.04754638671875
1739983192327258600,2.241258544921875,0.3527374267578125,0.5821990966796875,0.9352569580078125
1739983192337240600,2.251240478515625,0.3657684326171875,0.5491485595703125,0.823760986328125
1739983192347222500,2.261222412109375,0.361663818359375,0.528289794921875,0.7581024169921875
1739983192357204700,2.271204833984375,0.3336181640625,0.495941162109375,0.7338409423828125
1739983192367187700,2.281187744140625,0.2809906005859375,0.4458465576171875,0.732574462890625
1739983192377169700,2.291169677734375,0.2237701416015625,0.408355712890625,0.7599639892578125
1739983192387151600,2.301151611328125,0.1697235107421875,0.3805084228515625,0.8051300048828125
1739983192397133600,2.311133544921875,0.143035888671875,0.36614990234375,0.8688201904296875
1739983192407115800,2.32111572265625,0.13861083984375,0.3694000244140625,0.938995361328125
1739983192417098500,2.331098388671875,0.1514434814453125,0.388275146484375,0.9905548095703125
1739983192427080700,2.341080810546875,0.152801513671875,0.405517578125,1.0179443359375
1739983192437062700,2.351062744140625,0.135040283203125,0.410430908203125,1.028900146484375
1739983192447044600,2.361044677734375,0.11627197265625,0.4162139892578125,1.064453125
1739983192457026800,2.37102685546875,0.086517333984375,0.4360809326171875,1.0953521728515625
1739983192467009500,2.381009521484375,0.0512237548828125,0.45684814453125,1.0962982177734375
1739983192476991700,2.39099169921875,-0.0013427734375,0.4631195068359375,1.0992279052734375
1739983192486973400,2.400973388671875,-0.0536346435546875,0.4542236328125,1.0944366455078125
1739983192496955600,2.41095556640625,-0.0876007080078125,0.4337615966796875,1.055511474609375
1739983192506938400,2.4209384765625,-0.1007843017578125,0.41192626953125,1.0249176025390625
1739983192516921600,2.430921630859375,-0.090240478515625,0.3939056396484375,1.02618408203125
1739983192526903300,2.4409033203125,-0.0634765625,0.358154296875,1.0274200439453125
1739983192536885500,2.450885498046875,-0.0086669921875,0.3084716796875,1.0063629150390625
1739983192546867700,2.46086767578125,0.0464935302734375,0.2903594970703125,0.974517822265625
1739983192556849400,2.470849365234375,0.0720367431640625,0.2972869873046875,0.969268798828125
1739983192566832600,2.48083251953125,0.0649566650390625,0.30810546875,0.9864349365234375
1739983192576814300,2.490814453125,0.040283203125,0.3096771240234375,1.0155029296875
1739983192586796500,2.500796630859375,0.0045166015625,0.3123016357421875,1.09130859375
1739983192596778500,2.510778564453125,-0.02496337890625,0.3094635009765625,1.153961181640625
1739983192606760400,2.520760498046875,-0.0466156005859375,0.28717041015625,1.2349090576171875
1739983192616743700,2.53074365234375,-0.0486907958984375,0.2548675537109375,1.327056884765625
1739983192626724600,2.540724609375,-0.0458221435546875,0.250640869140625,1.3670806884765625
1739983192636706600,2.55070654296875,-0.0574798583984375,0.2674560546875,1.3685455322265625
1739983192646689500,2.560689453125,-0.0885772705078125,0.2859649658203125,1.3335723876953125
1739983192656671500,2.57067138671875,-0.1371307373046875,0.303131103515625,1.31610107421875
1739983192666653400,2.5806533203125,-0.20849609375,0.298492431640625,1.34002685546875
1739983192676635400,2.590635498046875,-0.278656005859375,0.257781982421875,1.386932373046875
1739983192686618600,2.60061865234375,-0.323486328125,0.229522705078125,1.45404052734375
1739983192696600300,2.610600341796875,-0.3406524658203125,0.23516845703125,1.49981689453125
1739983192706582500,2.62058251953125,-0.3656158447265625,0.237548828125,1.53643798828125
1739983192716564500,2.630564453125,-0.4011077880859375,0.2030792236328125,1.5652923583984375
1739983192726546400,2.64054638671875,-0.4300384521484375,0.1292266845703125,1.589508056640625
1739983192736529700,2.65052978515625,-0.4238739013671875,0.068084716796875,1.610015869140625
1739983192746511400,2.660511474609375,-0.4089508056640625,0.0387115478515625,1.662506103515625
1739983192756493600,2.67049365234375,-0.408050537109375,0.008056640625,1.6903533935546875
1739983192766475500,2.6804755859375,-0.414794921875,-0.0535888671875,1.7110443115234375
1739983192776457500,2.69045751953125,-0.4013824462890625,-0.0848541259765625,1.748779296875
1739983192786440700,2.700440673828125,-0.360687255859375,-0.0654449462890625,1.78204345703125
1739983192796422400,2.71042236328125,-0.318603515625,-0.0385894775390625,1.8406524658203125
1739983192806404600,2.720404541015625,-0.2763824462890625,-0.0362701416015625,1.9097900390625
1739983192816386600,2.730386474609375,-0.219879150390625,-0.03790283203125,1.925323486328125
1739983192826368500,2.740368408203125,-0.173095703125,-0.0438385009765625,1.8877716064453125
1739983192836351500,2.7503515625,-0.1518096923828125,-0.0670166015625,1.834503173828125
1739983192846333400,2.76033349609375,-0.1173858642578125,-0.104949951171875,1.7925872802734375
1739983192856315600,2.770315673828125,-0.1737823486328125,-0.14306640625,1.672027587890625
1739983192866297600,2.780297607421875,-0.2051544189453125,-0.1663818359375,1.6126708984375
1739983192876280600,2.790280517578125,-0.21661376953125,-0.1342926025390625,1.5997314453125
1739983192886262500,2.800262451171875,-0.256439208984375,-0.037994384765625,1.6142425537109375
1739983192896244500,2.810244384765625,-0.2714080810546875,0.0711212158203125,1.6953125
1739983192906226400,2.820226318359375,-0.2566680908203125,0.183349609375,1.753936767578125
1739983192916208400,2.83020849609375,-0.1700592041015625,0.294921875,1.8100738525390625
1739983192926191600,2.840191650390625,-0.1060028076171875,0.416961669921875,1.8195953369140625
1739983192936173300,2.85017333984375,-0.0693817138671875,0.5446014404296875,1.8284759521484375
1739983192946155500,2.860155517578125,-0.0435791015625,0.6492767333984375,1.8446197509765625
1739983192956137500,2.870137451171875,-0.049835205078125,0.7410430908203125,1.83001708984375
1739983192966119400,2.880119384765625,-0.072021484375,0.80364990234375,1.8066864013671875
1739983192976102700,2.8901025390625,-0.1039886474609375,0.8191680908203125,1.74273681640625
1739983192986084400,2.90008447265625,-0.1400604248046875,0.788482666015625,1.6273651123046875
1739983192996066600,2.910066650390625,-0.1686248779296875,0.7179107666015625,1.48895263671875
1739983193006048500,2.920048583984375,-0.17108154296875,0.652099609375,1.3896484375
1739983193016031500,2.930031494140625,-0.1461639404296875,0.6136474609375,1.343597412109375
1739983193026013700,2.940013671875,-0.1038360595703125,0.5848388671875,1.32623291015625
1739983193035995400,2.949995361328125,-0.061126708984375,0.5584259033203125,1.3017730712890625
1739983193045977600,2.9599775390625,-0.0272979736328125,0.5384063720703125,1.2752227783203125
1739983193055959600,2.96995947265625,-0.013214111328125,0.532806396484375,1.2745208740234375
1739983193065942500,2.979942626953125,-0.0244903564453125,0.5323486328125,1.2602691650390625
1739983193075924500,2.989924560546875,-0.0445709228515625,0.5324554443359375,1.2439727783203125
1739983193085906400,2.999906494140625,-0.0710601806640625,0.54327392578125,1.226165771484375
1739983193095888600,3.009888671875,-0.1002960205078125,0.5505828857421875,1.2024688720703125
1739983193105871400,3.019871337890625,-0.120208740234375,0.5578765869140625,1.18402099609375
1739983193115853600,3.029853515625,-0.127044677734375,0.5658416748046875,1.1786041259765625
1739983193125835500,3.03983544921875,-0.1247100830078125,0.591796875,1.18218994140625
1739983193135817500,3.0498173828125,-0.1033477783203125,0.628509521484375,1.19488525390625
1739983193145799400,3.05979931640625,-0.0798797607421875,0.661376953125,1.1972808837890625
1739983193155782400,3.069782470703125,-0.0621185302734375,0.6818084716796875,1.190338134765625
1739983193165764600,3.0797646484375,-0.0420074462890625,0.6893768310546875,1.1672515869140625
1739983193175746600,3.08974658203125,-0.0120391845703125,0.67724609375,1.1185760498046875
1739983193185728500,3.099728515625,0.02618408203125,0.660308837890625,1.0724029541015625
1739983193195711500,3.10971142578125,0.0573883056640625,0.6539306640625,1.0330047607421875
1739983193205693400,3.119693359375,0.078826904296875,0.6512298583984375,0.981414794921875
1739983193215675600,3.129675537109375,0.0906524658203125,0.6461029052734375,0.926513671875
1739983193225657300,3.1396572265625,0.0890350341796875,0.64410400390625,0.8763885498046875
1739983193235639600,3.1496396484375,0.06890869140625,0.6428375244140625,0.8165283203125
1739983193245622300,3.159622314453125,0.0416412353515625,0.6422119140625,0.7515869140625
1739983193255604500,3.1696044921875,0.0192413330078125,0.6547393798828125,0.678741455078125
1739983193265586700,3.179586669921875,0.0115966796875,0.6617279052734375,0.62896728515625
1739983193275568400,3.189568359375,0.01568603515625,0.6831207275390625,0.6185150146484375
1739983193285550600,3.199550537109375,0.033477783203125,0.7266998291015625,0.60723876953125
1739983193295533300,3.209533203125,0.0667724609375,0.7631378173828125,0.5982666015625
1739983193305515500,3.219515625,0.1053924560546875,0.8036346435546875,0.59368896484375
1739983193315497500,3.22949755859375,0.1276397705078125,0.822906494140625,0.5730438232421875
1739983193325479400,3.2394794921875,0.14398193359375,0.7935028076171875,0.5321197509765625
1739983193335462700,3.249462646484375,0.1284027099609375,0.7312164306640625,0.47528076171875
1739983193345444400,3.2594443359375,0.1049041748046875,0.660614013671875,0.429107666015625
1739983193355426600,3.269426513671875,0.072723388671875,0.6270294189453125,0.4527740478515625
1739983193365408500,3.279408447265625,0.01885986328125,0.5897674560546875,0.544403076171875
1739983193375390500,3.289390380859375,-0.02276611328125,0.5264434814453125,0.6252899169921875
1739983193385373700,3.299373779296875,-0.03607177734375,0.4765167236328125,0.6406707763671875
1739983193395355400,3.30935546875,-0.0157318115234375,0.4618682861328125,0.705047607421875
1739983193405337600,3.319337646484375,-0.0085906982421875,0.49609375,0.7664794921875
1739983193415319600,3.329319580078125,0.02093505859375,0.5401611328125,0.802276611328125
1739983193425302500,3.339302490234375,0.084686279296875,0.5855255126953125,0.8300018310546875
1739983193435284700,3.34928466796875,0.0995330810546875,0.660614013671875,0.9356689453125
1739983193445266400,3.359266357421875,0.07928466796875,0.7003936767578125,1.0502777099609375
1739983193455248600,3.36924853515625,0.0608367919921875,0.7029266357421875,1.1501617431640625
1739983193465230600,3.379230712890625,0.0399017333984375,0.70001220703125,1.2656402587890625
1739983193475213600,3.389213623046875,0.0329132080078125,0.70233154296875,1.3627471923828125
1739983193485195500,3.399195556640625,0.01751708984375,0.704345703125,1.39739990234375
1739983193495177500,3.409177490234375,-0.0028533935546875,0.703643798828125,1.4062347412109375
1739983193505159200,3.4191591796875,0.008880615234375,0.68798828125,1.4090118408203125
1739983193515142100,3.42914208984375,0.041656494140625,0.6604461669921875,1.405242919921875
1739983193525124000,3.4391240234375,0.0372161865234375,0.6524658203125,1.421539306640625
1739983193535106300,3.449106201171875,0.0191802978515625,0.6554718017578125,1.446136474609375
1739983193545088000,3.459087890625,0.0023040771484375,0.66363525390625,1.49188232421875
1739983193555070200,3.4690703125,-0.0205841064453125,0.651031494140625,1.5252838134765625
1739983193565053200,3.47905322265625,-0.0362701416015625,0.602294921875,1.552032470703125
1739983193575035100,3.48903515625,-0.0413818359375,0.550750732421875,1.59173583984375
1739983193585017000,3.49901708984375,-0.02825927734375,0.4855804443359375,1.602081298828125
1739983193594999000,3.5089990234375,-0.0090789794921875,0.41217041015625,1.577880859375
1739983193604982000,3.51898193359375,0.0134735107421875,0.3374786376953125,1.5393829345703125
1739983193614964000,3.5289638671875,0.0360260009765625,0.2949371337890625,1.5167083740234375
1739983193624946200,3.5389462890625,0.052703857421875,0.2887115478515625,1.518035888671875
1739983193634928000,3.54892822265625,0.050445556640625,0.2746734619140625,1.5272674560546875
1739983193644910000,3.55891015625,0.040313720703125,0.236328125,1.5203399658203125
1739983193654893000,3.56889306640625,0.0290374755859375,0.202789306640625,1.512237548828125
1739983193664875000,3.578875,0.01287841796875,0.19537353515625,1.5222930908203125
1739983193674857200,3.588857177734375,-0.007415771484375,0.2047576904296875,1.5576324462890625
1739983193684839000,3.5988388671875,-0.0318603515625,0.218048095703125,1.595001220703125
1739983193694822100,3.608822265625,-0.05621337890625,0.2067108154296875,1.6004486083984375
1739983193704804000,3.61880419921875,-0.0724945068359375,0.1795806884765625,1.578338623046875
1739983193714786000,3.6287861328125,-0.0618133544921875,0.1514434814453125,1.56658935546875
1739983193724768300,3.638768310546875,-0.01287841796875,0.15802001953125,1.5663909912109375
1739983193734750000,3.64875,0.02813720703125,0.1755218505859375,1.56207275390625
1739983193744733200,3.658733154296875,0.0363311767578125,0.17291259765625,1.538848876953125
1739983193754715100,3.668715087890625,0.013427734375,0.16925048828125,1.514404296875
1739983193764697000,3.678697021484375,-0.03070068359375,0.1581878662109375,1.51348876953125
1739983193774679300,3.68867919921875,-0.0841827392578125,0.1291656494140625,1.5524749755859375
1739983193784661000,3.698660888671875,-0.1304931640625,0.07891845703125,1.627349853515625
1739983193794644200,3.708644287109375,-0.1543731689453125,0.0308685302734375,1.7295379638671875
1739983193804626200,3.718626220703125,-0.1742401123046875,-0.0259246826171875,1.8189544677734375
1739983193814608100,3.728608154296875,-0.1822357177734375,-0.072479248046875,1.8298187255859375
1739983193824590000,3.738590087890625,-0.1926116943359375,-0.095794677734375,1.8191986083984375
1739983193834573000,3.748572998046875,-0.2094879150390625,-0.1134185791015625,1.80096435546875
1739983193844555300,3.75855517578125,-0.23724365234375,-0.14447021484375,1.7671966552734375
1739983193854537000,3.768536865234375,-0.283172607421875,-0.2117767333984375,1.72222900390625
1739983193864519200,3.778519287109375,-0.3296966552734375,-0.2918243408203125,1.659637451171875
1739983193874501000,3.788501220703125,-0.3723297119140625,-0.3568572998046875,1.5943756103515625
1739983193884484000,3.798484130859375,-0.386749267578125,-0.3797454833984375,1.5796966552734375
1739983193894466000,3.808466064453125,-0.3726654052734375,-0.3481292724609375,1.6356964111328125
1739983193904448000,3.818447998046875,-0.3262481689453125,-0.265838623046875,1.7392578125
1739983193914430200,3.82843017578125,-0.267974853515625,-0.1460418701171875,1.796478271484375
1739983193924413200,3.8384130859375,-0.2172698974609375,-0.011566162109375,1.8190765380859375
1739983193934395100,3.84839501953125,-0.1667938232421875,0.112762451171875,1.7978057861328125
1739983193944377000,3.858377197265625,-0.13397216796875,0.2284088134765625,1.764678955078125
1739983193954360000,3.868360107421875,-0.13665771484375,0.358551025390625,1.737518310546875
1739983193964342000,3.878342041015625,-0.1294097900390625,0.488800048828125,1.7319488525390625
1739983193974324200,3.88832421875,-0.123382568359375,0.5974273681640625,1.7386474609375
1739983193984307000,3.898306884765625,-0.13525390625,0.68731689453125,1.72052001953125
1739983193994289200,3.9082890625,-0.1593780517578125,0.7363128662109375,1.6680755615234375
1739983194004271000,3.91827099609375,-0.1873779296875,0.7398681640625,1.6241455078125
1739983194014253000,3.928253173828125,-0.20391845703125,0.719940185546875,1.5819854736328125
1739983194024235000,3.938235107421875,-0.1964874267578125,0.69708251953125,1.5460052490234375
1739983194034218000,3.948218017578125,-0.169677734375,0.66436767578125,1.5072784423828125
1739983194044200200,3.9582001953125,-0.12347412109375,0.6310882568359375,1.476531982421875
1739983194054182100,3.96818212890625,-0.0616302490234375,0.6217803955078125,1.448638916015625
1739983194064164000,3.9781640625,-0.0069122314453125,0.617645263671875,1.404144287109375
1739983194074147300,3.988147216796875,0.0227508544921875,0.6037445068359375,1.3430938720703125
1739983194084129000,3.99812890625,0.036468505859375,0.590576171875,1.2743988037109375
1739983194094111200,4.008111328125,0.0313568115234375,0.58477783203125,1.2196807861328125
1739983194104093200,4.01809326171875,0.011749267578125,0.5795745849609375,1.1901397705078125
1739983194114076200,4.028076171875,-0.009857177734375,0.57379150390625,1.178070068359375
1739983194124058000,4.03805810546875,-0.01708984375,0.5712432861328125,1.1772003173828125
1739983194134040000,4.0480400390625,-0.013031005859375,0.5754547119140625,1.1763153076171875
1739983194144022300,4.058022216796875,-0.0058441162109375,0.5846099853515625,1.1735382080078125
1739983194154004200,4.068004150390625,0.000335693359375,0.593536376953125,1.1714935302734375
1739983194163987200,4.0779873046875,0.00933837890625,0.607818603515625,1.1738128662109375
1739983194173969200,4.08796923828125,0.01409912109375,0.6256866455078125,1.1649322509765625
1739983194183951000,4.097951171875,0.018524169921875,0.637969970703125,1.1591949462890625
1739983194193933000,4.10793310546875,0.0297088623046875,0.665252685546875,1.18560791015625
1739983194203916000,4.117916015625,0.0285797119140625,0.6850128173828125,1.18865966796875
1739983194213898200,4.127898193359375,0.0334014892578125,0.6748504638671875,1.1614532470703125
1739983194223880000,4.1378798828125,0.04608154296875,0.6640472412109375,1.1351470947265625
1739983194233862100,4.147862060546875,0.0646209716796875,0.672119140625,1.129119873046875
1739983194243844000,4.157843994140625,0.0762176513671875,0.7010345458984375,1.1466064453125
1739983194253827000,4.1678271484375,0.046295166015625,0.7027587890625,1.1339569091796875
1739983194263809300,4.177809326171875,-0.0034942626953125,0.663421630859375,1.0952301025390625
1739983194273791000,4.187791015625,-0.043792724609375,0.6368408203125,1.071868896484375
1739983194283773200,4.197773193359375,-0.05706787109375,0.6234130859375,1.0625152587890625
1739983194293756000,4.207755859375,-0.0534210205078125,0.6340484619140625,1.066497802734375
1739983194303738000,4.217738037109375,-0.0606231689453125,0.662994384765625,1.0894775390625
1739983194313720300,4.22772021484375,-0.0751190185546875,0.6811370849609375,1.0794219970703125
1739983194323702000,4.237701904296875,-0.080108642578125,0.697967529296875,1.0445404052734375
1739983194333684200,4.247684326171875,-0.0740509033203125,0.7295074462890625,1.0097198486328125
1739983194343666200,4.257666259765625,-0.077880859375,0.7595367431640625,0.963470458984375
1739983194353649200,4.267649169921875,-0.081817626953125,0.760833740234375,0.87860107421875
1739983194363631000,4.277631103515625,-0.0821075439453125,0.7445068359375,0.7728118896484375
1739983194373613000,4.287613037109375,-0.0775299072265625,0.716033935546875,0.660247802734375
1739983194383595300,4.29759521484375,-0.06915283203125,0.6582183837890625,0.55816650390625
1739983194393577200,4.3075771484375,-0.0565948486328125,0.598663330078125,0.4879150390625
1739983194403560200,4.317560302734375,-0.0327911376953125,0.5565032958984375,0.460693359375
1739983194413542100,4.327542236328125,0.0042266845703125,0.5279083251953125,0.4825592041015625
1739983194423524000,4.337524169921875,0.0558624267578125,0.5176239013671875,0.56689453125
1739983194433506000,4.347506103515625,0.110260009765625,0.53265380859375,0.671661376953125
1739983194443489000,4.357489013671875,0.1534576416015625,0.553955078125,0.752105712890625
1739983194453471200,4.36747119140625,0.1785125732421875,0.5661773681640625,0.8013153076171875
1739983194463453000,4.377452880859375,0.1968231201171875,0.58203125,0.8376617431640625
1739983194473435100,4.38743505859375,0.2117767333984375,0.6110382080078125,0.87005615234375
1739983194483417000,4.3974169921875,0.2192230224609375,0.6285247802734375,0.904266357421875
1739983194493400000,4.407400146484375,0.221282958984375,0.6292266845703125,0.941558837890625
1739983194503382000,4.417382080078125,0.2227020263671875,0.62786865234375,0.9815826416015625
1739983194513363700,4.42736376953125,0.2190704345703125,0.6303863525390625,1.03265380859375
1739983194523346000,4.437345947265625,0.2180633544921875,0.638092041015625,1.0756072998046875
1739983194533329000,4.447328857421875,0.2159423828125,0.65093994140625,1.09393310546875
1739983194543310800,4.457310791015625,0.1869659423828125,0.6775054931640625,1.0970001220703125
1739983194553293000,4.46729296875,0.1345977783203125,0.7144775390625,1.105072021484375
1739983194563274800,4.477274658203125,0.0743408203125,0.7437896728515625,1.1434326171875
1739983194573258000,4.487258056640625,0.0180206298828125,0.7556610107421875,1.2180633544921875
1739983194583239700,4.49723974609375,-0.026580810546875,0.7489776611328125,1.2856903076171875
1739983194593222000,4.507221923828125,-0.059478759765625,0.719024658203125,1.3352813720703125
1739983194603203800,4.517203857421875,-0.0835418701171875,0.683685302734375,1.3855133056640625
1739983194613186800,4.527186767578125,-0.0734405517578125,0.6456451416015625,1.466461181640625
1739983194623169000,4.5371689453125,-0.023345947265625,0.6003570556640625,1.5262298583984375
1739983194633150700,4.547150634765625,0.018707275390625,0.5474090576171875,1.55657958984375
1739983194643133000,4.5571328125,0.0490875244140625,0.4915008544921875,1.5762786865234375
1739983194653115000,4.567114990234375,0.079437255859375,0.4431304931640625,1.57916259765625
1739983194663097900,4.577097900390625,0.110504150390625,0.4045562744140625,1.5774993896484375
1739983194673080000,4.587080078125,0.144439697265625,0.378326416015625,1.571502685546875
1739983194683061800,4.597061767578125,0.1722564697265625,0.35870361328125,1.5471038818359375
1739983194693044000,4.6070439453125,0.191162109375,0.3443450927734375,1.5334014892578125
1739983194703026700,4.617026611328125,0.1870880126953125,0.34234619140625,1.5369720458984375
1739983194713009000,4.6270087890625,0.1867828369140625,0.3195953369140625,1.5514984130859375
1739983194722991000,4.6369912109375,0.1977691650390625,0.2950592041015625,1.56085205078125
1739983194732972800,4.646972900390625,0.2193756103515625,0.282745361328125,1.5841217041015625
1739983194742955000,4.656955078125,0.2498016357421875,0.2681884765625,1.6150054931640625
1739983194752937700,4.666937744140625,0.2764739990234375,0.25250244140625,1.6342926025390625
1739983194762920000,4.676919921875,0.2894287109375,0.272674560546875,1.6759796142578125
1739983194772902000,4.68690185546875,0.2755279541015625,0.3253173828125,1.730987548828125
1739983194782883800,4.6968837890625,0.237579345703125,0.361724853515625,1.7633514404296875
1739983194792867000,4.7068671875,0.2056732177734375,0.3663330078125,1.7740631103515625
1739983194802848800,4.716848876953125,0.1970367431640625,0.33819580078125,1.7694244384765625
1739983194812831000,4.7268310546875,0.1923828125,0.2860565185546875,1.7404327392578125
1739983194822812700,4.736812744140625,0.1750335693359375,0.2164459228515625,1.7048492431640625
1739983194832796000,4.7467958984375,0.1551513671875,0.155609130859375,1.6692047119140625
1739983194842777900,4.75677783203125,0.1486358642578125,0.1274261474609375,1.6779022216796875
1739983194852759800,4.766759765625,0.149200439453125,0.135406494140625,1.7275238037109375
1739983194862742000,4.776741943359375,0.1453399658203125,0.1544189453125,1.7700958251953125
1739983194872724700,4.786724853515625,0.12945556640625,0.1431732177734375,1.769744873046875
1739983194882707000,4.79670703125,0.1346588134765625,0.134918212890625,1.723541259765625
1739983194892689000,4.80668896484375,0.0791015625,0.1042327880859375,1.63720703125
1739983194902670800,4.8166708984375,0.04156494140625,0.056854248046875,1.5199127197265625
1739983194912653800,4.82665380859375,0.037841796875,0.02569580078125,1.4469451904296875
1739983194922635800,4.8366357421875,0.023895263671875,0.0000152587890625,1.412750244140625
1739983194932618000,4.846617919921875,0.0358123779296875,0.0076904296875,1.457550048828125
1739983194942599700,4.856599609375,0.092254638671875,0.049896240234375,1.5229644775390625
1739983194952582000,4.866581787109375,0.15228271484375,0.1133270263671875,1.5648956298828125
1739983194962564900,4.87656494140625,0.1865081787109375,0.19775390625,1.58306884765625
1739983194972546800,4.886546875,0.195892333984375,0.3101348876953125,1.604034423828125
1739983194982529000,4.896529052734375,0.18212890625,0.42181396484375,1.6178131103515625
1739983194992510700,4.9065107421875,0.1624298095703125,0.5252685546875,1.627349853515625
1739983195002494000,4.916493896484375,0.1354217529296875,0.6208648681640625,1.623199462890625
1739983195012476000,4.926475830078125,0.0995025634765625,0.6981353759765625,1.6058502197265625
1739983195022457900,4.936457763671875,0.0544281005859375,0.7568206787109375,1.578857421875
1739983195032440000,4.946440185546875,0.0113677978515625,0.7729949951171875,1.535003662109375
1739983195042422800,4.9564228515625,0.0042877197265625,0.7534637451171875,1.479217529296875
1739983195052405000,4.966405029296875,0.01666259765625,0.7320098876953125,1.4266357421875
1739983195062387000,4.976386962890625,0.0311431884765625,0.7213897705078125,1.4038238525390625
1739983195072369000,4.986368896484375,0.04913330078125,0.6988983154296875,1.3804168701171875
1739983195082351900,4.996351806640625,0.075164794921875,0.671173095703125,1.3591156005859375
1739983195092333800,5.006333740234375,0.0953826904296875,0.6685333251953125,1.3527374267578125
1739983195102315800,5.016315673828125,0.088531494140625,0.67041015625,1.345367431640625
1739983195112297700,5.026297607421875,0.05224609375,0.6628570556640625,1.3283843994140625
1739983195122281000,5.036281005859375,0.012969970703125,0.65911865234375,1.3126068115234375
1739983195132263000,5.046262939453125,0.016937255859375,0.6595611572265625,1.2894134521484375
1739983195142244900,5.056244873046875,0.031768798828125,0.6776275634765625,1.2682952880859375
1739983195152226800,5.066226806640625,0.0345306396484375,0.6905059814453125,1.2462310791015625
1739983195162208800,5.076208740234375,0.039337158203125,0.692626953125,1.2159271240234375
1739983195172191700,5.086191650390625,0.0536956787109375,0.7136077880859375,1.1963958740234375
1739983195182174000,5.096174072265625,0.06640625,0.741973876953125,1.1782989501953125
1739983195192156000,5.106156005859375,0.0667572021484375,0.756988525390625,1.1526641845703125
1739983195202137900,5.116137939453125,0.05291748046875,0.77691650390625,1.127685546875
1739983195212120800,5.126120849609375,0.0369110107421875,0.8053436279296875,1.1162872314453125
1739983195222102800,5.136102783203125,0.0111846923828125,0.8367767333984375,1.096282958984375
1739983195232085000,5.1460849609375,-0.0154266357421875,0.8399658203125,1.0505828857421875
1739983195242067000,5.15606689453125,-0.0334625244140625,0.8312225341796875,0.9992218017578125
1739983195252050000,5.1660498046875,-0.045318603515625,0.8169708251953125,0.93902587890625
1739983195262032000,5.176031982421875,-0.043212890625,0.7953338623046875,0.880950927734375
1739983195272013800,5.186013916015625,-0.0339813232421875,0.773162841796875,0.83038330078125
1739983195281995800,5.195995849609375,-0.021728515625,0.7562103271484375,0.79681396484375
1739983195291978800,5.205978759765625,-0.0035552978515625,0.7447357177734375,0.7725982666015625
1739983195301961000,5.2159609375,0.00732421875,0.7328338623046875,0.7416839599609375
1739983195311943000,5.22594287109375,0.0176239013671875,0.71270751953125,0.7186126708984375
1739983195321924900,5.2359248046875,0.024322509765625,0.689056396484375,0.707000732421875
1739983195331908000,5.245908203125,0.0330657958984375,0.6724395751953125,0.704193115234375
1739983195341889800,5.255889892578125,0.044952392578125,0.653839111328125,0.714324951171875
1739983195351872000,5.2658720703125,0.0575408935546875,0.649566650390625,0.739227294921875
1739983195361854000,5.27585400390625,0.0730438232421875,0.678192138671875,0.7686309814453125
1739983195371837000,5.2858369140625,0.0885467529296875,0.7227935791015625,0.7965240478515625
1739983195381819000,5.29581884765625,0.10736083984375,0.746246337890625,0.78704833984375
1739983195391800800,5.30580078125,0.107513427734375,0.754150390625,0.7283172607421875
1739983195401783000,5.315782958984375,0.097381591796875,0.7384796142578125,0.669830322265625
1739983195411765800,5.325765869140625,0.0888824462890625,0.6996612548828125,0.614013671875
1739983195421748000,5.335748046875,0.079193115234375,0.653564453125,0.5577850341796875
1739983195431730000,5.34572998046875,0.077423095703125,0.5991058349609375,0.524627685546875
1739983195441711900,5.3557119140625,0.0811309814453125,0.5477294921875,0.5272979736328125
1739983195451694800,5.36569482421875,0.081085205078125,0.5056304931640625,0.57635498046875
1739983195461676800,5.3756767578125,0.086029052734375,0.4716949462890625,0.662353515625
1739983195471659000,5.385658935546875,0.09991455078125,0.4724273681640625,0.7507781982421875
1739983195481640700,5.395640625,0.112152099609375,0.5008544921875,0.8452301025390625
1739983195491624000,5.4056240234375,0.132171630859375,0.53094482421875,0.9397125244140625
1739983195501606000,5.41560595703125,0.1618499755859375,0.562286376953125,1.0145111083984375
1739983195511587800,5.425587890625,0.1922454833984375,0.60357666015625,1.07177734375
1739983195521570000,5.435570068359375,0.2135467529296875,0.635986328125,1.130767822265625
1739983195531552800,5.445552734375,0.2157440185546875,0.6352691650390625,1.1645050048828125
1739983195541535000,5.455534912109375,0.2066650390625,0.6142578125,1.17877197265625
1739983195551516700,5.4655166015625,0.193206787109375,0.5895538330078125,1.2012939453125
1739983195561499000,5.475498779296875,0.190826416015625,0.55767822265625,1.2320709228515625
1739983195571481900,5.48548193359375,0.1916046142578125,0.52337646484375,1.242034912109375
1739983195581463800,5.4954638671875,0.184600830078125,0.494537353515625,1.24444580078125
1739983195591446000,5.505446044921875,0.1767730712890625,0.4736175537109375,1.2440643310546875
1739983195601427700,5.515427734375,0.1571197509765625,0.4590301513671875,1.24334716796875
1739983195611411000,5.525410888671875,0.14361572265625,0.45184326171875,1.2518157958984375
1739983195621393000,5.535392822265625,0.144256591796875,0.450103759765625,1.28411865234375
1739983195631374800,5.545374755859375,0.036102294921875,0.4281158447265625,1.225830078125
1739983195641357000,5.555357177734375,0.05621337890625,0.3877105712890625,1.2611236572265625
1739983195651338800,5.5653388671875,0.048248291015625,0.376953125,1.2789764404296875
1739983195661322000,5.575322021484375,0.04290771484375,0.3752899169921875,1.3280029296875
1739983195671304000,5.585303955078125,0.0570831298828125,0.347320556640625,1.374176025390625
1739983195681286000,5.595285888671875,0.0663909912109375,0.3135986328125,1.406402587890625
1739983195691267800,5.605267822265625,0.0855255126953125,0.2754974365234375,1.4465484619140625
1739983195701250800,5.615250732421875,0.119964599609375,0.24517822265625,1.4466094970703125
1739983195711233000,5.62523291015625,0.1573333740234375,0.228607177734375,1.403228759765625
1739983195721214700,5.635214599609375,0.1829681396484375,0.2179107666015625,1.3328094482421875
1739983195731198000,5.645197998046875,0.2076263427734375,0.2172698974609375,1.25885009765625
1739983195741180000,5.655179931640625,0.2200775146484375,0.21636962890625,1.2089080810546875
1739983195751161900,5.665161865234375,0.2159423828125,0.20257568359375,1.2050628662109375
1739983195761143800,5.675143798828125,0.1975860595703125,0.190093994140625,1.2674713134765625
1739983195771127000,5.685126953125,0.18084716796875,0.16680908203125,1.360565185546875
1739983195781108700,5.695108642578125,0.1855316162109375,0.13897705078125,1.454071044921875
1739983195791091000,5.705091064453125,0.2139434814453125,0.1177520751953125,1.5100250244140625
1739983195801073000,5.715072998046875,0.2440948486328125,0.10791015625,1.48638916015625
1739983195811055900,5.725055908203125,0.2455902099609375,0.126068115234375,1.44195556640625
1739983195821037800,5.735037841796875,0.2168121337890625,0.15777587890625,1.4322509765625
1739983195831019800,5.745019775390625,0.1707763671875,0.16534423828125,1.4573516845703125
1739983195841002000,5.755001953125,0.125335693359375,0.132598876953125,1.4815216064453125
1739983195850984700,5.764984619140625,0.0865020751953125,0.0706634521484375,1.53173828125
1739983195860967000,5.774966796875,0.0784149169921875,0.0040283203125,1.6169586181640625
1739983195870948900,5.784948974609375,0.096588134765625,-0.0223236083984375,1.7411956787109375
1739983195880930800,5.794930908203125,0.1111297607421875,-0.00390625,1.8593597412109375
1739983195890914000,5.8049140625,0.114471435546875,0.0213623046875,1.93408203125
1739983195900895700,5.814895751953125,0.1067657470703125,0.0126495361328125,1.9403228759765625
1739983195910878000,5.8248779296875,0.0791473388671875,-0.048248291015625,1.891510009765625
1739983195920860000,5.83485986328125,0.0480194091796875,-0.1421661376953125,1.8032379150390625
1739983195930843000,5.8448427734375,0.0081634521484375,-0.2337799072265625,1.676727294921875
1739983195940825000,5.8548251953125,-0.0202789306640625,-0.31158447265625,1.5637054443359375
1739983195950806800,5.864806884765625,-0.0386962890625,-0.3539276123046875,1.5201416015625
1739983195960789000,5.8747890625,-0.0298919677734375,-0.322235107421875,1.5605010986328125
1739983195970771700,5.884771728515625,0.012725830078125,-0.21575927734375,1.655487060546875
1739983195980754000,5.89475390625,0.0569915771484375,-0.07867431640625,1.7291717529296875
1739983195990736000,5.90473583984375,0.0820770263671875,0.0555419921875,1.7696075439453125
1739983196000717800,5.9147177734375,0.098876953125,0.1748199462890625,1.7685089111328125
1739983196010701000,5.924701171875,0.1115570068359375,0.2910919189453125,1.7504730224609375
1739983196020682800,5.934682861328125,0.1260986328125,0.404998779296875,1.7206268310546875
1739983196030665000,5.9446650390625,0.1466217041015625,0.498992919921875,1.6683807373046875
1739983196040647000,5.95464697265625,0.152923583984375,0.566162109375,1.61151123046875
1739983196050630000,5.9646298828125,0.1475830078125,0.6073150634765625,1.561676025390625
1739983196060611800,5.97461181640625,0.1326446533203125,0.623382568359375,1.494293212890625
1739983196070593800,5.98459375,0.105499267578125,0.6191253662109375,1.422760009765625
1739983196080576000,5.994575927734375,0.0741729736328125,0.6028289794921875,1.3755035400390625
1739983196090558700,6.004558837890625,0.0490264892578125,0.582489013671875,1.3485260009765625
1739983196100541000,6.014541015625,0.033843994140625,0.5630340576171875,1.338226318359375
1739983196110523000,6.02452294921875,0.02923583984375,0.5406646728515625,1.333221435546875
1739983196120504800,6.0345048828125,0.051025390625,0.523681640625,1.316192626953125
1739983196130487800,6.04448779296875,0.088897705078125,0.50872802734375,1.2813873291015625
1739983196140469800,6.0544697265625,0.12115478515625,0.5053558349609375,1.2369537353515625
1739983196150452000,6.064451904296875,0.1547088623046875,0.5016326904296875,1.196990966796875
1739983196160435000,6.07443505859375,0.184600830078125,0.4939727783203125,1.1521453857421875
1739983196170417000,6.0844169921875,0.2059326171875,0.4935455322265625,1.1137847900390625
1739983196180398800,6.09439892578125,0.2050933837890625,0.50054931640625,1.095733642578125
1739983196190380800,6.104380859375,0.190399169921875,0.5063934326171875,1.08624267578125
1739983196200363800,6.11436376953125,0.1757049560546875,0.5155487060546875,1.0765228271484375
1739983196210346000,6.124345947265625,0.1581573486328125,0.5269012451171875,1.0642547607421875
1739983196220328000,6.134327880859375,0.1336669921875,0.548614501953125,1.051849365234375
1739983196230310000,6.144309814453125,0.108734130859375,0.5713958740234375,1.0311431884765625
1739983196240292900,6.15429296875,0.0872955322265625,0.5836944580078125,0.997344970703125
1739983196250274800,6.16427490234375,0.069488525390625,0.59393310546875,0.9550628662109375
1739983196260256800,6.1742568359375,0.054901123046875,0.5995025634765625,0.9139556884765625
1739983196270239000,6.184239013671875,0.04736328125,0.6085662841796875,0.8841552734375
1739983196280222000,6.194221923828125,0.050750732421875,0.6227569580078125,0.8553466796875
1739983196290204000,6.204203857421875,0.057373046875,0.625457763671875,0.820068359375
1739983196300185900,6.214185791015625,0.0679931640625,0.62554931640625,0.78985595703125
1739983196310167800,6.224167724609375,0.0764923095703125,0.6269683837890625,0.7623443603515625
1739983196320150800,6.23415087890625,0.07403564453125,0.6175689697265625,0.7374420166015625
1739983196330133000,6.244133056640625,0.068084716796875,0.5945892333984375,0.720703125
1739983196340115000,6.254114990234375,0.0596923828125,0.5789031982421875,0.7198486328125
1739983196350097000,6.264096923828125,0.0416259765625,0.56500244140625,0.7241973876953125
1739983196360080000,6.274079833984375,0.0222015380859375,0.53759765625,0.7191314697265625
1739983196370061800,6.284061767578125,0.013885498046875,0.5307769775390625,0.7423095703125
1739983196380044000,6.2940439453125,0.028533935546875,0.5636444091796875,0.805816650390625
1739983196390026800,6.30402685546875,0.057708740234375,0.612945556640625,0.874053955078125
1739983196400009000,6.314009033203125,0.091033935546875,0.65130615234375,0.9143829345703125
1739983196409991000,6.323990966796875,0.1151123046875,0.6632843017578125,0.9176788330078125
1739983196419972900,6.333972900390625,0.1216278076171875,0.6404571533203125,0.8795166015625
1739983196429955800,6.343955810546875,0.1232757568359375,0.6058197021484375,0.82135009765625
1739983196439937800,6.353937744140625,0.12347412109375,0.5774383544921875,0.76776123046875
1739983196449920000,6.363919921875,0.113189697265625,0.547760009765625,0.7417144775390625
1739983196459901700,6.373901611328125,0.098297119140625,0.514495849609375,0.7592010498046875
1739983196469885000,6.383885009765625,0.09075927734375,0.474945068359375,0.803863525390625
1739983196479867000,6.393866943359375,0.0974273681640625,0.4272308349609375,0.8502044677734375
1739983196489848800,6.403848876953125,0.1058807373046875,0.404388427734375,0.8990325927734375
1739983196499831000,6.4138310546875,0.1247711181640625,0.41497802734375,0.957427978515625
1739983196509814800,6.423814697265625,0.151763916015625,0.4391326904296875,1.0043792724609375
1739983196519796700,6.433796630859375,0.1857147216796875,0.46295166015625,1.05487060546875
1739983196529778700,6.44377880859375,0.2104949951171875,0.4807586669921875,1.125244140625
1739983196539761700,6.45376171875,0.2260894775390625,0.4858551025390625,1.2294158935546875
1739983196549743600,6.46374365234375,0.246429443359375,0.4529876708984375,1.352264404296875
1739983196559725600,6.4737255859375,0.262481689453125,0.3689117431640625,1.417938232421875
1739983196569707500,6.48370751953125,0.270538330078125,0.287841796875,1.3792266845703125
1739983196579690800,6.493690673828125,0.262786865234375,0.248046875,1.292724609375
1739983196589672400,6.50367236328125,0.234619140625,0.2292327880859375,1.192596435546875
1739983196599654700,6.513654541015625,0.213470458984375,0.21099853515625,1.10699462890625
1739983196609636600,6.52363671875,0.1996002197265625,0.188385009765625,1.0621185302734375
1739983196619619600,6.53361962890625,0.1775054931640625,0.1656036376953125,1.0549468994140625
1739983196629601800,6.543601806640625,0.1563873291015625,0.15869140625,1.070587158203125
1739983196639583500,6.55358349609375,0.13604736328125,0.15380859375,1.076690673828125
1739983196649565700,6.563565673828125,0.0926971435546875,0.145416259765625,1.076629638671875
1739983196659548400,6.57354833984375,0.0531463623046875,0.140594482421875,1.07122802734375
1739983196669530600,6.583530517578125,0.025054931640625,0.1418914794921875,1.052490234375
1739983196679512800,6.593512939453125,-0.0114898681640625,0.1471405029296875,1.029296875
1739983196689495600,6.60349560546875,-0.0393524169921875,0.1446533203125,1.0098419189453125
1739983196699477800,6.613477783203125,-0.05194091796875,0.1379547119140625,1.0024871826171875
1739983196709459500,6.62345947265625,-0.0557098388671875,0.1409454345703125,1.006683349609375
1739983196719441700,6.633441650390625,-0.0557708740234375,0.1454925537109375,1.0142364501953125
1739983196729424600,6.643424560546875,-0.0384063720703125,0.153961181640625,1.025543212890625
1739983196739406600,6.653406494140625,-0.0215911865234375,0.1524200439453125,1.0880126953125
1739983196749388800,6.663388916015625,-0.020172119140625,0.13238525390625,1.16339111328125
1739983196759370500,6.67337060546875,-0.0143585205078125,0.1221466064453125,1.2062225341796875
1739983196769353700,6.683353759765625,-0.0100860595703125,0.12640380859375,1.229766845703125
1739983196779335700,6.693335693359375,0.0052337646484375,0.1285858154296875,1.207427978515625
1739983196789317600,6.703317626953125,0.025390625,0.1248321533203125,1.1839752197265625
1739983196799299800,6.7132998046875,0.0404510498046875,0.1232452392578125,1.187774658203125
1739983196809282600,6.723282470703125,0.0557708740234375,0.1157379150390625,1.2232208251953125
1739983196819264800,6.7332646484375,0.0573577880859375,0.1043853759765625,1.2729949951171875
1739983196829246500,6.74324658203125,0.03326416015625,0.0941162109375,1.32757568359375
1739983196839229700,6.753229736328125,0.008880615234375,0.0704345703125,1.38836669921875
1739983196849211600,6.763211669921875,0.0001220703125,0.050537109375,1.424957275390625
1739983196859193600,6.773193603515625,-0.00360107421875,0.034698486328125,1.4805145263671875
1739983196869175600,6.783175537109375,-0.0065155029296875,0.01416015625,1.56683349609375
1739983196879158800,6.79315869140625,-0.003204345703125,-0.0031890869140625,1.6607666015625
1739983196889140500,6.803140380859375,-0.020477294921875,-0.03143310546875,1.74261474609375
1739983196899122700,6.813122802734375,-0.0574798583984375,-0.0743560791015625,1.809417724609375
1739983196909104600,6.823104736328125,-0.086181640625,-0.1046142578125,1.8789825439453125
1739983196919087600,6.833087646484375,-0.117828369140625,-0.1241912841796875,1.9325408935546875
1739983196929069600,6.843069580078125,-0.1510467529296875,-0.1544647216796875,1.96795654296875
1739983196939051500,6.853051513671875,-0.1743011474609375,-0.1814422607421875,1.955718994140625
1739983196949033700,6.86303369140625,-0.195587158203125,-0.19921875,1.91064453125
1739983196959016400,6.873016357421875,-0.2151031494140625,-0.2142486572265625,1.8363037109375
1739983196968998700,6.88299853515625,-0.228607177734375,-0.246795654296875,1.735443115234375
1739983196978980600,6.892980712890625,-0.23309326171875,-0.2903900146484375,1.6445770263671875
1739983196988963600,6.902963623046875,-0.2288055419921875,-0.3164215087890625,1.59576416015625
1739983196998945800,6.91294580078125,-0.20654296875,-0.288726806640625,1.5565032958984375
1739983197008927500,6.922927490234375,-0.162384033203125,-0.2221527099609375,1.5410003662109375
1739983197018909700,6.93290966796875,-0.124481201171875,-0.1334686279296875,1.53131103515625
1739983197028892400,6.942892333984375,-0.0960693359375,-0.0374298095703125,1.5345458984375
1739983197038874600,6.95287451171875,-0.0745849609375,0.062591552734375,1.5568389892578125
1739983197048856800,6.96285693359375,-0.0570220947265625,0.1600341796875,1.5757293701171875
1739983197058838500,6.972838623046875,-0.041015625,0.255401611328125,1.5861053466796875
1739983197068821800,6.98282177734375,-0.0294952392578125,0.338958740234375,1.5862579345703125
1739983197078803500,6.992803466796875,-0.021240234375,0.39898681640625,1.5612030029296875
1739983197088785700,7.00278564453125,-0.0209808349609375,0.4320831298828125,1.51324462890625
1739983197098768600,7.0127685546875,-0.0159759521484375,0.440643310546875,1.4504547119140625
1739983197108750600,7.02275048828125,-0.0062713623046875,0.43011474609375,1.3997802734375
1739983197118732800,7.03273291015625,0.0053863525390625,0.401519775390625,1.37237548828125
1739983197128714500,7.042714599609375,0.0236968994140625,0.371124267578125,1.34674072265625
1739983197138697700,7.05269775390625,0.0436553955078125,0.343963623046875,1.32598876953125
1739983197148679700,7.0626796875,0.0680084228515625,0.3249969482421875,1.29449462890625
1739983197158661600,7.07266162109375,0.0889129638671875,0.3168182373046875,1.2574005126953125
1739983197168643800,7.082643798828125,0.097808837890625,0.3126983642578125,1.232391357421875
1739983197178626600,7.09262646484375,0.1031951904296875,0.314300537109375,1.2156982421875
1739983197188608800,7.10260888671875,0.1059112548828125,0.320587158203125,1.2007598876953125
1739983197198590500,7.112590576171875,0.08966064453125,0.3264617919921875,1.1911773681640625
1739983197208573700,7.12257373046875,0.0547637939453125,0.3302764892578125,1.1842803955078125
1739983197218555600,7.1325556640625,0.03082275390625,0.3350677490234375,1.1786041259765625
1739983197228537600,7.14253759765625,0.013916015625,0.346588134765625,1.1563568115234375
1739983197238519600,7.15251953125,0.0011444091796875,0.3648834228515625,1.1405487060546875
1739983197248502800,7.162502685546875,-0.0067901611328125,0.3916778564453125,1.1248016357421875
1739983197258484500,7.172484375,-0.0100860595703125,0.413055419921875,1.100433349609375
1739983197268466700,7.182466796875,-0.01116943359375,0.4287872314453125,1.0878448486328125
1739983197278448600,7.19244873046875,-0.0017242431640625,0.4375762939453125,1.0756072998046875
1739983197288431600,7.202431640625,0.0222625732421875,0.4409942626953125,1.052978515625
1739983197298413600,7.21241357421875,0.050262451171875,0.4415130615234375,1.0141754150390625
1739983197308395500,7.2223955078125,0.0690460205078125,0.4412994384765625,0.980926513671875
1739983197318377700,7.232377685546875,0.0831146240234375,0.43841552734375,0.9481353759765625
1739983197328360400,7.2423603515625,0.1112213134765625,0.44366455078125,0.920806884765625
1739983197338342700,7.2523427734375,0.149932861328125,0.451507568359375,0.8942413330078125
1739983197348324600,7.26232470703125,0.188629150390625,0.45428466796875,0.861602783203125
1739983197358307600,7.2723076171875,0.2133331298828125,0.448822021484375,0.82330322265625
1739983197368289800,7.282289794921875,0.21588134765625,0.4422454833984375,0.7897186279296875
1739983197378271500,7.292271484375,0.2062835693359375,0.4432220458984375,0.7733001708984375
1739983197388253700,7.302253662109375,0.18328857421875,0.4542694091796875,0.764007568359375
1739983197398236400,7.312236328125,0.1471405029296875,0.4677276611328125,0.748992919921875
1739983197408218600,7.322218505859375,0.106964111328125,0.4725494384765625,0.7306976318359375
1739983197418200800,7.332200927734375,0.062347412109375,0.4750518798828125,0.7195892333984375
1739983197428183600,7.34218359375,0.0289306640625,0.490966796875,0.73565673828125
1739983197438165800,7.352165771484375,0.011566162109375,0.5193328857421875,0.7599029541015625
1739983197448147500,7.3621474609375,0.011474609375,0.53497314453125,0.764739990234375
1739983197458129700,7.372129638671875,0.022369384765625,0.545623779296875,0.7495880126953125
1739983197468112600,7.382112548828125,0.0335235595703125,0.55908203125,0.7314910888671875
1739983197478094600,7.392094482421875,0.0344390869140625,0.569549560546875,0.7238311767578125
1739983197488076800,7.402076904296875,0.0278472900390625,0.5707550048828125,0.7114105224609375
1739983197498058500,7.41205859375,0.005584716796875,0.5588531494140625,0.71832275390625
1739983197508040700,7.422040771484375,-0.0285491943359375,0.5283355712890625,0.7439727783203125
1739983197518022700,7.432022705078125,-0.0530853271484375,0.4810638427734375,0.7697296142578125
1739983197528004600,7.442004638671875,-0.06866455078125,0.432952880859375,0.7965240478515625
1739983197537987600,7.451987548828125,-0.084136962890625,0.3962554931640625,0.83843994140625
1739983197547969800,7.4619697265625,-0.0807037353515625,0.3887176513671875,0.9189605712890625
1739983197557951700,7.47195166015625,-0.0547637939453125,0.40264892578125,1.0054168701171875
1739983197567933700,7.48193359375,-0.0137481689453125,0.4253692626953125,1.089630126953125
1739983197577917000,7.4919169921875,0.037872314453125,0.44854736328125,1.1681976318359375
1739983197587898600,7.501898681640625,0.092681884765625,0.46612548828125,1.2447967529296875
1739983197597880800,7.511880859375,0.144195556640625,0.474700927734375,1.3018646240234375
1739983197607862800,7.52186279296875,0.1662445068359375,0.4747772216796875,1.3380889892578125
1739983197617845800,7.531845703125,0.157135009765625,0.463623046875,1.3558197021484375
1739983197627827700,7.54182763671875,0.12933349609375,0.4379730224609375,1.362945556640625
1739983197637809700,7.5518095703125,0.0945281982421875,0.399169921875,1.3628692626953125
1739983197647791900,7.5617919921875,0.071746826171875,0.357513427734375,1.3520355224609375
1739983197657774600,7.571774658203125,0.0692138671875,0.3182220458984375,1.33978271484375
1739983197667756800,7.5817568359375,0.081085205078125,0.2872161865234375,1.310882568359375
1739983197677738800,7.59173876953125,0.0877532958984375,0.2743682861328125,1.2645721435546875
1739983197687721700,7.6017216796875,0.08935546875,0.2696075439453125,1.22857666015625
1739983197697704000,7.611703857421875,0.0893707275390625,0.2617340087890625,1.2094573974609375
1739983197707685600,7.621685546875,0.0805511474609375,0.2457275390625,1.18939208984375
1739983197717667800,7.631667724609375,0.0727386474609375,0.2315826416015625,1.1886749267578125
1739983197727650600,7.641650634765625,0.07708740234375,0.2163543701171875,1.2006072998046875
1739983197737632800,7.6516328125,0.0853271484375,0.198944091796875,1.21795654296875
1739983197747615000,7.661614990234375,0.0970458984375,0.17779541015625,1.2448272705078125
1739983197757596700,7.6715966796875,0.1050872802734375,0.1493377685546875,1.2563323974609375
1739983197767580000,7.681579833984375,0.1154327392578125,0.12786865234375,1.26556396484375
1739983197777561600,7.6915615234375,0.1354217529296875,0.12042236328125,1.269622802734375
1739983197787543800,7.701543701171875,0.148406982421875,0.1184844970703125,1.2524566650390625
1739983197797526800,7.71152685546875,0.1515045166015625,0.1157989501953125,1.2379150390625
1739983197807508700,7.7215087890625,0.142852783203125,0.1083831787109375,1.224578857421875
1739983197817491000,7.731490966796875,0.12506103515625,0.104339599609375,1.20361328125
1739983197827472600,7.74147265625,0.101043701171875,0.10577392578125,1.2012176513671875
1739983197837456000,7.751455810546875,0.074615478515625,0.109771728515625,1.2233734130859375
1739983197847437800,7.761437744140625,0.047821044921875,0.113189697265625,1.259490966796875
1739983197857419800,7.771419677734375,0.023529052734375,0.1031951904296875,1.3054656982421875
1739983197867401700,7.781401611328125,0.0046844482421875,0.0818634033203125,1.3478240966796875
1739983197877384700,7.791384765625,0.0055389404296875,0.0622711181640625,1.3741912841796875
1739983197887366700,7.80136669921875,0.0240325927734375,0.0559844970703125,1.38629150390625
1739983197897348600,7.8113486328125,0.0387115478515625,0.0605926513671875,1.3986053466796875
1739983197907331600,7.82133154296875,0.0471038818359375,0.063201904296875,1.4180755615234375
1739983197917313800,7.831313720703125,0.0403594970703125,0.0673370361328125,1.4366912841796875
1739983197927295700,7.841295654296875,0.018646240234375,0.0667266845703125,1.4712371826171875
1739983197937277700,7.851277587890625,-0.0154876708984375,0.05169677734375,1.52099609375
1739983197947261000,7.861260986328125,-0.0249481201171875,0.023162841796875,1.5931243896484375
1739983197957242600,7.87124267578125,0.0292816162109375,-0.009124755859375,1.69366455078125
1739983197967225900,7.881225830078125,0.1187286376953125,-0.02496337890625,1.8082122802734375
1739983197977207600,7.89120751953125,0.2165985107421875,-0.0162200927734375,1.930389404296875
1739983197987189800,7.901189697265625,0.2924041748046875,0.0095062255859375,1.9928131103515625
1739983197997171700,7.911171630859375,0.3412322998046875,0.032806396484375,1.9561309814453125
1739983198007154700,7.92115478515625,0.3485107421875,0.01824951171875,1.833282470703125
1739983198017137000,7.931136962890625,0.3399505615234375,-0.037078857421875,1.6802215576171875
1739983198027118600,7.94111865234375,0.3316192626953125,-0.1087646484375,1.5256805419921875
1739983198037101800,7.951101806640625,0.314483642578125,-0.1598052978515625,1.4136810302734375
1739983198047083800,7.961083740234375,0.3194580078125,-0.1814727783203125,1.3320159912109375
1739983198057065700,7.971065673828125,0.2910919189453125,-0.158721923828125,1.3285675048828125
1739983198067048000,7.9810478515625,0.2816009521484375,-0.09063720703125,1.3660888671875
1739983198077030700,7.99103076171875,0.288787841796875,-0.0064239501953125,1.391510009765625
1739983198087012900,8.001012939453124,0.2941436767578125,0.081024169921875,1.39910888671875
1739983198096994600,8.01099462890625,0.2913818359375,0.16436767578125,1.4182586669921875
1739983198106976800,8.020976806640626,0.2813873291015625,0.2354888916015625,1.43365478515625
1739983198116959700,8.030959716796875,0.2654266357421875,0.2920074462890625,1.4339141845703125
1739983198126941700,8.040941650390625,0.24017333984375,0.333587646484375,1.424774169921875
1739983198136924000,8.050923828125,0.1988983154296875,0.361602783203125,1.4183349609375
1739983198146907000,8.060906982421875,0.1452484130859375,0.3799285888671875,1.4183349609375
1739983198156888800,8.070888916015624,0.0941009521484375,0.388214111328125,1.42144775390625
1739983198166870800,8.080870849609376,0.0507659912109375,0.383697509765625,1.4107666015625
1739983198176852700,8.090852783203125,0.0171966552734375,0.3693389892578125,1.3898162841796875
1739983198186835700,8.100835693359375,-0.00732421875,0.3489990234375,1.3749237060546875
1739983198196817700,8.110817626953125,-0.0078277587890625,0.334716796875,1.3882598876953125
1739983198206800000,8.1207998046875,0.032684326171875,0.32647705078125,1.4004058837890625
1739983198216781800,8.13078173828125,0.095458984375,0.32684326171875,1.37420654296875
1739983198226764800,8.140764892578124,0.151458740234375,0.332733154296875,1.32000732421875
1739983198236746800,8.150746826171876,0.1846771240234375,0.3387451171875,1.2560577392578125
1739983198246728700,8.160728759765625,0.1997222900390625,0.3446197509765625,1.1917266845703125
1739983198256710700,8.170710693359375,0.2050933837890625,0.3662109375,1.1409149169921875
1739983198266694000,8.18069384765625,0.199737548828125,0.392059326171875,1.1191253662109375
1739983198276675600,8.190675537109374,0.175994873046875,0.402923583984375,1.117919921875
1739983198286657800,8.20065771484375,0.1503753662109375,0.4072723388671875,1.1269683837890625
1739983198296640500,8.210640625,0.1299896240234375,0.4231719970703125,1.14349365234375
1739983198306622700,8.220622802734376,0.1178741455078125,0.448272705078125,1.155181884765625
1739983198316605000,8.23060498046875,0.118988037109375,0.472686767578125,1.1520843505859375
1739983198326586600,8.240586669921875,0.1130828857421875,0.498565673828125,1.14019775390625
1739983198336568800,8.25056884765625,0.10009765625,0.5171051025390625,1.114166259765625
1739983198346551600,8.260551513671874,0.0911712646484375,0.5304718017578125,1.078826904296875
1739983198356533800,8.27053369140625,0.08856201171875,0.54052734375,1.045166015625
1739983198366515700,8.280515625,0.0856475830078125,0.552947998046875,1.0174102783203125
1739983198376498700,8.290498779296875,0.0859832763671875,0.5595855712890625,0.99639892578125
1739983198386481000,8.30048095703125,0.0899505615234375,0.5619964599609375,0.9820709228515625
1739983198396462600,8.310462646484375,0.096221923828125,0.5608673095703125,0.9707489013671875
1739983198406444800,8.32044482421875,0.099822998046875,0.5649871826171875,0.973663330078125
1739983198416427800,8.330427734375,0.1034698486328125,0.5678558349609375,0.97113037109375
1739983198426409700,8.34040966796875,0.103973388671875,0.5694732666015625,0.9615936279296875
1739983198436392000,8.350391845703125,0.0935821533203125,0.5780487060546875,0.9548187255859375
1739983198446373600,8.36037353515625,0.067138671875,0.583892822265625,0.9449462890625
1739983198456356900,8.37035693359375,0.04180908203125,0.57672119140625,0.9437713623046875
1739983198466338600,8.380338623046875,0.0243682861328125,0.57708740234375,0.9605560302734375
1739983198476320800,8.39032080078125,0.0191802978515625,0.586090087890625,0.9791717529296875
1739983198486303700,8.4003037109375,0.0257415771484375,0.6052703857421875,1.0016326904296875
1739983198496285700,8.41028564453125,0.0426025390625,0.6287841796875,1.0045318603515625
1739983198506268400,8.420268310546875,0.0461273193359375,0.64373779296875,0.976165771484375
1739983198516250600,8.430250732421875,0.0348358154296875,0.6397247314453125,0.9286651611328125
1739983198526233300,8.4402333984375,0.0145416259765625,0.617523193359375,0.8662567138671875
1739983198536215600,8.450215576171875,-0.00201416015625,0.5783233642578125,0.787994384765625
1739983198546197800,8.46019775390625,-0.0061187744140625,0.53314208984375,0.7121124267578125
1739983198556179500,8.470179443359376,0.009063720703125,0.4900970458984375,0.6917724609375
1739983198566162700,8.48016259765625,0.0345458984375,0.449249267578125,0.7147064208984375
1739983198576144400,8.490144287109375,0.0579986572265625,0.4038543701171875,0.7680816650390625
1739983198586126600,8.500126708984375,0.087615966796875,0.3748626708984375,0.8403472900390625
1739983198596109600,8.510109619140625,0.12786865234375,0.3555145263671875,0.91668701171875
1739983198606091500,8.520091552734375,0.184356689453125,0.3475494384765625,0.98736572265625
1739983198616073700,8.53007373046875,0.2586212158203125,0.3594207763671875,1.04730224609375
1739983198626055400,8.540055419921876,0.32708740234375,0.3748779296875,1.086334228515625
1739983198636038700,8.55003857421875,0.3727569580078125,0.3771514892578125,1.0789337158203125
1739983198646020600,8.5600205078125,0.3959808349609375,0.3642425537109375,1.047607421875
1739983198656002600,8.57000244140625,0.4033050537109375,0.344482421875,1.025787353515625
1739983198665984500,8.579984619140625,0.392669677734375,0.3294830322265625,1.007049560546875
1739983198675967500,8.589967529296874,0.36187744140625,0.321868896484375,0.99267578125
1739983198685949400,8.599949462890624,0.325927734375,0.3105621337890625,0.9672698974609375
1739983198695931400,8.609931396484376,0.2999725341796875,0.3019256591796875,0.91925048828125
1739983198705914600,8.61991455078125,0.2630615234375,0.302825927734375,0.87860107421875
1739983198715896600,8.629896484375,0.22021484375,0.3197021484375,0.8625335693359375
1739983198725878500,8.63987841796875,0.17156982421875,0.3274078369140625,0.8452911376953125
1739983198735860500,8.649860595703124,0.1098175048828125,0.32342529296875,0.8157958984375
1739983198745843700,8.65984375,0.0556488037109375,0.331695556640625,0.8006591796875
1739983198755825400,8.669825439453126,0.015289306640625,0.345733642578125,0.801483154296875
1739983198765807600,8.6798076171875,-0.0067901611328125,0.355621337890625,0.827911376953125
1739983198775789600,8.68978955078125,-0.0052947998046875,0.36175537109375,0.8911285400390625
1739983198785772500,8.6997724609375,0.0080718994140625,0.35577392578125,0.9744110107421875
1739983198795754500,8.70975439453125,0.030853271484375,0.3356170654296875,1.0593719482421875
1739983198805736400,8.719736328125,0.06060791015625,0.3084716796875,1.1145172119140625
1739983198815719700,8.7297197265625,0.0870208740234375,0.2882537841796875,1.1642913818359375
1739983198825701400,8.739701416015626,0.1063690185546875,0.284698486328125,1.2034454345703125
1739983198835683600,8.74968359375,0.1211700439453125,0.2846832275390625,1.2329254150390625
1739983198845665500,8.75966552734375,0.127960205078125,0.2860107421875,1.2635955810546875
1739983198855648500,8.7696484375,0.1388702392578125,0.27813720703125,1.3111572265625
1739983198865630700,8.779630615234375,0.156463623046875,0.2582244873046875,1.3551788330078125
1739983198875612400,8.7896123046875,0.170928955078125,0.234283447265625,1.3791656494140625
1739983198885594600,8.7995947265625,0.1799468994140625,0.216644287109375,1.406951904296875
1739983198895577300,8.809577392578126,0.1757659912109375,0.207275390625,1.4595489501953125
1739983198905559600,8.8195595703125,0.17205810546875,0.19024658203125,1.5197906494140625
1739983198915541800,8.829541748046875,0.1681365966796875,0.1627044677734375,1.5878143310546875
1739983198925524500,8.8395244140625,0.1857147216796875,0.1320953369140625,1.6672515869140625
1739983198935506700,8.849506591796874,0.2216796875,0.097991943359375,1.7410736083984375
1739983198945488400,8.85948828125,0.274993896484375,0.056976318359375,1.793121337890625
1739983198955470600,8.869470703125,0.3321075439453125,0.00811767578125,1.83245849609375
1739983198965453600,8.87945361328125,0.3641815185546875,-0.053924560546875,1.834930419921875
1739983198975435500,8.889435546875,0.361846923828125,-0.12127685546875,1.7888946533203125
1739983198985417700,8.899417724609375,0.3460235595703125,-0.173858642578125,1.735687255859375
1739983198995400400,8.909400390625,0.323974609375,-0.2198333740234375,1.737060546875
1739983199005382700,8.919382568359374,0.3286285400390625,-0.25341796875,1.77203369140625
1739983199015364600,8.929364501953126,0.333984375,-0.2506103515625,1.831024169921875
1739983199025346600,8.9393466796875,0.3560638427734375,-0.2220458984375,1.8780364990234375
1739983199035329500,8.94932958984375,0.3480224609375,-0.1683502197265625,1.931610107421875
1739983199045311500,8.9593115234375,0.337615966796875,-0.1091461181640625,1.930084228515625
1739983199055293400,8.96929345703125,0.3221282958984375,-0.0659637451171875,1.8618621826171875
1739983199065275400,8.979275390625,0.278076171875,-0.0562591552734375,1.7489013671875
1739983199075258400,8.98925830078125,0.2212371826171875,-0.0854339599609375,1.6052703857421875
1739983199085240600,8.999240478515626,0.1781768798828125,-0.1194305419921875,1.4820404052734375
1739983199095222500,9.009222412109375,0.1495361328125,-0.13958740234375,1.410919189453125
1739983199105205500,9.01920556640625,0.1295013427734375,-0.1209716796875,1.3900909423828125
1739983199115187700,9.029187744140625,0.1230316162109375,-0.0618743896484375,1.413177490234375
1739983199125169400,9.03916943359375,0.1160430908203125,0.0217437744140625,1.4511871337890625
1739983199135151600,9.049151611328124,0.1139984130859375,0.1116943359375,1.4914093017578125
1739983199145134300,9.05913427734375,0.1143646240234375,0.197357177734375,1.525909423828125
1739983199155116500,9.069116455078126,0.1117095947265625,0.27264404296875,1.5453948974609375
1739983199165098500,9.079098388671875,0.115692138671875,0.3413543701171875,1.55322265625
1739983199175081500,9.08908154296875,0.128509521484375,0.4022979736328125,1.551666259765625
1739983199185063700,9.099063720703125,0.1409912109375,0.457366943359375,1.5378570556640625
1739983199195045400,9.10904541015625,0.148590087890625,0.497314453125,1.511962890625
1739983199205027600,9.119027587890624,0.150970458984375,0.5198974609375,1.467315673828125
1739983199215010600,9.129010498046876,0.1442108154296875,0.5137176513671875,1.391387939453125
1739983199224992500,9.138992431640625,0.136322021484375,0.486663818359375,1.3174285888671875
1739983199234974700,9.148974609375,0.13201904296875,0.461883544921875,1.256622314453125
1739983199244957400,9.15895751953125,0.130767822265625,0.4423065185546875,1.21002197265625
1739983199254939600,9.168939697265625,0.131011962890625,0.43463134765625,1.192535400390625
1739983199264921300,9.17892138671875,0.1257476806640625,0.44317626953125,1.1865234375
1739983199274903600,9.188903564453126,0.1153564453125,0.446746826171875,1.1839599609375
1739983199284886500,9.198886474609376,0.10589599609375,0.4294281005859375,1.1605987548828125
1739983199294868500,9.208868408203125,0.0931854248046875,0.4108123779296875,1.1290740966796875
1739983199304850700,9.2188505859375,0.0803375244140625,0.4056396484375,1.1140289306640625
1739983199314833700,9.228833740234375,0.0648956298828125,0.4124603271484375,1.10968017578125
1739983199324815600,9.238815673828125,0.055633544921875,0.426116943359375,1.1133880615234375
1739983199334797600,9.248797607421874,0.044647216796875,0.4448089599609375,1.114654541015625
1739983199344779500,9.258779541015626,0.02789306640625,0.4654998779296875,1.1087188720703125
1739983199354762500,9.268762451171876,0.0133514404296875,0.4846343994140625,1.0928192138671875
1739983199364744400,9.278744384765625,0.0106048583984375,0.5012359619140625,1.0771942138671875
1739983199374726700,9.2887265625,0.0292816162109375,0.522186279296875,1.05706787109375
1739983199384708600,9.29870849609375,0.0588836669921875,0.5376129150390625,1.0248565673828125
1739983199394691600,9.308691650390625,0.0815582275390625,0.5434722900390625,0.9832305908203125
1739983199404673500,9.318673583984374,0.0974273681640625,0.5396881103515625,0.9289703369140625
1739983199414655500,9.328655517578126,0.111114501953125,0.5274505615234375,0.8815155029296875
1739983199424638500,9.338638427734375,0.1207733154296875,0.513092041015625,0.846405029296875
1739983199434620700,9.34862060546875,0.1248016357421875,0.503875732421875,0.827117919921875
1739983199444602400,9.358602294921875,0.126495361328125,0.50042724609375,0.8233795166015625
1739983199454584600,9.36858447265625,0.1313323974609375,0.500213623046875,0.8285980224609375
1739983199464567600,9.378567626953124,0.1372833251953125,0.5006256103515625,0.8375091552734375
1739983199474549500,9.388549560546876,0.1460418701171875,0.5039215087890625,0.84735107421875
1739983199484531700,9.39853173828125,0.155548095703125,0.5148162841796875,0.855682373046875
1739983199494514400,9.408514404296875,0.1500091552734375,0.525360107421875,0.85784912109375
1739983199504496600,9.41849658203125,0.130462646484375,0.5268402099609375,0.83746337890625
1739983199514478300,9.428478271484375,0.1109466552734375,0.5249786376953125,0.8220672607421875
1739983199524461600,9.438461669921875,0.1019134521484375,0.5401611328125,0.8269500732421875
1739983199534443500,9.448443603515624,0.1059112548828125,0.56170654296875,0.8346710205078125
1739983199544425500,9.458425537109376,0.1235198974609375,0.578887939453125,0.8260345458984375
1739983199554407700,9.46840771484375,0.141815185546875,0.5943145751953125,0.8086700439453125
1739983199564390400,9.478390380859375,0.1532440185546875,0.6056976318359375,0.789947509765625
1739983199574372600,9.48837255859375,0.16180419921875,0.6110992431640625,0.7660064697265625
1739983199584354300,9.498354248046875,0.1515960693359375,0.6024322509765625,0.7275390625
1739983199594337500,9.508337646484375,0.121185302734375,0.56103515625,0.6786956787109375
1739983199604319500,9.518319580078124,0.086456298828125,0.5048370361328125,0.6580963134765625
1739983199614301400,9.528301513671876,0.069183349609375,0.448028564453125,0.673553466796875
1739983199624283600,9.53828369140625,0.062896728515625,0.3958740234375,0.702911376953125
1739983199634266600,9.5482666015625,0.0600128173828125,0.3591461181640625,0.739959716796875
1739983199644248600,9.55824853515625,0.069580078125,0.3462677001953125,0.8053436279296875
1739983199654230500,9.56823046875,0.109649658203125,0.363067626953125,0.892547607421875
1739983199664213500,9.578213623046874,0.1591949462890625,0.39788818359375,0.9732666015625
1739983199674195500,9.588195556640626,0.2137451171875,0.4231414794921875,1.0430908203125
1739983199684177400,9.598177490234375,0.25347900390625,0.4354400634765625,1.0940399169921875
1739983199694159600,9.60815966796875,0.2731475830078125,0.43975830078125,1.11370849609375
1739983199704142600,9.618142578125,0.281036376953125,0.43310546875,1.114990234375
1739983199714124500,9.62812451171875,0.2696533203125,0.4062042236328125,1.1051483154296875
1739983199724106500,9.6381064453125,0.24822998046875,0.360687255859375,1.0892486572265625
1739983199734089700,9.64808984375,0.240570068359375,0.321685791015625,1.0738067626953125
1739983199744071400,9.658071533203126,0.2381591796875,0.303314208984375,1.0726470947265625
1739983199754053600,9.6680537109375,0.2301025390625,0.2934112548828125,1.0669708251953125
1739983199764035600,9.67803564453125,0.2212677001953125,0.2872467041015625,1.0586090087890625
1739983199774018600,9.6880185546875,0.2080230712890625,0.29046630859375,1.0473175048828125
1739983199784000500,9.69800048828125,0.194488525390625,0.3094940185546875,1.0468597412109375
1739983199793982500,9.707982421875,0.1712188720703125,0.329803466796875,1.0586090087890625
1739983199803965700,9.717965576171874,0.1389007568359375,0.330902099609375,1.063018798828125
1739983199813947400,9.727947509765626,0.1179962158203125,0.317657470703125,1.06744384765625
1739983199823929600,9.7379296875,0.1173553466796875,0.311126708984375,1.0807952880859375
1739983199833911300,9.747911376953125,0.1370849609375,0.311187744140625,1.1101226806640625
1739983199843894500,9.75789453125,0.1632843017578125,0.306915283203125,1.14703369140625
1739983199853876500,9.76787646484375,0.1742401123046875,0.28802490234375,1.1726531982421875
1739983199863858400,9.7778583984375,0.1829376220703125,0.2662506103515625,1.1835479736328125
1739983199873841400,9.78784130859375,0.190277099609375,0.245849609375,1.196929931640625
1739983199883823400,9.7978232421875,0.1837310791015625,0.2350616455078125,1.207733154296875
1739983199893805600,9.8078056640625,0.170318603515625,0.2305450439453125,1.23468017578125
1739983199903788500,9.81778857421875,0.16754150390625,0.2294464111328125,1.257293701171875
1739983199913770500,9.8277705078125,0.1691436767578125,0.2183685302734375,1.25225830078125
1739983199923752400,9.83775244140625,0.1746368408203125,0.202911376953125,1.2420806884765625
1739983199933734400,9.847734375,0.1831207275390625,0.198211669921875,1.24322509765625
1739983199943717400,9.85771728515625,0.1867218017578125,0.19927978515625,1.2464447021484375
1739983199953699600,9.867699462890625,0.1887054443359375,0.1956787109375,1.2595367431640625
1739983199963681500,9.877681640625,0.2013092041015625,0.1881256103515625,1.307037353515625
1739983199973664500,9.88766455078125,0.23321533203125,0.1769561767578125,1.353729248046875
1739983199983646500,9.897646484375,0.2531280517578125,0.1585540771484375,1.405364990234375
1739983199993628400,9.90762841796875,0.2632904052734375,0.142669677734375,1.4587249755859375
1739983200003611600,9.917611572265624,0.2738189697265625,0.1378631591796875,1.5013275146484375
1739983200013593300,9.92759326171875,0.2835235595703125,0.1155548095703125,1.533660888671875
1739983200023575600,9.937575439453125,0.29364013671875,0.0720367431640625,1.553619384765625
1739983200033557500,9.9475576171875,0.290435791015625,0.0162811279296875,1.559906005859375
1739983200043540500,9.95754052734375,0.2770233154296875,-0.0211334228515625,1.576751708984375
1739983200053522700,9.967522705078125,0.273284912109375,-0.0143280029296875,1.6473388671875
1739983200063504400,9.97750439453125,0.2886199951171875,0.01702880859375,1.7644805908203125
1739983200073487600,9.987487548828126,0.2962493896484375,0.037322998046875,1.8679046630859375
1739983200083469300,9.99746923828125,0.283294677734375,0.03729248046875,1.9260101318359375
1739983200093451500,10.007451416015625,0.26806640625,0.0191650390625,1.937225341796875
1739983200103433700,10.017433837890625,0.247344970703125,-0.011077880859375,1.9064788818359375
1739983200113416400,10.02741650390625,0.20855712890625,-0.06256103515625,1.8185577392578125
1739983200123398700,10.037398681640624,0.1598052978515625,-0.130950927734375,1.696044921875
1739983200133380400,10.04738037109375,0.139434814453125,-0.19268798828125,1.570037841796875
1739983200143363600,10.057363525390626,0.1502838134765625,-0.221771240234375,1.456329345703125
1739983200153345500,10.067345458984375,0.173828125,-0.1923675537109375,1.392486572265625
1739983200163327500,10.077327392578125,0.214019775390625,-0.100341796875,1.39703369140625
1739983200173310500,10.087310546875,0.2628631591796875,0.0155487060546875,1.422515869140625
1739983200183292400,10.09729248046875,0.3010101318359375,0.1190643310546875,1.4405059814453125
1739983200193274600,10.107274658203124,0.3238983154296875,0.203094482421875,1.450897216796875
1739983200203256600,10.117256591796876,0.340087890625,0.2653961181640625,1.4534759521484375
1739983200213239600,10.127239501953126,0.3492889404296875,0.323760986328125,1.4464569091796875
1739983200223221500,10.137221435546875,0.338836669921875,0.381134033203125,1.43780517578125
1739983200233203500,10.147203369140625,0.3082427978515625,0.4314117431640625,1.433135986328125
1739983200243186400,10.1571865234375,0.2734832763671875,0.47344970703125,1.443145751953125
1739983200253168600,10.167168701171875,0.24859619140625,0.4996490478515625,1.4435577392578125
1739983200263150300,10.177150390625,0.2333984375,0.499603271484375,1.4188079833984375
1739983200273133600,10.187133544921876,0.2102813720703125,0.4735870361328125,1.356964111328125
1739983200283115300,10.197115234375,0.190826416015625,0.4508514404296875,1.2895050048828125
1739983200293097500,10.207097412109375,0.176300048828125,0.432769775390625,1.239105224609375
1739983200303080400,10.21708056640625,0.1634368896484375,0.4157562255859375,1.2204437255859375
1739983200313062400,10.2270625,0.1649322509765625,0.4049835205078125,1.2052459716796875
1739983200323044600,10.237044677734374,0.1751556396484375,0.412017822265625,1.203216552734375
1739983200333026300,10.2470263671875,0.1905364990234375,0.418121337890625,1.2092742919921875
1739983200343009500,10.257009521484376,0.2025146484375,0.4048004150390625,1.1782989501953125
1739983200352991500,10.266991455078125,0.2010955810546875,0.38385009765625,1.1285858154296875
1739983200362973400,10.276973388671875,0.19366455078125,0.3763885498046875,1.11053466796875
1739983200372956400,10.286956298828125,0.1818389892578125,0.389892578125,1.1015472412109375
1739983200382938400,10.2969384765625,0.166595458984375,0.40802001953125,1.1004180908203125
1739983200392920600,10.306920654296874,0.1490631103515625,0.427978515625,1.11273193359375
1739983200402903600,10.316903564453124,0.136474609375,0.4476470947265625,1.1380462646484375
1739983200412885500,10.326885498046876,0.137725830078125,0.46923828125,1.1445465087890625
1739983200422867500,10.336867431640625,0.137908935546875,0.4933013916015625,1.144012451171875
1739983200432849400,10.346849365234375,0.1313934326171875,0.514617919921875,1.133941650390625
1739983200442832400,10.356832275390625,0.120147705078125,0.5248870849609375,1.1009979248046875
1739983200452814600,10.366814697265625,0.1045684814453125,0.5243072509765625,1.05938720703125
1739983200462796500,10.376796630859374,0.0859832763671875,0.5195770263671875,1.0217132568359375
1739983200472779500,10.386779541015626,0.0711822509765625,0.5174407958984375,0.9903717041015625
1739983200482761500,10.396761474609375,0.068450927734375,0.5207672119140625,0.979949951171875
1739983200492743400,10.406743408203125,0.074188232421875,0.53936767578125,0.9880523681640625
1739983200502726700,10.4167265625,0.0882415771484375,0.5636444091796875,1.0067901611328125
1739983200512708400,10.426708251953125,0.103759765625,0.5796661376953125,1.0103607177734375
1739983200522690300,10.436690185546874,0.1090545654296875,0.58740234375,0.998291015625
1739983200532673300,10.44667333984375,0.1114501953125,0.5952606201171875,0.9792633056640625
1739983200542655500,10.456655517578126,0.098663330078125,0.59661865234375,0.947845458984375
1739983200552637400,10.466637451171875,0.0799560546875,0.5895843505859375,0.9105224609375
1739983200562619400,10.476619384765625,0.072509765625,0.5865631103515625,0.8918304443359375
1739983200572602400,10.486602294921875,0.0867462158203125,0.604766845703125,0.908355712890625
1739983200582584300,10.496584228515625,0.1164093017578125,0.6377410888671875,0.931396484375
1739983200592566500,10.50656640625,0.1452789306640625,0.656494140625,0.9381103515625
1739983200602549200,10.51654931640625,0.1600494384765625,0.6584014892578125,0.9203338623046875
1739983200612531500,10.526531494140626,0.1533660888671875,0.6442718505859375,0.8686981201171875
1739983200622513400,10.536513427734375,0.1270294189453125,0.6157073974609375,0.7968597412109375
1739983200632496400,10.546496337890625,0.0904693603515625,0.5787353515625,0.728973388671875
1739983200642478600,10.556478515625,0.0630645751953125,0.5334930419921875,0.6841583251953125
1739983200652460300,10.566460205078124,0.0529327392578125,0.48272705078125,0.6590423583984375
1739983200662443500,10.576443603515624,0.068939208984375,0.4276885986328125,0.652618408203125
1739983200672425200,10.58642529296875,0.0960845947265625,0.3829345703125,0.660858154296875
1739983200682407400,10.596407470703125,0.122528076171875,0.357635498046875,0.6985626220703125
1739983200692389400,10.606389404296875,0.165283203125,0.3451385498046875,0.7806854248046875
1739983200702372400,10.616372314453125,0.213043212890625,0.3383026123046875,0.854034423828125
1739983200712354300,10.626354248046875,0.2510223388671875,0.3454437255859375,0.9008026123046875
1739983200722336300,10.636336181640624,0.2832489013671875,0.361846923828125,0.94158935546875
1739983200732319200,10.6463193359375,0.3057098388671875,0.379364013671875,0.974395751953125
1739983200742301400,10.656301513671876,0.3236083984375,0.393768310546875,1.0013885498046875
1739983200752283400,10.666283447265625,0.3341064453125,0.3878021240234375,1.00836181640625
1739983200762266400,10.676266357421875,0.341217041015625,0.364349365234375,1.0152435302734375
1739983200772248300,10.686248291015625,0.3510589599609375,0.32501220703125,1.0302581787109375
1739983200782230300,10.696230224609375,0.3534088134765625,0.2785491943359375,1.0516510009765625
1739983200792213500,10.706213623046875,0.36541748046875,0.2479248046875,1.06170654296875
1739983200802195200,10.7161953125,0.37213134765625,0.2129974365234375,1.0340423583984375
1739983200812177400,10.726177490234376,0.3710479736328125,0.1826629638671875,0.9810791015625
1739983200822160400,10.736160400390625,0.3628692626953125,0.1678466796875,0.91571044921875
1739983200832142300,10.746142333984375,0.360992431640625,0.180908203125,0.8649749755859375
1739983200842124500,10.75612451171875,0.35791015625,0.2073822021484375,0.8309173583984375
1739983200852107300,10.766107177734375,0.3485260009765625,0.230010986328125,0.80828857421875
1739983200862089500,10.77608935546875,0.33245849609375,0.2480926513671875,0.813934326171875
1739983200872071200,10.7860712890625,0.3091583251953125,0.2587127685546875,0.83587646484375
1739983200882053400,10.796053466796875,0.285186767578125,0.2628326416015625,0.8517913818359375
1739983200892036400,10.806036376953125,0.262725830078125,0.2696533203125,0.8755950927734375
1739983200902018300,10.816018310546875,0.2386016845703125,0.2840423583984375,0.9105072021484375
1739983200912000500,10.82600048828125,0.2148895263671875,0.29742431640625,0.931060791015625
1739983200921983500,10.8359833984375,0.19268798828125,0.297698974609375,0.93389892578125
1739983200931965400,10.84596533203125,0.1820526123046875,0.3014068603515625,0.95513916015625
1739983200941947400,10.855947509765626,0.1946563720703125,0.2896575927734375,0.9896392822265625
1739983200951930400,10.865930419921876,0.187286376953125,0.276641845703125,1.0588531494140625
1739983200961912300,10.875912353515625,0.074432373046875,0.3208770751953125,1.121612548828125
1739983200971894300,10.885894287109375,0.0719451904296875,0.270416259765625,1.2025604248046875
1739983200981877200,10.895877197265625,0.1199188232421875,0.328125,1.3104400634765625
1739983200991859500,10.905859375,0.146331787109375,0.300872802734375,1.3464508056640625
1739983201001841400,10.91584130859375,0.149017333984375,0.2552490234375,1.363037109375
1739983201011824400,10.925824462890626,0.157318115234375,0.2342376708984375,1.368072509765625
1739983201021806600,10.935806640625,0.1791534423828125,0.23236083984375,1.3785247802734375
1739983201031788300,10.945788330078125,0.193359375,0.25408935546875,1.408050537109375
1739983201041771500,10.955771484375,0.1869964599609375,0.285430908203125,1.463470458984375
1739983201051753200,10.965753173828125,0.167816162109375,0.32562255859375,1.552093505859375
1739983201061735400,10.9757353515625,0.141357421875,0.33563232421875,1.6326446533203125
1739983201071717400,10.98571728515625,0.1146087646484375,0.3099212646484375,1.71331787109375
1739983201081700400,10.995700439453126,0.08673095703125,0.2515106201171875,1.778106689453125
1739983201091682600,11.0056826171875,0.0665130615234375,0.1712646484375,1.8280181884765625
1739983201101664300,11.015664306640625,0.047149658203125,0.0886993408203125,1.859161376953125
1739983201111647500,11.0256474609375,0.043548583984375,0.0155487060546875,1.8880157470703125
1739983201121629400,11.03562939453125,0.0717620849609375,-0.030029296875,1.9324493408203125
1739983201131611400,11.045611328125,0.114501953125,-0.041107177734375,1.9544830322265625
1739983201141594400,11.055594482421874,0.15191650390625,-0.0497894287109375,1.9425048828125
1739983201151576300,11.065576416015626,0.1725311279296875,-0.066558837890625,1.889007568359375
1739983201161558300,11.075558349609375,0.1874847412109375,-0.0868377685546875,1.804351806640625
1739983201171541500,11.08554150390625,0.1904754638671875,-0.0998992919921875,1.7075042724609375
1739983201181523200,11.095523193359375,0.1898193359375,-0.1089935302734375,1.6203765869140625
1739983201191505400,11.10550537109375,0.1846923828125,-0.1274871826171875,1.52294921875
1739983201201488400,11.11548828125,0.1811981201171875,-0.1444854736328125,1.4161529541015625
1739983201211470300,11.12547021484375,0.187347412109375,-0.138214111328125,1.340911865234375
1739983201221452500,11.13545263671875,0.2032470703125,-0.0973663330078125,1.3166961669921875
1739983201231435300,11.145435302734375,0.2264556884765625,-0.0250396728515625,1.3367156982421875
1739983201241417500,11.15541748046875,0.2626800537109375,0.0674591064453125,1.3855133056640625
1739983201251399200,11.165399169921875,0.2944488525390625,0.157257080078125,1.42108154296875
1739983201261382400,11.17538232421875,0.3096771240234375,0.228424072265625,1.4508209228515625
1739983201271364400,11.1853642578125,0.3184814453125,0.286529541015625,1.4631500244140625
1739983201281346300,11.19534619140625,0.31964111328125,0.3326416015625,1.4554443359375
1739983201291328500,11.20532861328125,0.31396484375,0.37158203125,1.4538726806640625
1739983201301311500,11.2153115234375,0.2935638427734375,0.4058074951171875,1.4629974365234375
1739983201311293400,11.22529345703125,0.25848388671875,0.4283599853515625,1.4629669189453125
1739983201321275400,11.235275390625,0.21148681640625,0.4300537109375,1.4458465576171875
1739983201331258400,11.24525830078125,0.1605682373046875,0.41259765625,1.412017822265625
1739983201341240300,11.255240234375,0.1208953857421875,0.3959808349609375,1.3804779052734375
1739983201351222300,11.26522216796875,0.0955657958984375,0.37652587890625,1.362152099609375
1739983201361205200,11.275205322265625,0.0962371826171875,0.3518218994140625,1.3516998291015625
1739983201371187500,11.2851875,0.12579345703125,0.340087890625,1.3386383056640625
1739983201381169400,11.29516943359375,0.166839599609375,0.342681884765625,1.3185577392578125
1739983201391152400,11.30515234375,0.2064971923828125,0.35369873046875,1.267120361328125
1739983201401134600,11.315134521484374,0.23345947265625,0.3658599853515625,1.1936492919921875
1739983201411116300,11.3251162109375,0.242218017578125,0.382843017578125,1.13330078125
1739983201421099500,11.335099609375,0.2305908203125,0.4064788818359375,1.0877838134765625
1739983201431081200,11.345081298828125,0.214813232421875,0.4250335693359375,1.054779052734375
1739983201441063400,11.3550634765625,0.201904296875,0.4361114501953125,1.0344085693359375
1739983201451046400,11.36504638671875,0.1952667236328125,0.451202392578125,1.018463134765625
1739983201461028400,11.3750283203125,0.1838836669921875,0.4670257568359375,0.9981536865234375
1739983201471010600,11.385010498046874,0.17559814453125,0.4853515625,0.96783447265625
1739983201480993300,11.3949931640625,0.16400146484375,0.5044403076171875,0.9279022216796875
1739983201490975500,11.4049755859375,0.14404296875,0.521728515625,0.89093017578125
1739983201500957400,11.41495751953125,0.131561279296875,0.5355224609375,0.851593017578125
1739983201510941200,11.424941162109375,0.121826171875,0.5411224365234375,0.801361083984375
1739983201520923100,11.434923095703125,0.109344482421875,0.5316162109375,0.753143310546875
1739983201530905300,11.4449052734375,0.101409912109375,0.51995849609375,0.7213287353515625
1739983201540888300,11.454888427734375,0.0959930419921875,0.5148468017578125,0.7059326171875
1739983201550870300,11.464870361328124,0.0878753662109375,0.5167999267578125,0.7094268798828125
1739983201560852200,11.474852294921876,0.074737548828125,0.5209503173828125,0.7248992919921875
1739983201570835500,11.48483544921875,0.06219482421875,0.5265960693359375,0.7558441162109375
1739983201580817200,11.494817138671875,0.04949951171875,0.5378875732421875,0.7855987548828125
1739983201590799400,11.50479931640625,0.0294189453125,0.5433197021484375,0.8103179931640625
1739983201600782000,11.514781982421875,0.0072174072265625,0.5521240234375,0.8358612060546875
1739983201610764300,11.524764404296874,-0.015106201171875,0.562255859375,0.8533935546875
1739983201620746200,11.534746337890626,-0.0226287841796875,0.5668487548828125,0.86663818359375
1739983201630729200,11.544729248046876,0.0008392333984375,0.5713653564453125,0.8931427001953125
1739983201640711400,11.55471142578125,0.068145751953125,0.590728759765625,0.9176177978515625
1739983201650693000,11.564693115234375,0.150726318359375,0.6161956787109375,0.9149932861328125
1739983201660676400,11.57467626953125,0.2132720947265625,0.640594482421875,0.9080352783203125
1739983201670658300,11.584658203125,0.2455291748046875,0.6624298095703125,0.8917388916015625
1739983201680640300,11.59464013671875,0.248016357421875,0.6756591796875,0.869140625
1739983201690623200,11.604623291015624,0.2325286865234375,0.672821044921875,0.8555755615234375
1739983201700605200,11.614605224609376,0.199951171875,0.637054443359375,0.8419342041015625
1739983201710587100,11.624587158203125,0.163787841796875,0.5724334716796875,0.8544158935546875
1739983201720570400,11.6345703125,0.14501953125,0.5072784423828125,0.8906097412109375
1739983201730552300,11.64455224609375,0.145111083984375,0.451629638671875,0.9321441650390625
1739983201740534300,11.6545341796875,0.1601715087890625,0.412078857421875,0.98065185546875
1739983201750516200,11.66451611328125,0.1913604736328125,0.3991546630859375,1.0362548828125
1739983201760499200,11.674499267578126,0.23687744140625,0.4138336181640625,1.1076202392578125
1739983201770481400,11.6844814453125,0.2922515869140625,0.431854248046875,1.16851806640625
1739983201780463000,11.694463134765625,0.341461181640625,0.4393768310546875,1.1969757080078125
1739983201790446300,11.7044462890625,0.376617431640625,0.456298828125,1.2016754150390625
1739983201800428000,11.714427978515625,0.3995513916015625,0.468719482421875,1.193634033203125
1739983201810410200,11.72441015625,0.40234375,0.45733642578125,1.1675872802734375
1739983201820393200,11.734393310546874,0.3867340087890625,0.42547607421875,1.1247711181640625
1739983201830375200,11.744375244140626,0.3594818115234375,0.3834991455078125,1.089447021484375
1739983201840357400,11.754357421875,0.318817138671875,0.34716796875,1.0695953369140625
1739983201850340400,11.76434033203125,0.2864990234375,0.32012939453125,1.049591064453125
1739983201860322300,11.774322265625,0.25909423828125,0.295257568359375,1.0282135009765625
1739983201870304300,11.78430419921875,0.2333221435546875,0.274078369140625,0.9889373779296875
1739983201880287200,11.794287353515625,0.2062835693359375,0.25970458984375,0.940185546875
1739983201890269200,11.804269287109374,0.18487548828125,0.260833740234375,0.9086456298828125
1739983201900251100,11.814251220703126,0.1712799072265625,0.277435302734375,0.8939971923828125
1739983201910234000,11.824234130859375,0.168975830078125,0.294830322265625,0.885711669921875
1739983201920216300,11.83421630859375,0.1679840087890625,0.3052520751953125,0.88031005859375
1739983201930198300,11.8441982421875,0.1575927734375,0.3034820556640625,0.87957763671875
1739983201940181200,11.85418115234375,0.1582489013671875,0.30291748046875,0.884765625
1739983201950163500,11.86416357421875,0.1639862060546875,0.3016204833984375,0.9000701904296875
1739983201960146200,11.874146240234374,0.175384521484375,0.29937744140625,0.9440460205078125
1739983201970128400,11.88412841796875,0.1903533935546875,0.28839111328125,0.981719970703125
1739983201980110000,11.894110107421875,0.1959228515625,0.258514404296875,0.9840240478515625
1739983201990093300,11.90409326171875,0.193572998046875,0.2392425537109375,0.987548828125
1739983202000075300,11.9140751953125,0.1945953369140625,0.239715576171875,1.01190185546875
1739983202010057200,11.92405712890625,0.192474365234375,0.2469024658203125,1.055633544921875
1739983202020040200,11.934040283203124,0.198638916015625,0.24884033203125,1.10455322265625
1739983202030022100,11.944022216796874,0.21527099609375,0.242034912109375,1.1437530517578125
1739983202040004400,11.95400439453125,0.227325439453125,0.22711181640625,1.1716461181640625
1739983202049987300,11.9639873046875,0.2318572998046875,0.20947265625,1.177215576171875
1739983202059969300,11.97396923828125,0.236053466796875,0.2068328857421875,1.2101898193359375
1739983202069951200,11.983951171875,0.2506103515625,0.22686767578125,1.28070068359375
1739983202079934500,11.9939345703125,0.2642364501953125,0.2572174072265625,1.3658905029296875
1739983202089916200,12.003916259765624,0.2880859375,0.2859954833984375,1.4657440185546875
1739983202099898400,12.0138984375,0.31005859375,0.30035400390625,1.5536956787109375
1739983202109881000,12.023881103515626,0.3231353759765625,0.283355712890625,1.6179046630859375
1739983202119863300,12.03386328125,0.3247833251953125,0.233062744140625,1.6403350830078125
1739983202129845200,12.04384521484375,0.3187103271484375,0.156463623046875,1.624176025390625
1739983202139828200,12.053828125,0.3070220947265625,0.071044921875,1.61480712890625
1739983202149810400,12.063810546875,0.3052978515625,-0.008575439453125,1.6331939697265625
1739983202159792000,12.073792236328124,0.32794189453125,-0.063323974609375,1.6732940673828125
1739983202169775400,12.083775390625,0.3824310302734375,-0.07269287109375,1.7639617919921875
1739983202179757300,12.09375732421875,0.4559326171875,-0.051300048828125,1.873382568359375
1739983202189739300,12.1037392578125,0.5067291259765625,-0.04241943359375,1.9128875732421875
1739983202199722200,12.11372216796875,0.5358123779296875,-0.052978515625,1.88421630859375
1739983202209704200,12.1237041015625,0.5518341064453125,-0.0594482421875,1.8253173828125
1739983202219686100,12.13368603515625,0.537841796875,-0.0604705810546875,1.7344207763671875
1739983202229669400,12.14366943359375,0.4850006103515625,-0.0720367431640625,1.59832763671875
1739983202239651300,12.1536513671875,0.4336395263671875,-0.0941619873046875,1.460784912109375
1739983202249633300,12.16363330078125,0.357879638671875,-0.1071624755859375,1.349456787109375
1739983202259616300,12.1736162109375,0.3523406982421875,-0.090789794921875,1.3021392822265625
1739983202269598200,12.18359814453125,0.365447998046875,0.0000152587890625,1.35498046875
1739983202279580400,12.193580322265625,0.3544769287109375,0.11029052734375,1.4292144775390625
1739983202289563100,12.203563232421875,0.3354949951171875,0.1978759765625,1.469970703125
1739983202299545300,12.21354541015625,0.31195068359375,0.2696533203125,1.4981231689453125
1739983202309528300,12.2235283203125,0.28839111328125,0.3412322998046875,1.52545166015625
1739983202319510300,12.23351025390625,0.2711181640625,0.4223785400390625,1.5496826171875
1739983202329492200,12.2434921875,0.2594146728515625,0.504852294921875,1.5794830322265625
1739983202339475200,12.25347509765625,0.2484130859375,0.58056640625,1.59954833984375
1739983202349457200,12.26345703125,0.230865478515625,0.6346893310546875,1.5728912353515625
1739983202359439000,12.273439208984374,0.2071380615234375,0.6564788818359375,1.50537109375
1739983202369422000,12.283422119140624,0.18316650390625,0.640777587890625,1.4166412353515625
1739983202379404300,12.293404296875,0.167266845703125,0.6076812744140625,1.329986572265625
1739983202389386200,12.30338623046875,0.15325927734375,0.5762481689453125,1.263153076171875
1739983202399369200,12.313369140625,0.14599609375,0.5492706298828125,1.2356414794921875
1739983202409351400,12.323351318359375,0.1455841064453125,0.5238037109375,1.2281036376953125
1739983202419333000,12.3333330078125,0.15972900390625,0.502716064453125,1.232208251953125
1739983202429316400,12.34331640625,0.1835479736328125,0.4796295166015625,1.216217041015625
1739983202439298000,12.353298095703124,0.2008514404296875,0.454864501953125,1.1724090576171875
1739983202449280300,12.3632802734375,0.215179443359375,0.442352294921875,1.1226654052734375
1739983202459263200,12.37326318359375,0.214630126953125,0.4370880126953125,1.08697509765625
1739983202469245200,12.3832451171875,0.1964874267578125,0.4279632568359375,1.0572509765625
1739983202479227400,12.393227294921875,0.1781158447265625,0.424041748046875,1.041015625
1739983202489210400,12.40321044921875,0.1555023193359375,0.43841552734375,1.02880859375
1739983202499192300,12.4131923828125,0.1330718994140625,0.4606781005859375,1.02972412109375
1739983202509173200,12.42317333984375,0.1190643310546875,0.488311767578125,1.0359344482421875
1739983202519156200,12.43315625,0.119781494140625,0.51751708984375,1.0351409912109375
1739983202529138400,12.443138427734375,0.123382568359375,0.5420989990234375,1.01629638671875
1739983202539120000,12.4531201171875,0.119110107421875,0.5538177490234375,0.9838409423828125
1739983202549103400,12.463103271484375,0.114776611328125,0.5642547607421875,0.94964599609375
1739983202559085300,12.473085205078124,0.106353759765625,0.5755462646484375,0.910980224609375
1739983202569067300,12.4830673828125,0.1082916259765625,0.5785675048828125,0.8714141845703125
1739983202579050200,12.49305029296875,0.11236572265625,0.576171875,0.839385986328125
1739983202589032200,12.5030322265625,0.1285552978515625,0.580841064453125,0.8271026611328125
1739983202599014400,12.513014404296875,0.151275634765625,0.597137451171875,0.8374176025390625
1739983202608997400,12.522997314453125,0.1778106689453125,0.6237335205078125,0.85546875
1739983202618979300,12.532979248046875,0.187469482421875,0.6429595947265625,0.867095947265625
1739983202628962300,12.54296240234375,0.1703033447265625,0.64715576171875,0.865570068359375
1739983202638944300,12.5529443359375,0.1386871337890625,0.6280670166015625,0.8492584228515625
1739983202648926200,12.56292626953125,0.116241455078125,0.603057861328125,0.829986572265625
1739983202658909400,12.572909423828126,0.095855712890625,0.594635009765625,0.8303375244140625
1739983202668891100,12.58289111328125,0.0856781005859375,0.607666015625,0.865814208984375
1739983202678873300,12.592873291015625,0.0914764404296875,0.6387786865234375,0.926177978515625
1739983202688856300,12.602856201171875,0.1143798828125,0.6808929443359375,0.9685821533203125
1739983202698838300,12.61283837890625,0.137451171875,0.70843505859375,0.9828338623046875
1739983202708820200,12.6228203125,0.1453704833984375,0.7198486328125,0.9765777587890625
1739983202718803200,12.63280322265625,0.1375274658203125,0.7179412841796875,0.93096923828125
1739983202728785200,12.64278515625,0.103271484375,0.68572998046875,0.855133056640625
1739983202738767000,12.65276708984375,0.069427490234375,0.6176910400390625,0.7667999267578125
1739983202748750300,12.662750244140625,0.0426483154296875,0.541412353515625,0.702362060546875
1739983202758732300,12.672732177734375,0.0238800048828125,0.464385986328125,0.687255859375
1739983202768714200,12.68271435546875,0.0241546630859375,0.40179443359375,0.704620361328125
1739983202778697200,12.692697265625,0.0454254150390625,0.366180419921875,0.7604827880859375
1739983202788679400,12.702679443359376,0.0900726318359375,0.364501953125,0.8489990234375
1739983202798662100,12.712662109375,0.155181884765625,0.38641357421875,0.938323974609375
1739983202808644400,12.722644287109375,0.213653564453125,0.4184417724609375,1.015045166015625
1739983202818626000,12.7326259765625,0.273284912109375,0.451629638671875,1.076690673828125
1739983202828609300,12.742609375,0.31488037109375,0.4726104736328125,1.1027374267578125
1739983202838591200,12.75259130859375,0.3435211181640625,0.4644927978515625,1.090484619140625
1739983202848573200,12.7625732421875,0.3621826171875,0.44183349609375,1.060943603515625
1739983202858556200,12.77255615234375,0.366973876953125,0.4236602783203125,1.02899169921875
1739983202868538000,12.7825380859375,0.36376953125,0.4069976806640625,1.018463134765625
1739983202878520300,12.792520263671875,0.3448944091796875,0.386474609375,1.024688720703125
1739983202888503300,12.80250341796875,0.31890869140625,0.3607940673828125,1.024871826171875
1739983202898485200,12.8124853515625,0.2925567626953125,0.334686279296875,1.0275421142578125
1739983202908467200,12.82246728515625,0.26422119140625,0.30816650390625,1.037384033203125
1739983202918450400,12.832450439453124,0.2318115234375,0.285308837890625,1.04388427734375
1739983202928432000,12.84243212890625,0.2005767822265625,0.277587890625,1.0413665771484375
1739983202938414300,12.852414306640625,0.17340087890625,0.275482177734375,1.0427093505859375
1739983202948397000,12.86239697265625,0.1468048095703125,0.2726593017578125,1.0420989990234375
1739983202958379300,12.872379150390625,0.123046875,0.2711029052734375,1.0389862060546875
1739983202968361200,12.882361328125,0.1166229248046875,0.27276611328125,1.033355712890625
1739983202978344200,12.89234423828125,0.13006591796875,0.268768310546875,1.03411865234375
1739983202988326400,12.902326416015624,0.1519775390625,0.26177978515625,1.0337066650390625
1739983202998309000,12.91230908203125,0.1743621826171875,0.2543792724609375,1.02801513671875
1739983203008291300,12.922291259765625,0.19158935546875,0.2523345947265625,1.0214385986328125
1739983203018273300,12.932273193359375,0.1988372802734375,0.2601776123046875,1.016357421875
1739983203028256300,12.94225634765625,0.1907196044921875,0.2718048095703125,1.0220489501953125
1739983203038238200,12.95223828125,0.190185546875,0.27008056640625,1.0423583984375
1739983203048220200,12.96222021484375,0.2252349853515625,0.2661895751953125,1.08453369140625
1739983203058203100,12.972203125,0.2812042236328125,0.2570343017578125,1.124786376953125
1739983203068185300,12.982185302734376,0.342681884765625,0.2392425537109375,1.167388916015625
1739983203078167300,12.992167236328125,0.406097412109375,0.2263641357421875,1.2141571044921875
1739983203088150300,13.002150390625,0.45916748046875,0.2164306640625,1.262359619140625
1739983203098132200,13.01213232421875,0.500030517578125,0.2065582275390625,1.2881927490234375
1739983203108114200,13.0221142578125,0.53228759765625,0.1949310302734375,1.295166015625
1739983203118097400,13.032097412109374,0.5538787841796875,0.1912078857421875,1.3084259033203125
1739983203128079000,13.0420791015625,0.563934326171875,0.189971923828125,1.3384246826171875
1739983203138062300,13.052062255859376,0.5694427490234375,0.194610595703125,1.388885498046875
1739983203148044300,13.062044189453125,0.576446533203125,0.194000244140625,1.4497222900390625
1739983203158026200,13.072026123046875,0.5878448486328125,0.178375244140625,1.519134521484375
1739983203168009200,13.08200927734375,0.591461181640625,0.143585205078125,1.55169677734375
1739983203177991200,13.0919912109375,0.5806732177734375,0.0796051025390625,1.544891357421875
