time,seconds_elapsed,z,y,x
1739983190156133000,0.070133056640625,1.1850166320800781,1.6938705444335938,-0.6316544413566589
1739983190166115000,0.080114990234375,1.465688943862915,1.588049292564392,-1.0177942514419556
1739983190176097300,0.09009716796875,1.7894583940505981,1.7459461688995361,-1.2880842685699463
1739983190186080300,0.100080322265625,2.115525722503662,1.9198415279388428,-1.3169326782226562
1739983190196062200,0.110062255859375,2.46696400642395,1.8752142190933228,-1.1451674699783325
1739983190206044200,0.120044189453125,2.7493155002593994,1.3909995555877686,-0.8686533570289612
1739983190216026000,0.130026123046875,2.8638477325439453,0.5951769351959229,-0.5462266802787781
1739983190226008000,0.140008056640625,2.4142186641693115,-0.7131406664848328,-0.45497509837150574
1739983190235990000,0.149989990234375,1.461944341659546,-1.3995001316070557,-0.44857075810432434
1739983190245973000,0.159972900390625,0.46212923526763916,-1.2141432762145996,-0.43168577551841736
1739983190255955200,0.169955078125,-0.2888354957103729,-0.9725603461265564,-0.4935223162174225
1739983190265937200,0.179937255859375,-0.8644835948944092,-0.6370505094528198,-0.6541157364845276
1739983190275919000,0.189919189453125,-1.2129411697387695,-0.06169996038079262,-0.7219899892807007
1739983190285901000,0.199901123046875,-1.2437081336975098,0.7819721102714539,-0.6113511323928833
1739983190295883300,0.20988330078125,-1.084499716758728,1.449415922164917,-0.36398449540138245
1739983190305866200,0.2198662109375,-0.7891798615455627,1.7317007780075073,-0.05963099002838135
1739983190315848200,0.22984814453125,-0.5069860816001892,1.7139376401901245,0.29254278540611267
1739983190325830100,0.239830078125,-0.24007266759872437,1.5512632131576538,0.6547766327857971
1739983190335812000,0.24981201171875,0.02690011076629162,1.2026910781860352,0.9362905621528625
1739983190345794300,0.259794189453125,0.1526188999414444,0.5497804284095764,1.1232458353042603
1739983190355776000,0.26977587890625,0.0831802561879158,-0.298831969499588,1.209671974182129
1739983190365759200,0.27975927734375,-0.22439220547676086,-0.782752275466919,1.0193670988082886
1739983190375741200,0.2897412109375,-0.7613818645477295,-0.2003772109746933,0.522166907787323
1739983190385723100,0.29972314453125,-1.3302165269851685,0.8264484405517578,-0.03198709711432457
1739983190395705300,0.309705322265625,-1.6219310760498047,1.4439316987991333,-0.3535533845424652
1739983190405687000,0.31968701171875,-1.7084100246429443,1.6564881801605225,-0.43681660294532776
1739983190415669200,0.329669189453125,-1.7760311365127563,1.712884545326233,-0.4248181879520416
1739983190425652000,0.33965185546875,-1.8443681001663208,1.8944919109344482,-0.36884814500808716
1739983190435634200,0.34963427734375,-1.8556522130966187,2.0388033390045166,-0.27813100814819336
1739983190445616000,0.3596162109375,-1.8876618146896362,2.086759567260742,-0.1982794851064682
1739983190455598000,0.36959814453125,-1.9776314496994019,2.2314248085021973,-0.13961003720760345
1739983190465580300,0.379580322265625,-2.2054667472839355,2.373770236968994,-0.08572790771722794
1739983190475563000,0.38956298828125,-2.589226722717285,2.5118420124053955,-0.0678580030798912
1739983190485545200,0.399545166015625,-3.0568785667419434,2.852430820465088,-0.15888990461826324
1739983190495527000,0.40952685546875,-3.5389463901519775,3.4586188793182373,-0.3416149318218231
1739983190505509000,0.419509033203125,-3.8709535598754883,4.074851036071777,-0.5144058465957642
1739983190515491000,0.429490966796875,-4.141242980957031,4.548316478729248,-0.5465854406356812
1739983190525473000,0.43947314453125,-4.5095534324646,4.905679225921631,-0.4202975332736969
1739983190535456300,0.449456298828125,-4.894029140472412,4.880995750427246,-0.20164109766483307
1739983190545438000,0.45943798828125,-5.091913223266602,4.513662338256836,0.005462558474391699
1739983190555420200,0.469420166015625,-5.059138774871826,4.101700782775879,0.10404469072818756
1739983190565402000,0.479402099609375,-5.053738594055176,3.8086142539978027,0.13803090155124664
1739983190575384000,0.489384033203125,-5.231071472167969,3.6044161319732666,0.1906193494796753
1739983190585366000,0.499365966796875,-5.464126110076904,3.467808723449707,0.21820276975631714
1739983190595349000,0.509348876953125,-5.4990386962890625,3.359433889389038,0.20499944686889648
1739983190605331200,0.519331298828125,-5.2161664962768555,3.1140434741973877,0.17673133313655853
1739983190615313200,0.529313232421875,-4.743213176727295,2.6292836666107178,0.1058269590139389
1739983190625295000,0.539295166015625,-4.285645961761475,2.0752763748168945,-0.03084859438240528
1739983190635277000,0.549277099609375,-4.005341529846191,1.5966622829437256,-0.2480471134185791
1739983190645260000,0.559260009765625,-3.884160280227661,1.2357873916625977,-0.5374592542648315
1739983190655242200,0.5692421875,-3.824631690979004,0.9978916049003601,-0.8793641924858093
1739983190665224200,0.57922412109375,-3.7330288887023926,0.8655391931533813,-1.2181919813156128
1739983190675206100,0.5892060546875,-3.5765883922576904,0.8086802363395691,-1.5031567811965942
1739983190685188000,0.59918798828125,-3.332061290740967,0.8326833248138428,-1.701233983039856
1739983190695170000,0.609170166015625,-2.989244222640991,0.8558579683303833,-1.7693005800247192
1739983190705153300,0.6191533203125,-2.6035125255584717,0.7973963022232056,-1.676517367362976
1739983190715135000,0.629135009765625,-2.1931798458099365,0.5342282652854919,-1.445939540863037
1739983190725117200,0.6391171875,-1.8184868097305298,0.15055836737155914,-1.1565178632736206
1739983190735099100,0.64909912109375,-1.5738028287887573,-0.2716481387615204,-0.848895251750946
1739983190745081000,0.6590810546875,-1.5179855823516846,-0.7957203984260559,-0.5565856099128723
1739983190755064000,0.66906396484375,-1.5556917190551758,-1.2993826866149902,-0.289482980966568
1739983190765046000,0.6790458984375,-1.5787930488586426,-1.5926399230957031,-0.025958145037293434
1739983190775028200,0.6890283203125,-1.5384632349014282,-1.5860356092453003,0.23660869896411896
1739983190785010200,0.69901025390625,-1.3791391849517822,-1.3964073657989502,0.49253955483436584
1739983190794992000,0.7089921875,-1.0962026119232178,-1.0861711502075195,0.7663778066635132
1739983190804974000,0.71897412109375,-0.7229129672050476,-0.7333019375801086,1.079908013343811
1739983190814957000,0.72895703125,-0.3955991864204407,-0.42581823468208313,1.4265834093093872
1739983190824939000,0.73893896484375,-0.20201003551483154,-0.22295649349689484,1.7958639860153198
1739983190834921200,0.748921142578125,-0.09980752319097519,-0.07011571526527405,2.1388158798217773
1739983190844903200,0.758903076171875,-0.045513130724430084,0.06635265052318573,2.3943212032318115
1739983190854885000,0.768885009765625,-0.022168457508087158,0.24991053342819214,2.5384204387664795
1739983190864868000,0.7788681640625,0.013118693605065346,0.4841914772987366,2.5755138397216797
1739983190874850000,0.78885009765625,0.08804455399513245,0.7910805344581604,2.5223543643951416
1739983190884832300,0.798832275390625,0.19890502095222473,1.3334484100341797,2.4069483280181885
1739983190894814000,0.80881396484375,0.38410893082618713,1.5644890069961548,2.317784547805786
1739983190904796200,0.818796142578125,0.5847009420394897,1.7789610624313354,2.261472463607788
1739983190914778000,0.828778076171875,0.7734701633453369,2.0816287994384766,2.1997413635253906
1739983190924761000,0.838760986328125,0.9402402639389038,2.324610948562622,2.1379892826080322
1739983190934743000,0.848742919921875,1.1033157110214233,2.566715955734253,2.098400592803955
1739983190944725000,0.85872509765625,1.2696082592010498,2.820209503173828,2.103217363357544
1739983190954707200,0.868707275390625,1.4207335710525513,3.013012170791626,2.154236316680908
1739983190964689000,0.87868896484375,1.5412805080413818,3.1712019443511963,2.2425289154052734
1739983190974672100,0.888672119140625,1.6209229230880737,3.3473970890045166,2.360023260116577
1739983190984654000,0.898654052734375,1.772938847541809,3.4774274826049805,2.4742205142974854
1739983190994636000,0.908635986328125,2.031827688217163,3.450014591217041,2.5488882064819336
1739983191004618200,0.9186181640625,2.315378427505493,3.3427395820617676,2.561702251434326
1739983191014600000,0.928599853515625,2.5676169395446777,3.2076826095581055,2.5112955570220947
1739983191024582100,0.93858203125,2.775637149810791,3.079432487487793,2.4080584049224854
1739983191034565000,0.948565185546875,2.93709659576416,2.9571480751037598,2.2541284561157227
1739983191044547000,0.958547119140625,3.0495846271514893,2.820070505142212,2.0313844680786133
1739983191054529300,0.968529296875,3.1391725540161133,2.662827491760254,1.7626571655273438
1739983191064511000,0.978510986328125,3.189810276031494,2.5159428119659424,1.4718703031539917
1739983191074493200,0.9884931640625,3.1727800369262695,2.411139488220215,1.1671867370605469
1739983191084476200,0.99847607421875,3.1016271114349365,2.2955739498138428,0.8723372220993042
1739983191094458000,1.0084580078125,3.0085744857788086,2.115729570388794,0.567147433757782
1739983191104440300,1.0184404296875,2.899170160293579,1.8229669332504272,0.22763864696025848
1739983191114422000,1.028422119140625,2.808151960372925,1.475982904434204,-0.12153284251689911
1739983191124404200,1.038404296875,2.762277364730835,1.164944052696228,-0.4502537250518799
1739983191134387000,1.048386962890625,2.730923891067505,0.9343394041061401,-0.7585338354110718
1739983191144369200,1.058369140625,2.699908494949341,0.7900128960609436,-1.0758377313613892
1739983191154351400,1.068351318359375,2.6603736877441406,0.7185700535774231,-1.3752838373184204
1739983191164333000,1.0783330078125,2.620069980621338,0.7024275660514832,-1.6267269849777222
1739983191174315300,1.088315185546875,2.5858213901519775,0.7040243148803711,-1.804898738861084
1739983191184297000,1.098296875,2.566756010055542,0.6966021060943604,-1.904322862625122
1739983191194280200,1.1082802734375,2.5415122509002686,0.6853251457214355,-1.9279870986938477
1739983191204262100,1.11826220703125,2.4948534965515137,0.678923487663269,-1.8869882822036743
1739983191214244000,1.128244140625,2.384880542755127,0.6761826872825623,-1.8076497316360474
1739983191224226300,1.138226318359375,2.256603479385376,0.6722555756568909,-1.7159720659255981
1739983191234208000,1.1482080078125,2.144503355026245,0.5694386959075928,-1.6287983655929565
1739983191244191200,1.158191162109375,2.0093722343444824,0.3739270269870758,-1.5351134538650513
1739983191254173000,1.1681728515625,1.7780967950820923,0.20063844323158264,-1.4465490579605103
1739983191264155100,1.178155029296875,1.4624989032745361,0.11459517478942871,-1.3584948778152466
1739983191274137000,1.18813720703125,1.1405940055847168,0.04881040006875992,-1.2683168649673462
1739983191284119000,1.198119140625,0.8237073421478271,-0.0628327801823616,-1.141906499862671
1739983191294101200,1.208101318359375,0.4903579354286194,-0.21701490879058838,-0.9558517336845398
1739983191304084000,1.218083984375,0.124599389731884,-0.3886899948120117,-0.7090131640434265
1739983191314066200,1.228066162109375,-0.23031845688819885,-0.5311039090156555,-0.4284689128398895
1739983191324048100,1.238048095703125,-0.5057929158210754,-0.6150672435760498,-0.15500059723854065
1739983191334030000,1.248030029296875,-0.7080156207084656,-0.616218090057373,0.09767762571573257
1739983191344012000,1.258011962890625,-0.8678632974624634,-0.574373722076416,0.34021809697151184
1739983191353995000,1.2679951171875,-0.977555513381958,-0.521256148815155,0.5736162066459656
1739983191363977200,1.277977294921875,-1.0228776931762695,-0.4878174960613251,0.7821584939956665
1739983191373959200,1.287959228515625,-1.0088551044464111,-0.496802419424057,0.9278590083122253
1739983191383941000,1.297941162109375,-0.9694316983222961,-0.5243112444877625,0.9970370531082153
1739983191393923000,1.307923095703125,-0.9273029565811157,-0.5607929229736328,0.9669110774993896
1739983191403906000,1.317906005859375,-0.901652455329895,-0.5931987762451172,0.8462554812431335
1739983191413888300,1.32788818359375,-0.9110432267189026,-0.6241816282272339,0.6659177541732788
1739983191423870200,1.3378701171875,-0.9494571685791016,-0.6625665426254272,0.4539144039154053
1739983191433852200,1.34785205078125,-0.9962684512138367,-0.712078869342804,0.23105193674564362
1739983191443834000,1.357834228515625,-1.0419703722000122,-0.8095939755439758,0.01793406903743744
1739983191453816000,1.367816162109375,-1.0961037874221802,-0.962199330329895,-0.20052653551101685
1739983191463799300,1.37779931640625,-1.157755732536316,-1.1445130109786987,-0.4289810061454773
1739983191473781000,1.387781005859375,-1.1908211708068848,-1.3537992238998413,-0.6660510301589966
1739983191483763200,1.39776318359375,-1.2025483846664429,-1.5438580513000488,-0.8950517177581787
1739983191493745200,1.4077451171875,-1.2034733295440674,-1.6527122259140015,-1.085561752319336
1739983191503726800,1.417726806640625,-1.2163033485412598,-1.6788583993911743,-1.214791178703308
1739983191513709600,1.42770947265625,-1.2311060428619385,-1.6475855112075806,-1.2926384210586548
1739983191523691800,1.43769189453125,-1.249308466911316,-1.5922948122024536,-1.3318817615509033
1739983191533673500,1.447673583984375,-1.270395278930664,-1.5522323846817017,-1.350286602973938
1739983191543655700,1.45765576171875,-1.3023350238800049,-1.5641753673553467,-1.3666775226593018
1739983191553637600,1.4676376953125,-1.3599534034729004,-1.6156796216964722,-1.4113821983337402
1739983191563620600,1.47762060546875,-1.456703543663025,-1.6386299133300781,-1.5024948120117188
1739983191573602600,1.4876025390625,-1.585886836051941,-1.5644781589508057,-1.650749683380127
1739983191583584500,1.49758447265625,-1.7429980039596558,-1.3965387344360352,-1.8385767936706543
1739983191593566700,1.507566650390625,-1.912683129310608,-1.221292495727539,-2.037651777267456
1739983191603548400,1.51754833984375,-2.0455408096313477,-1.0752304792404175,-2.198474407196045
1739983191613531600,1.52753173828125,-2.1414875984191895,-0.9760777354240417,-2.308842658996582
1739983191623513600,1.537513671875,-2.206486701965332,-0.9090334177017212,-2.384406089782715
1739983191633495600,1.54749560546875,-2.290358543395996,-0.8328638672828674,-2.4275290966033936
1739983191643477800,1.557477783203125,-2.3753573894500732,-0.7499103546142578,-2.416302442550659
1739983191653459500,1.56745947265625,-2.3930840492248535,-0.7559586763381958,-2.3675506114959717
1739983191663442700,1.577442626953125,-2.3347296714782715,-0.8389920592308044,-2.3213703632354736
1739983191673424600,1.587424560546875,-2.1312427520751953,-0.9264509677886963,-2.294612407684326
1739983191683406600,1.597406494140625,-1.8795084953308105,-1.1497617959976196,-2.388396739959717
1739983191693388800,1.607388916015625,-1.562463402748108,-1.308634877204895,-2.5914602279663086
1739983191703370500,1.61737060546875,-1.2399098873138428,-1.3490369319915771,-2.9112541675567627
1739983191713352700,1.627352783203125,-1.1025124788284302,-1.318178653717041,-3.316617012023926
1739983191723335700,1.637335693359375,-1.2011991739273071,-1.2723557949066162,-3.7514421939849854
1739983191733317600,1.647317626953125,-1.4635447263717651,-1.2150661945343018,-4.16814661026001
1739983191743299800,1.6572998046875,-1.807184100151062,-1.1814134120941162,-4.484358310699463
1739983191753281500,1.667281494140625,-2.146104097366333,-1.1189148426055908,-4.61207389831543
1739983191763263700,1.677263671875,-2.387599468231201,-0.9562193751335144,-4.4668354988098145
1739983191773246500,1.68724658203125,-2.4957430362701416,-0.6166375279426575,-4.048452377319336
1739983191783228700,1.697228759765625,-2.4504451751708984,-0.16436433792114258,-3.389317274093628
1739983191793210600,1.707210693359375,-2.2789125442504883,0.3158133625984192,-2.5349466800689697
1739983191803192600,1.717192626953125,-2.0308783054351807,0.7998951077461243,-1.5105113983154297
1739983191813174800,1.7271748046875,-1.698962926864624,1.1849900484085083,-0.37830692529678345
1739983191823157500,1.737157470703125,-1.2029682397842407,1.3525789976119995,0.7413547039031982
1739983191833139700,1.7471396484375,-0.5673190355300903,1.3543891906738281,1.702897548675537
1739983191843121400,1.757121337890625,0.11002665013074875,1.3801778554916382,2.3374862670898438
1739983191853103600,1.767103515625,0.7145186066627502,1.6391602754592896,2.545454502105713
1739983191863085600,1.77708544921875,1.1884803771972656,2.0667004585266113,2.3909738063812256
1739983191873068500,1.787068603515625,1.4930977821350098,2.424772024154663,2.0280513763427734
1739983191883050800,1.79705078125,1.6632977724075317,2.5672292709350586,1.6169639825820923
1739983191893032400,1.807032470703125,1.813450574874878,2.415733575820923,1.2116641998291016
1739983191903014700,1.8170146484375,1.9602506160736084,1.9931340217590332,0.7945146560668945
1739983191912996600,1.82699658203125,2.005309820175171,1.4292008876800537,0.3364173471927643
1739983191922979600,1.8369794921875,1.905137538909912,0.8263131380081177,-0.144596666097641
1739983191932961800,1.8469619140625,1.6622276306152344,0.23202338814735413,-0.6256235837936401
1739983191942943500,1.856943603515625,1.3279061317443848,-0.3123413622379303,-1.073789119720459
1739983191952925700,1.86692578125,0.9926087856292725,-0.7291733622550964,-1.4388198852539062
1739983191962907600,1.87690771484375,0.7177205085754395,-1.1008387804031372,-1.6409413814544678
1739983191972890600,1.886890625,0.5788244605064392,-1.3540340662002563,-1.6514074802398682
1739983191982872800,1.896872802734375,0.5338298082351685,-1.4673014879226685,-1.4626902341842651
1739983191992854500,1.9068544921875,0.6258228421211243,-1.5438092947006226,-1.092760682106018
1739983192002836700,1.916836669921875,0.8553242087364197,-1.5544267892837524,-0.5493045449256897
1739983192012818700,1.926818603515625,1.1978360414505005,-1.5149883031845093,0.11362504214048386
1739983192022801700,1.9368017578125,1.5902104377746582,-1.472855806350708,0.8656548261642456
1739983192032783600,1.94678369140625,1.9756190776824951,-1.4676940441131592,1.6484589576721191
1739983192042765600,1.956765625,2.374494791030884,-1.402862787246704,2.3846933841705322
1739983192052747800,1.966747802734375,2.794351816177368,-1.1989082098007202,3.0012874603271484
1739983192062729500,1.9767294921875,3.240269660949707,-0.8536916971206665,3.4845833778381348
1739983192072712700,1.986712646484375,3.692735433578491,-0.49163687229156494,3.849525213241577
1739983192082694700,1.996694580078125,4.097439289093018,-0.16128824651241302,4.111083030700684
1739983192092676600,2.006676513671875,4.469346046447754,0.16910912096500397,4.253508567810059
1739983192102658600,2.016658447265625,4.80211067199707,0.5925693511962891,4.265371799468994
1739983192112640500,2.026640625,5.092748641967773,1.1119236946105957,4.179364204406738
1739983192122623700,2.036623779296875,5.325078010559082,1.6097952127456665,4.028487682342529
1739983192132605400,2.04660546875,5.490268707275391,2.0095181465148926,3.846149444580078
1739983192142587600,2.056587646484375,5.583791732788086,2.3088650703430176,3.6056246757507324
1739983192152569600,2.066569580078125,5.609371185302734,2.4841737747192383,3.2774863243103027
1739983192162551600,2.076551513671875,5.559706687927246,2.521413803100586,2.842240810394287
1739983192172534800,2.08653466796875,5.382032871246338,2.34666109085083,2.346013069152832
1739983192182516500,2.0965166015625,5.062591552734375,1.910080075263977,1.8279505968093872
1739983192192498700,2.106498779296875,4.6204023361206055,1.3140618801116943,1.314421534538269
1739983192202480600,2.116480712890625,4.081883907318115,0.662553608417511,0.8578993082046509
1739983192212462600,2.126462646484375,3.4435622692108154,0.11419426649808884,0.4942520260810852
1739983192222445800,2.13644580078125,2.672407865524292,-0.21280090510845184,0.279645711183548
1739983192232427500,2.146427490234375,1.8913536071777344,-0.4447128474712372,0.2939986288547516
1739983192242409700,2.15640966796875,1.183364987373352,-0.6810979247093201,0.5481739044189453
1739983192252391700,2.1663916015625,0.5626873970031738,-0.8448795676231384,0.9689983129501343
1739983192262373600,2.17637353515625,0.09038776904344559,-0.9453036785125732,1.472084641456604
1739983192272356600,2.186356689453125,-0.2182597666978836,-0.9801805019378662,1.9797316789627075
1739983192282338600,2.196338623046875,-0.42958399653434753,-0.9026180505752563,2.4178626537323
1739983192292320800,2.20632080078125,-0.5764702558517456,-0.7544094920158386,2.752821683883667
1739983192302302700,2.216302734375,-0.7088706493377686,-0.5780184864997864,2.9580581188201904
1739983192312284700,2.22628466796875,-0.8942851424217224,-0.3668672740459442,3.002899646759033
1739983192322267600,2.236267578125,-1.164418339729309,-0.05048958957195282,2.8510706424713135
1739983192332249600,2.24624951171875,-1.4962987899780273,0.3806331753730774,2.4654362201690674
1739983192342231600,2.2562314453125,-1.832139015197754,0.8190783858299255,1.9329487085342407
1739983192352213500,2.266213623046875,-2.1574368476867676,1.1355165243148804,1.3970869779586792
1739983192362195700,2.27619580078125,-2.4655981063842773,1.2471210956573486,0.9492955803871155
1739983192372178400,2.286178466796875,-2.7458958625793457,1.2225362062454224,0.6218750476837158
1739983192382160600,2.29616064453125,-2.974083662033081,1.1389167308807373,0.35327473282814026
1739983192392142600,2.306142578125,-3.13639235496521,1.013607144355774,0.081759512424469
1739983192402124500,2.31612451171875,-3.2556960582733154,0.8221791386604309,-0.2157435417175293
1739983192412106500,2.3261064453125,-3.390043258666992,0.5652197003364563,-0.5749667882919312
1739983192422089500,2.33608935546875,-3.5624840259552,0.28554755449295044,-0.9760257601737976
1739983192432071700,2.34607177734375,-3.7166566848754883,0.030101772397756577,-1.385909080505371
1739983192442053600,2.3560537109375,-3.8157742023468018,-0.1604388803243637,-1.788495421409607
1739983192452035600,2.36603564453125,-3.8814244270324707,-0.3412557542324066,-2.1592047214508057
1739983192462018800,2.376018798828125,-3.9614555835723877,-0.539861798286438,-2.465733051300049
1739983192472000500,2.38600048828125,-4.059412479400635,-0.7541124224662781,-2.679396867752075
1739983192481982700,2.395982666015625,-4.176219463348389,-1.015791416168213,-2.8071837425231934
1739983192491964700,2.405964599609375,-4.307754993438721,-1.338847041130066,-2.880692481994629
1739983192501947400,2.415947509765625,-4.437713146209717,-1.6680006980895996,-2.944246292114258
1739983192511930400,2.425930419921875,-4.544032573699951,-1.9682174921035767,-3.0189409255981445
1739983192521912600,2.43591259765625,-4.591897964477539,-2.243692636489868,-3.119959592819214
1739983192531894500,2.44589453125,-4.5523176193237305,-2.4706413745880127,-3.2652482986450195
1739983192541876500,2.45587646484375,-4.474504470825195,-2.6077234745025635,-3.4394748210906982
1739983192551858400,2.4658583984375,-4.3889241218566895,-2.6046245098114014,-3.607863664627075
1739983192561841400,2.47584130859375,-4.334361553192139,-2.4709675312042236,-3.7166426181793213
1739983192571823600,2.48582373046875,-4.295774459838867,-2.2421274185180664,-3.7407665252685547
1739983192581805600,2.4958056640625,-4.225453853607178,-1.9334092140197754,-3.6765973567962646
1739983192591787500,2.50578759765625,-4.092432022094727,-1.5796749591827393,-3.5391132831573486
1739983192601769500,2.51576953125,-3.8657963275909424,-1.1559704542160034,-3.3557181358337402
1739983192611752400,2.52575244140625,-3.5300369262695312,-0.7487188577651978,-3.1784098148345947
1739983192621734700,2.535734619140625,-3.1341662406921387,-0.3785705864429474,-3.05928111076355
1739983192631715600,2.545715576171875,-2.7751481533050537,0.001211015973240137,-3.0058982372283936
1739983192641698600,2.555698486328125,-2.568080425262451,0.3925076723098755,-3.0326709747314453
1739983192651680500,2.565680419921875,-2.5108015537261963,0.6990255117416382,-3.0733907222747803
1739983192661662500,2.575662353515625,-2.535052537918091,0.8359647393226624,-3.0404539108276367
1739983192671644400,2.58564453125,-2.5344152450561523,0.7803024649620056,-2.9140427112579346
1739983192681626600,2.595626708984375,-2.456615447998047,0.5760356187820435,-2.7535409927368164
1739983192691609600,2.605609619140625,-2.3507590293884277,0.3585822880268097,-2.600721597671509
1739983192701591600,2.615591552734375,-2.256927728652954,0.239218071103096,-2.427480697631836
1739983192711573500,2.625573486328125,-2.195631504058838,0.21286308765411377,-2.1597037315368652
1739983192721555500,2.635555419921875,-2.118783950805664,0.20231005549430847,-1.7873668670654297
1739983192731537700,2.64553759765625,-2.0196499824523926,0.21456587314605713,-1.351811170578003
1739983192741520400,2.655520263671875,-1.9042198657989502,0.2788814902305603,-0.8880866169929504
1739983192751502600,2.665502685546875,-1.756319284439087,0.3582824170589447,-0.4037533402442932
1739983192761484300,2.675484375,-1.533649206161499,0.4344722628593445,0.0798998549580574
1739983192771466500,2.685466552734375,-1.256385087966919,0.49404627084732056,0.5168582797050476
1739983192781449500,2.695449462890625,-0.9833452701568604,0.5297118425369263,0.8552008867263794
1739983192791431400,2.705431396484375,-0.7114670276641846,0.6197051405906677,1.0940743684768677
1739983192801413600,2.71541357421875,-0.40589746832847595,0.7043039202690125,1.2635453939437866
1739983192811395300,2.725395263671875,-0.0942695215344429,0.7296921014785767,1.3690123558044434
1739983192821377500,2.73537744140625,0.18485426902770996,0.7114076018333435,1.4353338479995728
1739983192831360500,2.745360595703125,0.42883577942848206,0.6615629196166992,1.4935766458511353
1739983192841342500,2.755342529296875,0.6981806755065918,0.6603253483772278,1.5147881507873535
1739983192851324700,2.76532470703125,0.9455004930496216,0.41422536969184875,1.6232671737670898
1739983192861306400,2.775306396484375,1.233640193939209,0.27604296803474426,1.7570862770080566
1739983192871288600,2.78528857421875,1.5986541509628296,0.22983965277671814,1.9217193126678467
1739983192881271600,2.795271484375,2.057483673095703,0.3233339190483093,2.1111085414886475
1739983192891253500,2.80525341796875,2.602398633956909,0.48414427042007446,2.31518816947937
1739983192901235500,2.8152353515625,3.1453421115875244,0.6056326627731323,2.5175580978393555
1739983192911217400,2.825217529296875,3.6202385425567627,0.7300499677658081,2.628122329711914
1739983192921200600,2.83520068359375,3.958122730255127,0.765317440032959,2.688938617706299
1739983192931182300,2.845182373046875,4.1760172843933105,0.8230986595153809,2.6809566020965576
1739983192941164500,2.85516455078125,4.303543567657471,0.9028960466384888,2.6187682151794434
1739983192951146500,2.865146484375,4.370911121368408,0.9308650493621826,2.5370166301727295
1739983192961128400,2.87512841796875,4.424991130828857,0.9121805429458618,2.4411191940307617
1739983192971111400,2.885111328125,4.485335826873779,0.8445776104927063,2.3512468338012695
1739983192981093400,2.89509326171875,4.514413356781006,0.7314648628234863,2.275928497314453
1739983192991075600,2.90507568359375,4.489540100097656,0.602014422416687,2.2292323112487793
1739983193001057300,2.915057373046875,4.4459638595581055,0.47459763288497925,2.1960482597351074
1739983193011039500,2.92503955078125,4.406039714813232,0.32420629262924194,2.1582753658294678
1739983193021022500,2.9350224609375,4.384324550628662,0.17307773232460022,2.0886595249176025
1739983193031004400,2.94500439453125,4.360166549682617,0.011789651587605476,1.9869091510772705
1739983193040986600,2.954986572265625,4.348992824554443,-0.12377457320690155,1.8655353784561157
1739983193050968300,2.96496826171875,4.35248327255249,-0.20898094773292542,1.7472032308578491
1739983193060951600,2.97495166015625,4.3536248207092285,-0.24491578340530396,1.666712999343872
1739983193070933500,2.98493359375,4.343135833740234,-0.23629844188690186,1.621439814567566
1739983193080915500,2.99491552734375,4.336557388305664,-0.2098948061466217,1.6147135496139526
1739983193090897700,3.004897705078125,4.3643388748168945,-0.15924708545207977,1.6396676301956177
1739983193100879400,3.01487939453125,4.425856590270996,-0.05490816384553909,1.6820262670516968
1739983193110862600,3.024862548828125,4.494251251220703,0.09711409360170364,1.7400789260864258
1739983193120844500,3.034844482421875,4.555711269378662,0.24477837979793549,1.7951786518096924
1739983193130826500,3.044826416015625,4.599343776702881,0.40176692605018616,1.8367340564727783
1739983193140808700,3.05480859375,4.63055419921875,0.5549492835998535,1.8568168878555298
1739983193150791400,3.06479150390625,4.634277820587158,0.6799681782722473,1.8656415939331055
1739983193160773600,3.074773681640625,4.595344543457031,0.754340648651123,1.8591035604476929
1739983193170755300,3.08475537109375,4.4991278648376465,0.7829621434211731,1.811295986175537
1739983193180737500,3.094737548828125,4.3649373054504395,0.7861078977584839,1.7040441036224365
1739983193190719500,3.104719482421875,4.200869560241699,0.7667219638824463,1.5506858825683594
1739983193200702500,3.114702392578125,3.997627019882202,0.7507789731025696,1.356330156326294
1739983193210684400,3.124684326171875,3.767535448074341,0.7559484839439392,1.1474539041519165
1739983193220666400,3.134666259765625,3.519629716873169,0.7668544054031372,0.9375486969947815
1739983193230648600,3.144648681640625,3.236199378967285,0.7743910551071167,0.774764358997345
1739983193240630300,3.15463037109375,2.918499231338501,0.7695483565330505,0.6856504082679749
1739983193250613500,3.164613525390625,2.5478129386901855,0.796784520149231,0.6774953603744507
1739983193260595500,3.174595458984375,2.1681830883026123,0.8287594318389893,0.7317732572555542
1739983193270577400,3.184577392578125,1.7995262145996094,0.8203707933425903,0.8197065591812134
1739983193280559600,3.1945595703125,1.4237842559814453,0.7867244482040405,0.9277331829071045
1739983193290542600,3.20454248046875,1.052960991859436,0.7225542664527893,1.019181728363037
1739983193300524500,3.214524658203125,0.6511610746383667,0.6375821232795715,1.0648400783538818
1739983193310506500,3.224506591796875,0.20263533294200897,0.5494449138641357,1.0366790294647217
1739983193320488400,3.234488525390625,-0.30335143208503723,0.5151907801628113,0.9184485673904419
1739983193330470700,3.244470703125,-0.8373001217842102,0.4699617922306061,0.7385815382003784
1739983193340453400,3.254453369140625,-1.4013830423355103,0.3563236594200134,0.5210747718811035
1739983193350435600,3.264435546875,-1.922538161277771,0.13230839371681213,0.29368770122528076
1739983193360417500,3.27441748046875,-2.2876546382904053,-0.11346329003572464,0.10008867084980011
1739983193370399500,3.2843994140625,-2.4992825984954834,-0.34294652938842773,-0.01485628541558981
1739983193380382500,3.294382568359375,-2.6472065448760986,-0.5783808827400208,-0.0027934974059462547
1739983193390364400,3.304364501953125,-2.792788028717041,-0.6723337769508362,0.09991636127233505
1739983193400346600,3.3143466796875,-2.984070301055908,-0.753939688205719,0.23696422576904297
1739983193410328300,3.324328369140625,-3.2530643939971924,-0.7849279046058655,0.2929747998714447
1739983193420310500,3.334310546875,-3.5683462619781494,-0.8462463617324829,0.2389163374900818
1739983193430293500,3.34429345703125,-3.8822102546691895,-0.8990294933319092,0.09917725622653961
1739983193440275500,3.354275390625,-4.181072235107422,-0.9539745450019836,-0.06912094354629517
1739983193450257700,3.364257568359375,-4.419987678527832,-1.057180643081665,-0.22394637763500214
1739983193460239400,3.3742392578125,-4.575591564178467,-1.1983977556228638,-0.3501743674278259
1739983193470222600,3.38422265625,-4.6807379722595215,-1.4203318357467651,-0.4767068028450012
1739983193480204500,3.39420458984375,-4.792819976806641,-1.6974116563796997,-0.6319611072540283
1739983193490186500,3.4041865234375,-4.94657039642334,-1.9901059865951538,-0.8289446830749512
1739983193500168200,3.414168212890625,-5.124027729034424,-2.210113525390625,-1.0511305332183838
1739983193510150100,3.424150146484375,-5.273733615875244,-2.4035890102386475,-1.2751238346099854
1739983193520133000,3.434133056640625,-5.374543190002441,-2.548654556274414,-1.466630458831787
1739983193530115000,3.444114990234375,-5.427860260009766,-2.556764602661133,-1.594482660293579
1739983193540097300,3.45409716796875,-5.425361633300781,-2.4387643337249756,-1.629839539527893
1739983193550079200,3.464079345703125,-5.372204303741455,-2.230844497680664,-1.563562035560608
1739983193560062200,3.474062255859375,-5.263450622558594,-1.9416218996047974,-1.4007453918457031
1739983193570044200,3.484044189453125,-5.092194557189941,-1.623157024383545,-1.168405294418335
1739983193580026000,3.494026123046875,-4.867599010467529,-1.3179006576538086,-0.9049966931343079
1739983193590008000,3.504008056640625,-4.642878532409668,-1.0406192541122437,-0.6607310771942139
1739983193599990000,3.513989990234375,-4.434839248657227,-0.7813549637794495,-0.48957717418670654
1739983193609973200,3.52397314453125,-4.249059200286865,-0.5233049988746643,-0.43879520893096924
1739983193619955000,3.533954833984375,-4.063209533691406,-0.2863121032714844,-0.5081955790519714
1739983193629937200,3.543937255859375,-3.8744547367095947,-0.0873129740357399,-0.6520419716835022
1739983193639919000,3.553919189453125,-3.6808743476867676,0.03910914435982704,-0.8358919620513916
1739983193649901000,3.563901123046875,-3.492255449295044,0.05325239896774292,-1.0597881078720093
1739983193659884300,3.57388427734375,-3.309924602508545,0.0011987825855612755,-1.3112304210662842
1739983193669866000,3.583865966796875,-3.1425256729125977,-0.10496587306261063,-1.573451042175293
1739983193679848200,3.59384814453125,-2.991971015930176,-0.2698837220668793,-1.8026214838027954
1739983193689830100,3.603830078125,-2.8697798252105713,-0.46470728516578674,-1.958497405052185
1739983193699813000,3.613813232421875,-2.7684683799743652,-0.6445209980010986,-2.0633349418640137
1739983193709795300,3.62379541015625,-2.6698925495147705,-0.7631227374076843,-2.1931068897247314
1739983193719777000,3.633777099609375,-2.5677809715270996,-0.8557682633399963,-2.404599905014038
1739983193729759200,3.64375927734375,-2.4707133769989014,-0.8989736437797546,-2.6727402210235596
1739983193739741200,3.6537412109375,-2.414560317993164,-0.9031987190246582,-2.914515733718872
1739983193749724200,3.66372412109375,-2.4067306518554688,-0.8801305890083313,-3.0740809440612793
1739983193759706000,3.6737060546875,-2.4129133224487305,-0.8292993903160095,-3.126783609390259
1739983193769688000,3.68368798828125,-2.3665623664855957,-0.7483585476875305,-3.0608386993408203
1739983193779670300,3.693670166015625,-2.230813980102539,-0.6729402542114258,-2.893643856048584
1739983193789653000,3.703653076171875,-1.984269142150879,-0.6170182824134827,-2.6658542156219482
1739983193799635200,3.71363525390625,-1.6415868997573853,-0.555717945098877,-2.409827470779419
1739983193809617200,3.7236171875,-1.276111364364624,-0.48606088757514954,-2.1727256774902344
1739983193819599000,3.73359912109375,-0.9768210649490356,-0.36218369007110596,-1.9861122369766235
1739983193829581000,3.7435810546875,-0.7499986290931702,-0.2477739006280899,-1.8264422416687012
1739983193839564000,3.75356396484375,-0.5704813003540039,-0.20741449296474457,-1.6280652284622192
1739983193849546200,3.763546142578125,-0.40128010511398315,-0.27666187286376953,-1.3390998840332031
1739983193859528200,3.773528076171875,-0.20876097679138184,-0.4332429766654968,-0.9640730619430542
1739983193869510100,3.78351025390625,0.03736521676182747,-0.5826423764228821,-0.5021223425865173
1739983193879493000,3.7934931640625,0.3546542227268219,-0.6351439356803894,0.012440331280231476
1739983193889475000,3.80347509765625,0.813486635684967,-0.5916504263877869,0.5433365106582642
1739983193899457300,3.813457275390625,1.436905026435852,-0.5263004302978516,1.0597161054611206
1739983193909439000,3.82343896484375,2.1395792961120605,-0.4386219084262848,1.548617959022522
1739983193919421200,3.833421142578125,2.7959721088409424,-0.2978844940662384,1.997894287109375
1739983193929404000,3.84340380859375,3.3167409896850586,-0.09190282225608826,2.3794097900390625
1739983193939386000,3.85338623046875,3.6989896297454834,0.13529251515865326,2.6976473331451416
1739983193949369000,3.863369140625,3.966845750808716,0.4235415458679199,2.967700242996216
1739983193959351000,3.87335107421875,4.124712944030762,0.6615402698516846,3.1837422847747803
1739983193969333200,3.883333251953125,4.201639175415039,0.8601083755493164,3.3387742042541504
1739983193979315000,3.89331494140625,4.208479881286621,1.016383171081543,3.423776865005493
1739983193989298200,3.903298095703125,4.162741661071777,1.1125168800354004,3.4753353595733643
1739983193999280000,3.913280029296875,4.113810062408447,1.1107354164123535,3.557746171951294
1739983194009262000,3.923261962890625,4.086247444152832,0.9904570579528809,3.6698050498962402
1739983194019244300,3.933244384765625,4.06788969039917,0.8150516748428345,3.7914681434631348
1739983194029227000,3.94322705078125,4.074284076690674,0.6758989095687866,3.8827736377716064
1739983194039209200,3.953209228515625,4.13958740234375,0.6079755425453186,3.903921365737915
1739983194049191200,3.963191162109375,4.27032470703125,0.6281805038452148,3.816819906234741
1739983194059173000,3.973173095703125,4.426326751708984,0.7107819318771362,3.6288132667541504
1739983194069155300,3.9831552734375,4.555918216705322,0.8527610301971436,3.39831280708313
1739983194079138000,3.993137939453125,4.629208564758301,1.0232473611831665,3.155832529067993
1739983194089120300,4.003120361328125,4.6629791259765625,1.2246605157852173,2.9528286457061768
1739983194099102000,4.01310205078125,4.681420803070068,1.4701544046401978,2.789151191711426
1739983194109084200,4.023084228515625,4.701032638549805,1.7357569932937622,2.648827314376831
1739983194119067100,4.033067138671875,4.723189830780029,1.9759533405303955,2.4862990379333496
1739983194129049000,4.043049072265625,4.753332138061523,2.183878183364868,2.2822625637054443
1739983194139031300,4.05303125,4.769893169403076,2.3694305419921875,2.028822183609009
1739983194149013000,4.063012939453125,4.75984525680542,2.514528512954712,1.739567756652832
1739983194158996200,4.072996337890625,4.718419075012207,2.605222702026367,1.4242345094680786
1739983194168978200,4.082978271484375,4.634113788604736,2.6160640716552734,1.102102518081665
1739983194178960100,4.092960205078125,4.510189533233643,2.590603828430176,0.7808133959770203
1739983194188942000,4.102942138671875,4.363362789154053,2.5190773010253906,0.47551417350769043
1739983194198924000,4.112924072265625,4.180447578430176,2.3957114219665527,0.20715488493442535
1739983194208907000,4.122906982421875,3.9573686122894287,2.2658300399780273,-0.0409533716738224
1739983194218889200,4.13288916015625,3.710092067718506,2.173468589782715,-0.3002200722694397
1739983194228871200,4.14287109375,3.455314874649048,2.1168508529663086,-0.5938206315040588
1739983194238853000,4.15285302734375,3.217475175857544,2.0533461570739746,-0.9107548594474792
1739983194248836000,4.162836181640625,2.980844020843506,1.9874168634414673,-1.2056528329849243
1739983194258818000,4.172818115234375,2.725534439086914,1.9073715209960938,-1.4194557666778564
1739983194268800000,4.182800048828125,2.4571125507354736,1.7786214351654053,-1.5480116605758667
1739983194278782200,4.1927822265625,2.2146270275115967,1.607530117034912,-1.635170578956604
1739983194288764200,4.20276416015625,1.9929499626159668,1.3935226202011108,-1.689987063407898
1739983194298747100,4.2127470703125,1.7798081636428833,1.1475192308425903,-1.679766297340393
1739983194308729000,4.22272900390625,1.5839531421661377,0.8791040778160095,-1.594710350036621
1739983194318711000,4.2327109375,1.3938782215118408,0.6322231888771057,-1.4471429586410522
1739983194328693200,4.242693359375,1.2042396068572998,0.394655704498291,-1.281006932258606
1739983194338675000,4.252675048828125,1.0011829137802124,0.1883925348520279,-1.1126669645309448
1739983194348657200,4.2626572265625,0.745837390422821,0.02186555229127407,-0.9524030685424805
1739983194358640000,4.27264013671875,0.41063061356544495,-0.11734559386968613,-0.8047723174095154
1739983194368622000,4.2826220703125,0.00530014093965292,-0.27366378903388977,-0.6755359768867493
1739983194378604300,4.292604248046875,-0.4494841396808624,-0.46020597219467163,-0.546811044216156
1739983194388586000,4.3025859375,-0.9407216906547546,-0.6569766998291016,-0.4290941059589386
1739983194398569200,4.3125693359375,-1.4384448528289795,-0.8459194898605347,-0.32948946952819824
1739983194408551200,4.32255126953125,-1.8982394933700562,-0.9973094463348389,-0.2616720497608185
1739983194418533000,4.332533203125,-2.272871732711792,-1.1035505533218384,-0.23498399555683136
1739983194428515000,4.34251513671875,-2.5652709007263184,-1.1984704732894897,-0.23794589936733246
1739983194438497000,4.3524970703125,-2.82049822807312,-1.274361252784729,-0.2519243061542511
1739983194448480300,4.362480224609375,-3.0807745456695557,-1.324344277381897,-0.2767731547355652
1739983194458462200,4.372462158203125,-3.3798115253448486,-1.3233373165130615,-0.31138333678245544
1739983194468444200,4.382444091796875,-3.732079267501831,-1.2788209915161133,-0.36556515097618103
1739983194478426000,4.392426025390625,-4.112916946411133,-1.1872795820236206,-0.45752570033073425
1739983194488409000,4.4024091796875,-4.492702007293701,-1.0742299556732178,-0.5792950391769409
1739983194498391000,4.41239111328125,-4.852161884307861,-0.9710090756416321,-0.7330438494682312
1739983194508372700,4.422372802734375,-5.149147033691406,-0.9022064805030823,-0.9015840291976929
1739983194518355000,4.43235498046875,-5.373936653137207,-0.8728818893432617,-1.0727853775024414
1739983194528338000,4.442337890625,-5.552348613739014,-0.8398002982139587,-1.2563761472702026
1739983194538320000,4.45231982421875,-5.717766761779785,-0.7501636147499084,-1.4150846004486084
1739983194548301800,4.4623017578125,-5.883956432342529,-0.609027087688446,-1.50184965133667
1739983194558283800,4.47228369140625,-6.042610168457031,-0.46735361218452454,-1.4715635776519775
1739983194568266000,4.482265869140625,-6.180798530578613,-0.44173920154571533,-1.3188813924789429
1739983194578249000,4.4922490234375,-6.311723232269287,-0.4975518584251404,-1.0660938024520874
1739983194588231000,4.50223095703125,-6.406828880310059,-0.596422553062439,-0.7515283823013306
1739983194598212900,4.512212890625,-6.446981906890869,-0.6700752377510071,-0.3905337452888489
1739983194608194800,4.52219482421875,-6.402571201324463,-0.6790801882743835,-0.03429599106311798
1739983194618177800,4.532177734375,-6.270218372344971,-0.6361494660377502,0.2762967646121979
1739983194628159700,4.54215966796875,-6.035289287567139,-0.5424978733062744,0.5467851758003235
1739983194638142000,4.552141845703125,-5.7018723487854,-0.3819829821586609,0.781287670135498
1739983194648124000,4.5621240234375,-5.31530237197876,-0.16855402290821075,0.9698033332824707
1739983194658107000,4.57210693359375,-4.919581413269043,0.08304253220558167,1.103215217590332
1739983194668088800,4.5820888671875,-4.554467678070068,0.3220517039299011,1.1623038053512573
1739983194678070800,4.59207080078125,-4.240330696105957,0.5076457858085632,1.133334755897522
1739983194688053000,4.602052978515625,-3.9819726943969727,0.6107805967330933,1.029394507408142
1739983194698034700,4.61203466796875,-3.7750139236450195,0.6401137113571167,0.8815922141075134
1739983194708018000,4.622017822265625,-3.589643955230713,0.5655704140663147,0.6972470283508301
1739983194717999900,4.631999755859375,-3.416635751724243,0.3871777653694153,0.46237912774086
1739983194727981800,4.64198193359375,-3.2527759075164795,0.12188209593296051,0.17617017030715942
1739983194737964000,4.651964111328125,-3.0697717666625977,-0.17361854016780853,-0.1635543704032898
1739983194747947000,4.661947021484375,-2.861510992050171,-0.44160449504852295,-0.5572599768638611
1739983194757929000,4.671928955078125,-2.635789632797241,-0.6301387548446655,-0.9679374694824219
1739983194767911000,4.681910888671875,-2.412081718444824,-0.7334817051887512,-1.33513605594635
1739983194777892900,4.691892822265625,-2.231680154800415,-0.8163150548934937,-1.606109857559204
1739983194787875800,4.701875732421875,-2.0980496406555176,-0.9555989503860474,-1.7594406604766846
1739983194797857800,4.71185791015625,-1.9946521520614624,-1.172556757926941,-1.8357855081558228
1739983194807839700,4.72183984375,-1.9007463455200195,-1.4156311750411987,-1.8549267053604126
1739983194817822000,4.731822021484375,-1.7949060201644897,-1.618693470954895,-1.8437765836715698
1739983194827805000,4.741804931640625,-1.6506617069244385,-1.7493048906326294,-1.8177846670150757
1739983194837787000,4.751786865234375,-1.433135747909546,-1.7882333993911743,-1.793333888053894
1739983194847768800,4.761768798828125,-1.1241683959960938,-1.753160834312439,-1.7449229955673218
1739983194857750800,4.771750732421875,-0.748117208480835,-1.6802631616592407,-1.6458311080932617
1739983194867732700,4.781732666015625,-0.35040801763534546,-1.646199107170105,-1.468367338180542
1739983194877715700,4.7917158203125,0.07040418684482574,-1.887891411781311,-1.1140233278274536
1739983194887698000,4.801697998046875,0.32053324580192566,-1.637162208557129,-0.7792235016822815
1739983194897680000,4.811679931640625,0.5150135159492493,-1.4219952821731567,-0.4136607050895691
1739983194907661800,4.821661865234375,0.7401562333106995,-1.2428805828094482,0.0012225944083184004
1739983194917645000,4.83164501953125,1.0293926000595093,-1.0439025163650513,0.44822272658348083
1739983194927626800,4.841626708984375,1.409867286682129,-0.8233176469802856,0.8706357479095459
1739983194937609000,4.85160888671875,1.871302843093872,-0.5203876495361328,1.1810871362686157
1739983194947591000,4.8615908203125,2.3946659564971924,-0.10218248516321182,1.352443814277649
1739983194957574000,4.871573974609375,2.927651882171631,0.3796190321445465,1.424304485321045
1739983194967555800,4.881555908203125,3.3920674324035645,0.8554508090019226,1.4404385089874268
1739983194977537800,4.891537841796875,3.771968126296997,1.2718850374221802,1.428237795829773
1739983194987520000,4.90152001953125,4.048123836517334,1.5922338962554932,1.4193148612976074
1739983194997502700,4.911502685546875,4.214110374450684,1.8001295328140259,1.4264758825302124
1739983195007485000,4.92148486328125,4.292510509490967,1.89622962474823,1.44021475315094
1739983195017467000,4.931466796875,4.320065498352051,1.9058806896209717,1.4566597938537598
1739983195027448800,4.94144873046875,4.313297271728516,1.8300501108169556,1.466184377670288
1739983195037432000,4.95143212890625,4.2772216796875,1.6865108013153076,1.4264185428619385
1739983195047413800,4.961413818359375,4.229798316955566,1.492409586906433,1.3265225887298584
1739983195057396000,4.97139599609375,4.206023693084717,1.3082118034362793,1.1868160963058472
1739983195067378000,4.9813779296875,4.179028034210205,1.152902364730835,0.9943742752075195
1739983195077359900,4.99135986328125,4.154790878295898,0.9765507578849792,0.7837437987327576
1739983195087343000,5.001343017578125,4.157983303070068,0.754364013671875,0.602475643157959
1739983195097324800,5.01132470703125,4.201082706451416,0.580367922782898,0.4902668595314026
1739983195107307000,5.02130712890625,4.265152454376221,0.49942606687545776,0.4608997404575348
1739983195117288700,5.031288818359375,4.357741832733154,0.4509190022945404,0.5069960951805115
1739983195127272000,5.04127197265625,4.450518608093262,0.4111103117465973,0.5596627593040466
1739983195137254000,5.05125390625,4.55009126663208,0.4086197316646576,0.5866166353225708
1739983195147235800,5.06123583984375,4.648250102996826,0.4715768098831177,0.5746864080429077
1739983195157218000,5.071218017578125,4.718552112579346,0.568838357925415,0.5217838287353516
1739983195167200800,5.08120068359375,4.765024185180664,0.6281850934028625,0.42548105120658875
1739983195177183000,5.091182861328125,4.79818058013916,0.6527583599090576,0.2974466383457184
1739983195187164700,5.10116455078125,4.8028340339660645,0.6642712950706482,0.15869975090026855
1739983195197147000,5.11114697265625,4.781404495239258,0.6961384415626526,0.028820587322115898
1739983195207129900,5.1211298828125,4.724002838134766,0.7112918496131897,-0.0857091024518013
1739983195217111800,5.13111181640625,4.6247100830078125,0.6932942271232605,-0.15736837685108185
1739983195227094000,5.141093994140625,4.4932379722595215,0.6433219313621521,-0.16625231504440308
1739983195237075700,5.15107568359375,4.353200435638428,0.5828127861022949,-0.13875038921833038
1739983195247058000,5.161057861328125,4.194668769836426,0.509562611579895,-0.09495976567268372
1739983195257041000,5.171041015625,4.022928714752197,0.4324457049369812,-0.05333348736166954
1739983195267022800,5.18102294921875,3.8281047344207764,0.3808222711086273,-0.02641291357576847
1739983195277005000,5.191005126953125,3.6075961589813232,0.3369714617729187,-0.014451060444116592
1739983195286987800,5.20098779296875,3.3617236614227295,0.29162296652793884,-0.024180566892027855
1739983195296970000,5.210969970703125,3.0792105197906494,0.23563000559806824,-0.03836456313729286
1739983195306951700,5.22095166015625,2.7747766971588135,0.1647343635559082,-0.05099690705537796
1739983195316934000,5.230933837890625,2.461721181869507,0.08428426831960678,-0.06856338679790497
1739983195326916000,5.240916015625,2.1500983238220215,0.012961853295564651,-0.10396938771009445
1739983195336898800,5.25089892578125,1.8712260723114014,-0.022283485159277916,-0.15859268605709076
1739983195346881000,5.260881103515625,1.6458656787872314,0.002310291863977909,-0.2149844467639923
1739983195356862700,5.27086279296875,1.4522863626480103,0.062176819890737534,-0.25304073095321655
1739983195366845000,5.280844970703125,1.225014567375183,0.07450494915246964,-0.28216370940208435
1739983195376828000,5.290827880859375,0.9337614178657532,0.03367149829864502,-0.3211633265018463
1739983195386809900,5.300809814453125,0.5455467104911804,-0.01814165525138378,-0.3544430136680603
1739983195396791800,5.310791748046875,0.08737008273601532,-0.05682114139199257,-0.3993545472621918
1739983195406773800,5.320773681640625,-0.4068951904773712,-0.0869637280702591,-0.46555450558662415
1739983195416757000,5.330757080078125,-0.9376813173294067,-0.13629452884197235,-0.5518829822540283
1739983195426739000,5.340739013671875,-1.4852683544158936,-0.21359345316886902,-0.6345908641815186
1739983195436721000,5.350720947265625,-2.0240979194641113,-0.30442509055137634,-0.7002729177474976
1739983195446702800,5.360702880859375,-2.4947316646575928,-0.374077707529068,-0.7404770255088806
1739983195456685800,5.370685791015625,-2.85665225982666,-0.424212783575058,-0.7450510263442993
1739983195466667800,5.380667724609375,-3.121351957321167,-0.46152353286743164,-0.7215501666069031
1739983195476649700,5.390649658203125,-3.328774929046631,-0.48548585176467896,-0.6699668765068054
1739983195486632000,5.4006318359375,-3.492105722427368,-0.4740820527076721,-0.6056955456733704
1739983195496615000,5.410614990234375,-3.6612915992736816,-0.4450083374977112,-0.5586449503898621
1739983195506596900,5.420596923828125,-3.8666012287139893,-0.38355109095573425,-0.5167384743690491
1739983195516578800,5.430578857421875,-4.08594274520874,-0.3037436306476593,-0.47934186458587646
1739983195526560800,5.440560791015625,-4.28953742980957,-0.21307414770126343,-0.43947646021842957
1739983195536543700,5.450543701171875,-4.473018646240234,-0.10591015964746475,-0.39143651723861694
1739983195546526000,5.46052587890625,-4.6236653327941895,0.018288761377334595,-0.34838277101516724
1739983195556508000,5.4705078125,-4.719999313354492,0.1380521059036255,-0.3368212878704071
1739983195566489900,5.48048974609375,-4.754100322723389,0.19857200980186462,-0.35674431920051575
1739983195576472800,5.490472900390625,-4.740866661071777,0.20957964658737183,-0.41699299216270447
1739983195586454800,5.500454833984375,-4.701745510101318,0.20397132635116577,-0.48751747608184814
1739983195596437000,5.51043701171875,-4.645149230957031,0.19521191716194153,-0.5430678725242615
1739983195606419000,5.5204189453125,-4.564590930938721,0.26077568531036377,-0.5773108601570129
1739983195616402000,5.53040185546875,-4.440034866333008,0.2725609838962555,-0.5995053648948669
1739983195626384000,5.5403837890625,-4.388947010040283,0.22530147433280945,-0.47855344414711
1739983195636365800,5.55036572265625,-4.337324142456055,0.24991947412490845,-0.32441821694374084
1739983195646347800,5.56034765625,-4.266824722290039,0.19418030977249146,-0.10381493717432022
1739983195656330800,5.570330810546875,-4.138045310974121,0.03804503381252289,0.1447104513645172
1739983195666313000,5.58031298828125,-3.9595553874969482,-0.172970250248909,0.36873477697372437
1739983195676295000,5.590294921875,-3.744248151779175,-0.32561278343200684,0.553101658821106
1739983195686276900,5.60027685546875,-3.4710419178009033,-0.4255939722061157,0.6838710308074951
1739983195696260000,5.610260009765625,-3.159976005554199,-0.50312739610672,0.7326177954673767
1739983195706241800,5.62024169921875,-2.866942882537842,-0.5563271641731262,0.6781355738639832
1739983195716224000,5.63022412109375,-2.666611909866333,-0.50471431016922,0.48463135957717896
1739983195726206000,5.6402060546875,-2.5814931392669678,-0.3730151653289795,0.1781892478466034
1739983195736189000,5.65018896484375,-2.5945746898651123,-0.20065271854400635,-0.18496525287628174
1739983195746171000,5.6601708984375,-2.6338415145874023,-0.0965302363038063,-0.5399203300476074
1739983195756152800,5.67015283203125,-2.661003589630127,-0.096000537276268,-0.8387280702590942
1739983195766135000,5.680135009765625,-2.627694845199585,-0.22377461194992065,-1.0635732412338257
1739983195776117800,5.69011767578125,-2.5418429374694824,-0.4142993092536926,-1.2380279302597046
1739983195786100000,5.700099853515625,-2.4280223846435547,-0.5870811939239502,-1.3997360467910767
1739983195796081700,5.71008154296875,-2.33768630027771,-0.7106481194496155,-1.5953959226608276
1739983195806063900,5.72006396484375,-2.2944416999816895,-0.7204393148422241,-1.8203315734863281
1739983195816046800,5.730046875,-2.310840606689453,-0.6383753418922424,-2.0194568634033203
1739983195826028800,5.74002880859375,-2.3282668590545654,-0.5544194579124451,-2.1079657077789307
1739983195836011000,5.750010986328125,-2.3259987831115723,-0.5029242634773254,-2.0604586601257324
1739983195845992700,5.75999267578125,-2.2825865745544434,-0.4607846438884735,-1.9044945240020752
1739983195855976000,5.769975830078125,-2.1512842178344727,-0.36920809745788574,-1.709071397781372
1739983195865958000,5.7799580078125,-1.902397632598877,-0.2387056052684784,-1.5055125951766968
1739983195875939800,5.78993994140625,-1.5451794862747192,-0.13927435874938965,-1.3288096189498901
1739983195885922000,5.799922119140625,-1.1710021495819092,-0.10742256790399551,-1.2045691013336182
1739983195895904800,5.80990478515625,-0.8591437935829163,-0.10185043513774872,-1.1060097217559814
1739983195905887000,5.819886962890625,-0.611584484577179,-0.08559442311525345,-0.9826220273971558
1739983195915868700,5.82986865234375,-0.3911251127719879,-0.09796161204576492,-0.8171638250350952
1739983195925851000,5.839850830078125,-0.1733701229095459,-0.14248806238174438,-0.5796053409576416
1739983195935833900,5.849833740234375,0.06786112487316132,-0.18730135262012482,-0.2850290834903717
1739983195945815800,5.85981591796875,0.38438212871551514,-0.18070843815803528,0.028277084231376648
1739983195955798000,5.869798095703125,0.8308224678039551,-0.1067335307598114,0.31538155674934387
1739983195965779700,5.87977978515625,1.4157130718231201,0.025518052279949188,0.5333220362663269
1739983195975763000,5.889762939453125,2.0739524364471436,0.14476588368415833,0.7017586827278137
1739983195985745000,5.899744873046875,2.732828378677368,0.24905860424041748,0.8385148644447327
1739983195995726800,5.909726806640625,3.3126189708709717,0.3546886444091797,0.9668267965316772
1739983196005709000,5.919708984375,3.7688143253326416,0.457448810338974,1.097998857498169
1739983196015692000,5.929692138671875,4.083098888397217,0.5300811529159546,1.2224723100662231
1739983196025674000,5.939674072265625,4.260227680206299,0.5732877850532532,1.32977294921875
1739983196035656000,5.949656005859375,4.334608554840088,0.5833901762962341,1.407703161239624
1739983196045638000,5.959637939453125,4.336031436920166,0.5843838453292847,1.446999430656433
1739983196055620900,5.969620849609375,4.291920185089111,0.5884579420089722,1.4438116550445557
1739983196065602800,5.979602783203125,4.214518070220947,0.5896401405334473,1.4250130653381348
1739983196075584800,5.989584716796875,4.142195224761963,0.6156054139137268,1.4033756256103516
1739983196085568000,5.999568115234375,4.108249187469482,0.649019181728363,1.3953938484191895
1739983196095549700,6.0095498046875,4.127918243408203,0.6382088661193848,1.4240925312042236
1739983196105532000,6.019531982421875,4.194969654083252,0.5616537928581238,1.4963706731796265
1739983196115513900,6.029513916015625,4.28239631652832,0.43686315417289734,1.5799411535263062
1739983196125496800,6.039496826171875,4.37017297744751,0.303539901971817,1.6371238231658936
1739983196135479000,6.04947900390625,4.444304943084717,0.21937602758407593,1.65151846408844
1739983196145460700,6.059460693359375,4.487133979797363,0.18366903066635132,1.6167954206466675
1739983196155443000,6.06944287109375,4.492776870727539,0.17114365100860596,1.5145092010498047
1739983196165425700,6.07942578125,4.473704814910889,0.1965835839509964,1.3622839450836182
1739983196175407900,6.089407958984375,4.458673000335693,0.2948358356952667,1.189984679222107
1739983196185390000,6.09939013671875,4.442135810852051,0.4184773564338684,1.0132091045379639
1739983196195371800,6.109371826171875,4.434467315673828,0.49847498536109924,0.8318078517913818
1739983196205355000,6.11935498046875,4.424642562866211,0.5241886973381042,0.6547260880470276
1739983196215336700,6.129336669921875,4.394306659698486,0.5242984294891357,0.5035030245780945
1739983196225319000,6.13931884765625,4.337207794189453,0.5126359462738037,0.3821358382701874
1739983196235300900,6.14930078125,4.252089023590088,0.49688225984573364,0.2771569490432739
1739983196245283800,6.159283935546875,4.14372444152832,0.4923819303512573,0.19001129269599915
1739983196255266000,6.16926611328125,4.0118327140808105,0.4908199906349182,0.11464356631040573
1739983196265247700,6.179247802734375,3.845797538757324,0.46923041343688965,0.045756205916404724
1739983196275231000,6.18923095703125,3.64121675491333,0.40308040380477905,-0.029279423877596855
1739983196285213000,6.199212890625,3.407005786895752,0.3269871771335602,-0.10834576189517975
1739983196295195000,6.20919482421875,3.1401219367980957,0.2638702690601349,-0.2004208266735077
1739983196305177000,6.219177001953125,2.848353862762451,0.22809118032455444,-0.3069114685058594
1739983196315159800,6.229159912109375,2.533928155899048,0.21483981609344482,-0.41985106468200684
1739983196325142000,6.23914208984375,2.214021682739258,0.21093545854091644,-0.5411619544029236
1739983196335123700,6.249123779296875,1.9064373970031738,0.1842798888683319,-0.6483254432678223
1739983196345106000,6.25910595703125,1.6284373998641968,0.1553567498922348,-0.7336154580116272
1739983196355089000,6.2690888671875,1.3708621263504028,0.1399860382080078,-0.7796964049339294
1739983196365070800,6.27907080078125,1.1316635608673096,0.14357328414916992,-0.7982264161109924
1739983196375053000,6.289052978515625,0.907127320766449,0.14024700224399567,-0.8027620911598206
1739983196385034800,6.29903466796875,0.689606249332428,0.09375090152025223,-0.799026608467102
1739983196395018000,6.30901806640625,0.44671106338500977,-0.007272652816027403,-0.8043055534362793
1739983196405000000,6.319,0.14807191491127014,-0.11811965703964233,-0.8125818967819214
1739983196414982000,6.32898193359375,-0.21891248226165771,-0.20818696916103363,-0.8237237930297852
1739983196424963800,6.3389638671875,-0.6323004364967346,-0.28878486156463623,-0.8440435528755188
1739983196434946800,6.34894677734375,-1.0699124336242676,-0.3647986650466919,-0.8878768086433411
1739983196444928800,6.3589287109375,-1.4932457208633423,-0.4340483248233795,-0.9421125054359436
1739983196454911000,6.368910888671875,-1.868804693222046,-0.48501908779144287,-0.9752286076545715
1739983196464893700,6.378893798828125,-2.1519384384155273,-0.5197532773017883,-0.9695799946784973
1739983196474876000,6.3888759765625,-2.3327767848968506,-0.5613813996315002,-0.911095917224884
1739983196484857900,6.39885791015625,-2.448378324508667,-0.6382659673690796,-0.7974704504013062
1739983196494839800,6.40883984375,-2.5540904998779297,-0.752410888671875,-0.6499102711677551
1739983196504823800,6.41882373046875,-2.696552038192749,-0.8866927623748779,-0.49011602997779846
1739983196514805500,6.428805419921875,-2.8693954944610596,-0.9829822778701782,-0.3431079387664795
1739983196524787700,6.43878759765625,-3.047067165374756,-1.0529192686080933,-0.22698292136192322
1739983196534769400,6.448769287109375,-3.201051712036133,-1.094722867012024,-0.14312291145324707
1739983196544752600,6.458752685546875,-3.290414571762085,-1.1350617408752441,-0.09197147935628891
1739983196554734600,6.468734619140625,-3.2626214027404785,-1.2656714916229248,-0.0676879808306694
1739983196564716500,6.478716552734375,-3.1802945137023926,-1.4603856801986694,-0.07949287444353104
1739983196574698800,6.48869873046875,-3.1529412269592285,-1.5322459936141968,-0.13424241542816162
1739983196584681500,6.498681396484375,-3.207890510559082,-1.4242284297943115,-0.24144305288791656
1739983196594663700,6.50866357421875,-3.311084747314453,-1.197941780090332,-0.3949598968029022
1739983196604645600,6.518645751953125,-3.3896987438201904,-0.9254809021949768,-0.5711760520935059
1739983196614628600,6.528628662109375,-3.399871826171875,-0.6728971004486084,-0.7407352924346924
1739983196624610600,6.538610595703125,-3.3304100036621094,-0.49395430088043213,-0.8911228775978088
1739983196634592500,6.548592529296875,-3.220219373703003,-0.34733688831329346,-1.014897346496582
1739983196644574700,6.55857470703125,-3.11436128616333,-0.21551525592803955,-1.0950665473937988
1739983196654557700,6.5685576171875,-3.029468059539795,-0.1332041472196579,-1.1165121793746948
1739983196664539600,6.57853955078125,-2.9875099658966064,-0.11076577752828598,-1.0896894931793213
1739983196674521600,6.588521484375,-2.9989795684814453,-0.10040554404258728,-1.0231624841690063
1739983196684503600,6.598503662109375,-3.0299630165100098,-0.07310433685779572,-0.9207585453987122
1739983196694486500,6.608486572265625,-3.0371782779693604,-0.006299207918345928,-0.7979820370674133
1739983196704468700,6.61846875,-3.0376193523406982,0.12756632268428802,-0.6649371981620789
1739983196714450700,6.62845068359375,-3.0400707721710205,0.294612318277359,-0.5336188673973083
1739983196724432600,6.6384326171875,-3.056156873703003,0.44324374198913574,-0.4474102556705475
1739983196734415600,6.64841552734375,-3.010159730911255,0.5653703808784485,-0.4064881205558777
1739983196744397600,6.6583974609375,-2.8718693256378174,0.6016408205032349,-0.4061211347579956
1739983196754379500,6.668379638671875,-2.690913677215576,0.5497448444366455,-0.45135679841041565
1739983196764361700,6.67836181640625,-2.536942720413208,0.4416412115097046,-0.5276176333427429
1739983196774344700,6.6883447265625,-2.4672813415527344,0.3328324556350708,-0.6378626227378845
1739983196784326700,6.69832666015625,-2.4857876300811768,0.27793198823928833,-0.7887131571769714
1739983196794308600,6.70830859375,-2.557664632797241,0.26265475153923035,-0.9643451571464539
1739983196804291800,6.718291748046875,-2.631650924682617,0.24644321203231812,-1.1700359582901
1739983196814273500,6.7282734375,-2.6910228729248047,0.21194088459014893,-1.3826267719268799
1739983196824255700,6.738255859375,-2.7242391109466553,0.19047056138515472,-1.5673115253448486
1739983196834237700,6.74823779296875,-2.7116968631744385,0.1375788450241089,-1.6699947118759155
1739983196844220700,6.758220703125,-2.672449827194214,0.059746816754341125,-1.7305898666381836
1739983196854202600,6.76820263671875,-2.625645160675049,0.014225402846932411,-1.7551428079605103
1739983196864184600,6.7781845703125,-2.5502026081085205,-0.013710740953683853,-1.771295189857483
1739983196874166800,6.788166748046875,-2.4108502864837646,-0.06196695193648338,-1.7882877588272095
1739983196884149500,6.7981494140625,-2.1795339584350586,-0.16805557906627655,-1.8143982887268066
1739983196894131700,6.808131591796875,-1.8566333055496216,-0.2768249213695526,-1.8421084880828857
1739983196904113400,6.818113525390625,-1.4907900094985962,-0.3080570697784424,-1.862735629081726
1739983196914096600,6.8280966796875,-1.1325231790542603,-0.275625079870224,-1.8335402011871338
1739983196924078600,6.83807861328125,-0.7974169850349426,-0.2791498601436615,-1.7190061807632446
1739983196934060500,6.848060546875,-0.5000598430633545,-0.36489245295524597,-1.506469964981079
1739983196944042800,6.858042724609375,-0.2443026751279831,-0.49610093235969543,-1.2087684869766235
1739983196954025700,6.868025634765625,-0.013811945915222168,-0.6277715563774109,-0.8477684855461121
1739983196964007700,6.878007568359375,0.20811262726783752,-0.7436504364013672,-0.4553854465484619
1739983196973989600,6.88798974609375,0.49099117517471313,-0.8347572088241577,-0.055033497512340546
1739983196983971600,6.8979716796875,0.8777392506599426,-0.8655245900154114,0.3359695076942444
1739983196993954600,6.90795458984375,1.3069387674331665,-0.8130506873130798,0.7066360116004944
1739983197003936500,6.9179365234375,1.7455168962478638,-0.667396068572998,1.0612988471984863
1739983197013918700,6.927918701171875,2.167546510696411,-0.43252360820770264,1.3560444116592407
1739983197023901700,6.937901611328125,2.54730486869812,-0.16701653599739075,1.6092697381973267
1739983197033883600,6.947883544921875,2.878113031387329,0.06451363116502762,1.8275541067123413
1739983197043865600,6.957865478515625,3.1513922214508057,0.20645098388195038,2.0101046562194824
1739983197053847600,6.96784765625,3.36663818359375,0.27280285954475403,2.1579630374908447
1739983197063830500,6.97783056640625,3.503931999206543,0.3123636543750763,2.2627975940704346
1739983197073812700,6.987812744140625,3.567420721054077,0.3355845510959625,2.3236026763916016
1739983197083794700,6.997794677734375,3.5756499767303467,0.3507477939128876,2.34179425239563
1739983197093776600,7.007776611328125,3.5470101833343506,0.3556133806705475,2.3172123432159424
1739983197103759600,7.017759521484375,3.5122745037078857,0.3758927583694458,2.2592883110046387
1739983197113741600,7.027741455078125,3.5084571838378906,0.39490002393722534,2.1717617511749268
1739983197123723800,7.037723876953125,3.5393929481506348,0.38805824518203735,2.064626693725586
1739983197133705700,7.047705810546875,3.590625762939453,0.33608877658843994,1.932883620262146
1739983197143688700,7.057688720703125,3.6494638919830322,0.23752835392951965,1.7767589092254639
1739983197153670700,7.067670654296875,3.696404218673706,0.14505301415920258,1.581865906715393
1739983197163652600,7.077652587890625,3.731410264968872,0.08949296921491623,1.373474359512329
1739983197173635800,7.0876357421875,3.770893096923828,0.025263382121920586,1.1557703018188477
1739983197183617500,7.097617431640625,3.799586772918701,-0.06495973467826843,0.9581837058067322
1739983197193599700,7.107599853515625,3.8188717365264893,-0.12787984311580658,0.8198192119598389
1739983197203581700,7.117581787109375,3.8423333168029785,-0.12753291428089142,0.7446248531341553
1739983197213564700,7.127564697265625,3.8836984634399414,-0.08811173588037491,0.7306698560714722
1739983197223546600,7.137546630859375,3.9513394832611084,-0.021294239908456802,0.7547447681427002
1739983197233528600,7.147528564453125,4.023512840270996,0.05253923684358597,0.7930862903594971
1739983197243510800,7.1575107421875,4.074413299560547,0.11917123943567276,0.8175655603408813
1739983197253493500,7.167493408203125,4.099305629730225,0.17851951718330383,0.8253212571144104
1739983197263475700,7.177475830078125,4.097724914550781,0.23788195848464966,0.8212571144104004
1739983197273457400,7.18745751953125,4.073266506195068,0.2770474851131439,0.817409098148346
1739983197283440600,7.197440673828125,4.027957916259766,0.2709057033061981,0.8202198147773743
1739983197293422600,7.207422607421875,3.9473466873168945,0.241879403591156,0.8212286233901978
1739983197303404500,7.217404541015625,3.8422296047210693,0.22596429288387299,0.8164398074150085
1739983197313386800,7.22738671875,3.710681676864624,0.227403461933136,0.7949017882347107
1739983197323369700,7.23736962890625,3.5527443885803223,0.24115118384361267,0.7541883587837219
1739983197333351700,7.2473515625,3.3632845878601074,0.24748709797859192,0.6791543364524841
1739983197343333600,7.257333740234375,3.1341233253479004,0.2545948922634125,0.5568752884864807
1739983197353315600,7.267315673828125,2.8652713298797607,0.26224321126937866,0.3915150761604309
1739983197363298600,7.277298583984375,2.5650441646575928,0.2766893804073334,0.17579779028892517
1739983197373280500,7.287280517578125,2.268158197402954,0.30108100175857544,-0.07945342361927032
1739983197383262700,7.2972626953125,1.992537498474121,0.3238762617111206,-0.3599011301994324
1739983197393245700,7.30724560546875,1.7242534160614014,0.3222234845161438,-0.620156466960907
1739983197403227600,7.3172275390625,1.4430732727050781,0.2892898619174957,-0.8292479515075684
1739983197413209600,7.327209716796875,1.131494402885437,0.23379969596862793,-0.9422080516815186
1739983197423191600,7.337191650390625,0.7963854074478149,0.1689918339252472,-0.9715179204940796
1739983197433174500,7.347174560546875,0.4509150981903076,0.09197453409433365,-0.9245187044143677
1739983197443156700,7.35715673828125,0.09768784046173096,0.02021639794111252,-0.8461742401123047
1739983197453138700,7.367138671875,-0.26954659819602966,-0.03194454312324524,-0.7790296077728271
1739983197463120600,7.37712060546875,-0.6437444686889648,-0.024017581716179848,-0.7515448331832886
1739983197473103600,7.387103515625,-1.0229954719543457,0.061694927513599396,-0.7722194790840149
1739983197483085600,7.39708544921875,-1.4168920516967773,0.1966831237077713,-0.822712242603302
1739983197493067800,7.40706787109375,-1.8147879838943481,0.34347203373908997,-0.8772662878036499
1739983197503049700,7.4170498046875,-2.1933443546295166,0.41577601432800293,-0.8817036151885986
1739983197513031700,7.42703173828125,-2.535747766494751,0.3918323218822479,-0.8368716835975647
1739983197523014000,7.437013916015625,-2.8297319412231445,0.30330976843833923,-0.7401291131973267
1739983197532995600,7.44699560546875,-3.0603699684143066,0.20158635079860687,-0.6143503785133362
1739983197542978800,7.456978759765625,-3.22151517868042,0.13110311329364777,-0.47813349962234497
1739983197552960500,7.46696044921875,-3.3322885036468506,0.12089867144823074,-0.3420417010784149
1739983197562942700,7.476942626953125,-3.4112679958343506,0.17364849150180817,-0.21396097540855408
1739983197572925000,7.486925048828125,-3.4790663719177246,0.26897740364074707,-0.10414872318506241
1739983197582907600,7.49690771484375,-3.547611713409424,0.37283483147621155,-0.027560129761695862
1739983197592889900,7.506889892578125,-3.6235523223876953,0.49122193455696106,-0.0015045615145936608
1739983197602871600,7.51687158203125,-3.7208564281463623,0.6251052618026733,0.011773517355322838
1739983197612854800,7.526854736328125,-3.820465326309204,0.7197657227516174,0.030040670186281204
1739983197622836700,7.536836669921875,-3.9125542640686035,0.7274903655052185,0.0636218935251236
1739983197632818700,7.546818603515625,-3.9768636226654053,0.6384856700897217,0.10028909146785736
1739983197642801000,7.55680078125,-4.017218112945557,0.47346746921539307,0.12538760900497437
1739983197652783900,7.566783935546875,-4.017509937286377,0.25662967562675476,0.09623052924871445
1739983197662765800,7.576765869140625,-3.9885194301605225,0.03369848430156708,0.008394777774810791
1739983197672747800,7.586747802734375,-3.965139627456665,-0.12399740517139435,-0.12463730573654175
1739983197682729700,7.596729736328125,-3.9461281299591064,-0.20005536079406738,-0.2687534689903259
1739983197692712700,7.606712646484375,-3.9193270206451416,-0.22208157181739807,-0.3801977038383484
1739983197702694700,7.616694580078125,-3.9036307334899902,-0.2024436742067337,-0.42093998193740845
1739983197712676900,7.6266767578125,-3.8896448612213135,-0.132315993309021,-0.3901999294757843
1739983197722659800,7.636659912109375,-3.8575804233551025,-0.05866340547800064,-0.3069858253002167
1739983197732641800,7.646641845703125,-3.788642168045044,-0.03841512277722359,-0.19367016851902008
1739983197742623700,7.656623779296875,-3.6943366527557373,-0.02844052016735077,-0.081710085272789
1739983197752605700,7.666605712890625,-3.5859148502349854,-0.010324368253350258,0.014753074385225773
1739983197762588700,7.676588623046875,-3.4537463188171387,0.010302922688424587,0.05210638791322708
1739983197772571000,7.68657080078125,-3.302891731262207,0.020082581788301468,-0.013499520719051361
1739983197782552800,7.696552734375,-3.1652674674987793,0.05962357670068741,-0.1711350977420807
1739983197792534800,7.70653466796875,-3.0601463317871094,0.16488954424858093,-0.4078909456729889
1739983197802517800,7.716517822265625,-2.983661413192749,0.24683427810668945,-0.6431538462638855
1739983197812499700,7.726499755859375,-2.9390554428100586,0.2445240020751953,-0.8265947699546814
1739983197822482000,7.73648193359375,-2.927341938018799,0.18117858469486237,-0.9506102204322815
1739983197832464600,7.746464599609375,-2.940370559692383,0.09555768966674805,-1.03334641456604
1739983197842446800,7.75644677734375,-2.947111129760742,-0.008037567138671875,-1.0724378824234009
1739983197852428800,7.7664287109375,-2.9107179641723633,-0.10333985090255737,-1.0575729608535767
1739983197862410800,7.77641064453125,-2.824934720993042,-0.17003723978996277,-0.9631704688072205
1739983197872393700,7.786393798828125,-2.70759916305542,-0.21292558312416077,-0.8169882297515869
1739983197882375700,7.796375732421875,-2.5858840942382812,-0.2053695023059845,-0.6474062204360962
1739983197892358000,7.80635791015625,-2.4877936840057373,-0.13307878375053406,-0.47000962495803833
1739983197902339600,7.816339599609375,-2.4134087562561035,0.01585995778441429,-0.2812148332595825
1739983197912322800,7.82632275390625,-2.3437182903289795,0.2373524010181427,-0.06789377331733704
1739983197922304800,7.8363046875,-2.2350637912750244,0.5083106756210327,0.1884477436542511
1739983197932286700,7.84628662109375,-2.0561981201171875,0.7516791224479675,0.49737682938575745
1739983197942269000,7.85626904296875,-1.7954014539718628,0.8982155919075012,0.8400840759277344
1739983197952251600,7.866251708984375,-1.461692452430725,0.9307839274406433,1.1460455656051636
1739983197962233900,7.87623388671875,-1.0740060806274414,0.9037157893180847,1.3543540239334106
1739983197972216800,7.886216796875,-0.6363086104393005,0.845424234867096,1.4321483373641968
1739983197982198800,7.89619873046875,-0.1908969134092331,0.7231298089027405,1.388533592224121
1739983197992180700,7.9061806640625,0.18905389308929443,0.5235708951950073,1.2379448413848877
1739983198002163700,7.916163818359375,0.466604083776474,0.2915804386138916,1.0237069129943848
1739983198012145700,7.926145751953125,0.6404088735580444,0.053064290434122086,0.7925541400909424
1739983198022127900,7.9361279296875,0.7574176788330078,-0.2198893129825592,0.5751810073852539
1739983198032109800,7.94610986328125,0.8822043538093567,-0.43203404545783997,0.3935701549053192
1739983198042092800,7.9560927734375,1.026771903038025,-0.5993039011955261,0.25954657793045044
1739983198052074800,7.96607470703125,1.2581579685211182,-0.6077226400375366,0.18135805428028107
1739983198062056700,7.976056640625,1.571698546409607,-0.44859054684638977,0.130142942070961
1739983198072038700,7.98603857421875,1.943490743637085,-0.19468504190444946,0.09143177419900894
1739983198082021600,7.996021728515625,2.3183341026306152,0.10018111765384674,0.07083319872617722
1739983198092003800,8.00600390625,2.643094778060913,0.4165276288986206,0.08250396698713303
1739983198101985800,8.01598583984375,2.8858039379119873,0.6940538287162781,0.11086263507604599
1739983198111968800,8.02596875,3.0306546688079834,0.8928943872451782,0.15822885930538177
1739983198121951000,8.035950927734374,3.0845344066619873,1.0292373895645142,0.22181138396263123
1739983198131932700,8.0459326171875,3.090641736984253,1.1269570589065552,0.2931468188762665
1739983198141915000,8.055914794921875,3.0882225036621094,1.2001219987869263,0.36277204751968384
1739983198151897600,8.065897705078125,3.115750312805176,1.2366069555282593,0.43755629658699036
1739983198161879800,8.0758798828125,3.177783966064453,1.2453864812850952,0.5080358386039734
1739983198171861800,8.08586181640625,3.250251293182373,1.229660987854004,0.579870343208313
1739983198181843700,8.09584375,3.355926990509033,1.1704914569854736,0.6468846201896667
1739983198191827000,8.105826904296874,3.515439033508301,1.0797373056411743,0.6903692483901978
1739983198201808600,8.11580859375,3.7141947746276855,0.9251530170440674,0.6912106871604919
1739983198211790800,8.125790771484375,3.9057281017303467,0.6896741390228271,0.632178008556366
1739983198221773800,8.13577392578125,4.049259185791016,0.45546311140060425,0.5134615898132324
1739983198231755800,8.145755859375,4.106032371520996,0.2983773648738861,0.3404163420200348
1739983198241737700,8.15573779296875,4.104935169219971,0.22683925926685333,0.12914909422397614
1739983198251719700,8.1657197265625,4.069483280181885,0.22390897572040558,-0.10132406651973724
1739983198261702700,8.17570263671875,4.02814245223999,0.2709379196166992,-0.3083726763725281
1739983198271684600,8.1856845703125,4.000052452087402,0.34399375319480896,-0.4602935016155243
1739983198281666800,8.195666748046875,4.000023365020752,0.40809112787246704,-0.5510215163230896
1739983198291648800,8.205648681640625,4.015201091766357,0.4368886947631836,-0.5947325229644775
1739983198301631700,8.2156318359375,4.042870998382568,0.4140320420265198,-0.6138468384742737
1739983198311613700,8.22561376953125,4.057743072509766,0.35348746180534363,-0.6293504238128662
1739983198321595600,8.235595703125,4.060967445373535,0.28572893142700195,-0.651832640171051
1739983198331577900,8.245577880859376,4.039200782775879,0.2469884604215622,-0.6887475252151489
1739983198341560800,8.255560791015625,3.987917900085449,0.24126137793064117,-0.7425141334533691
1739983198351542800,8.265542724609375,3.8964507579803467,0.2693313658237457,-0.8113017082214355
1739983198361524700,8.275524658203125,3.7717885971069336,0.3077407479286194,-0.8886290788650513
1739983198371506700,8.285506591796874,3.616981267929077,0.32505154609680176,-0.9601389169692993
1739983198381489700,8.29548974609375,3.4258689880371094,0.3178679645061493,-1.0184047222137451
1739983198391471900,8.305471923828126,3.215707302093506,0.2781338691711426,-1.0633107423782349
1739983198401453800,8.315453857421875,2.9940097332000732,0.19758276641368866,-1.111680269241333
1739983198411435800,8.325435791015625,2.759218454360962,0.09941917657852173,-1.1797634363174438
1739983198421418800,8.335418701171875,2.489884853363037,0.018610991537570953,-1.2679097652435303
1739983198431400700,8.345400634765625,2.193434953689575,-0.04993664473295212,-1.357380986213684
1739983198441382700,8.355382568359374,1.895281195640564,-0.12519636750221252,-1.4076764583587646
1739983198451365600,8.36536572265625,1.613145351409912,-0.20956265926361084,-1.39717435836792
1739983198461347800,8.375347900390626,1.352364182472229,-0.2716042399406433,-1.3175523281097412
1739983198471329800,8.385329833984375,1.10361647605896,-0.29277104139328003,-1.1772668361663818
1739983198481311700,8.395311767578125,0.86762934923172,-0.28347548842430115,-0.9977814555168152
1739983198491295000,8.405294921875,0.6499199271202087,-0.29041755199432373,-0.8103654980659485
1739983198501276700,8.415276611328125,0.4415453374385834,-0.3318912386894226,-0.6235527992248535
1739983198511259600,8.425259765625,0.2093035727739334,-0.3553371727466583,-0.4538782835006714
1739983198521241300,8.435241455078126,-0.06754409521818161,-0.3538885712623596,-0.29021114110946655
1739983198531224600,8.445224609375,-0.4111744463443756,-0.3358406126499176,-0.13361968100070953
1739983198541206500,8.45520654296875,-0.7907611727714539,-0.3476237654685974,0.030105868354439735
1739983198551188500,8.4651884765625,-1.1681740283966064,-0.3610178530216217,0.1910119354724884
1739983198561170700,8.475170654296875,-1.499798059463501,-0.36109107732772827,0.3493767976760864
1739983198571153700,8.485153564453125,-1.7629002332687378,-0.34137383103370667,0.49944913387298584
1739983198581135600,8.495135498046874,-1.9528074264526367,-0.29806146025657654,0.6560445427894592
1739983198591117600,8.50511767578125,-2.0580317974090576,-0.24258087575435638,0.8142032623291016
1739983198601100500,8.5151005859375,-2.0808165073394775,-0.1854444146156311,0.9489476084709167
1739983198611082500,8.52508251953125,-2.0588674545288086,-0.1212417259812355,1.0447571277618408
1739983198621064400,8.535064453125,-2.0612893104553223,-0.06410600244998932,1.102129578590393
1739983198631046700,8.545046630859375,-2.135674238204956,-0.03325461223721504,1.1039448976516724
1739983198641029600,8.555029541015625,-2.278120756149292,-0.004922060761600733,1.0412800312042236
1739983198651011600,8.565011474609374,-2.4388978481292725,0.030323810875415802,0.8931760191917419
1739983198660993500,8.57499365234375,-2.577319860458374,0.06692051887512207,0.6593296527862549
1739983198670976500,8.5849765625,-2.7076992988586426,0.10109766572713852,0.35021838545799255
1739983198680958500,8.59495849609375,-2.836860179901123,0.10624875128269196,-0.02417413517832756
1739983198690940700,8.604940673828125,-2.9860148429870605,0.09265437722206116,-0.4670860469341278
1739983198700922400,8.61492236328125,-3.135180711746216,0.032364342361688614,-0.939996063709259
1739983198710905600,8.624905517578124,-3.2750604152679443,-0.09043215215206146,-1.3654872179031372
1739983198720887600,8.634887451171876,-3.4125914573669434,-0.29053986072540283,-1.6877795457839966
1739983198730869500,8.644869384765625,-3.581406831741333,-0.5239185690879822,-1.8793705701828003
1739983198740851700,8.654851806640625,-3.7913029193878174,-0.6980252861976624,-1.955155372619629
1739983198750834400,8.66483447265625,-4.028852462768555,-0.784737765789032,-1.9275844097137451
1739983198760816600,8.674816650390625,-4.264422416687012,-0.7869096398353577,-1.8212207555770874
1739983198770798300,8.68479833984375,-4.440762042999268,-0.7082728743553162,-1.6424704790115356
1739983198780781600,8.694781494140624,-4.52316951751709,-0.5603585839271545,-1.4077463150024414
1739983198790763500,8.704763427734376,-4.5009894371032715,-0.37092313170433044,-1.1336878538131714
1739983198800745500,8.714745361328125,-4.405631065368652,-0.16508914530277252,-0.8350449800491333
1739983198810727700,8.724727783203125,-4.263599395751953,0.055120185017585754,-0.5241051912307739
1739983198820710700,8.734710693359375,-4.126434803009033,0.2798941433429718,-0.23393525183200836
1739983198830692600,8.744692626953125,-4.02063512802124,0.5124368667602539,0.020598487928509712
1739983198840674600,8.754674560546874,-3.9474027156829834,0.7399488687515259,0.2180284857749939
1739983198850656500,8.764656494140626,-3.86812686920166,0.9440295696258545,0.345975786447525
1739983198860639500,8.774639404296876,-3.7822983264923096,1.0729484558105469,0.4064633548259735
1739983198870621400,8.784621337890625,-3.7046639919281006,1.1188701391220093,0.4217275381088257
1739983198880603600,8.794603759765625,-3.6427571773529053,1.1214234828948975,0.3959566652774811
1739983198890586600,8.804586669921875,-3.593989133834839,1.1214057207107544,0.34470757842063904
1739983198900568600,8.814568603515625,-3.52772855758667,1.090140700340271,0.2860993444919586
1739983198910550500,8.824550537109374,-3.4219608306884766,1.0010043382644653,0.24583818018436432
1739983198920532500,8.834532470703126,-3.2736077308654785,0.8450591564178467,0.22468480467796326
1739983198930515500,8.844515380859375,-3.07344651222229,0.6105534434318542,0.20287351310253143
1739983198940497700,8.85449755859375,-2.8644022941589355,0.38240110874176025,0.16904990375041962
1739983198950479600,8.864479736328125,-2.6559581756591797,0.27268660068511963,0.10666269063949585
1739983198960462600,8.874462646484375,-2.439915657043457,0.24139940738677979,0.03455363214015961
1739983198970444500,8.884444580078124,-2.217827320098877,0.25998562574386597,-0.02872706949710846
1739983198980426500,8.894426513671876,-1.976375937461853,0.3157309293746948,-0.0700627863407135
1739983198990408700,8.90440869140625,-1.6764342784881592,0.3555332124233246,-0.10600907355546951
1739983199000391400,8.914391357421875,-1.3129349946975708,0.3634333610534668,-0.16284029185771942
1739983199010373600,8.92437353515625,-0.9106336236000061,0.3556761145591736,-0.25586822628974915
1739983199020355600,8.93435546875,-0.5188419222831726,0.25862231850624084,-0.3728124499320984
1739983199030337500,8.944337646484374,-0.13935160636901855,0.10521785914897919,-0.47483575344085693
1739983199040320500,8.954320556640624,0.2157634198665619,-0.13074739277362823,-0.5673449039459229
1739983199050302500,8.964302490234376,0.509063720703125,-0.38902899622917175,-0.6525072455406189
1739983199060284700,8.97428466796875,0.7238101959228516,-0.5925282835960388,-0.6956935524940491
1739983199070267400,8.984267333984375,0.8947609066963196,-0.718483567237854,-0.6684062480926514
1739983199080249600,8.99424951171875,1.0567493438720703,-0.7757475972175598,-0.5763013362884521
1739983199090231600,9.0042314453125,1.2577298879623413,-0.7750706076622009,-0.4245467483997345
1739983199100213500,9.014213623046874,1.5194693803787231,-0.6884572505950928,-0.24040308594703674
1739983199110196500,9.024196533203124,1.8439668416976929,-0.514877200126648,-0.038090191781520844
1739983199120178400,9.034178466796876,2.2082438468933105,-0.2710488438606262,0.1798858940601349
1739983199130160600,9.04416064453125,2.5829577445983887,0.007265337742865086,0.4052838385105133
1739983199140143600,9.0541435546875,2.945033073425293,0.2857609689235687,0.6323422193527222
1739983199150125600,9.06412548828125,3.28240704536438,0.5203476548194885,0.8531438708305359
1739983199160107500,9.074107421875,3.581460952758789,0.6963523626327515,1.0520451068878174
1739983199170089500,9.08408935546875,3.8279285430908203,0.8127375841140747,1.2067164182662964
1739983199180072400,9.094072509765626,4.007719993591309,0.8896265029907227,1.3019492626190186
1739983199190054700,9.1040546875,4.112307548522949,0.9138924479484558,1.3348051309585571
1739983199200036600,9.11403662109375,4.136618614196777,0.8629211187362671,1.315800666809082
1739983199210019600,9.12401953125,4.066019058227539,0.7498600482940674,1.26441490650177
1739983199220001500,9.13400146484375,3.952375650405884,0.5749878883361816,1.164693832397461
1739983199229983500,9.1439833984375,3.816502571105957,0.405317097902298,1.0169554948806763
1739983199239965400,9.15396533203125,3.698763608932495,0.2667989432811737,0.8238901495933533
1739983199249948400,9.163948486328126,3.628699779510498,0.16461744904518127,0.5959054827690125
1739983199259930600,9.1739306640625,3.6132314205169678,0.09484631568193436,0.36604583263397217
1739983199269912600,9.18391259765625,3.6152098178863525,0.041333556175231934,0.1951095014810562
1739983199279895600,9.1938955078125,3.600584030151367,-0.012317787855863571,0.0973769947886467
1739983199289877800,9.203877685546875,3.577852487564087,-0.06283049285411835,0.06831178814172745
1739983199299859500,9.213859375,3.5634407997131348,-0.08135804533958435,0.09399034082889557
1739983199309841700,9.223841552734376,3.576449155807495,-0.067355677485466,0.14929141104221344
1739983199319824400,9.233824462890626,3.614088296890259,-0.0243808776140213,0.2111966907978058
1739983199329806600,9.243806640625,3.670776844024658,0.03717116639018059,0.2769637107849121
1739983199339788500,9.25378857421875,3.732713222503662,0.081349216401577,0.341350793838501
1739983199349770500,9.2637705078125,3.789304494857788,0.11692211776971817,0.392720490694046
1739983199359753700,9.273753662109375,3.827087163925171,0.1310769021511078,0.44401493668556213
1739983199369735400,9.2837353515625,3.8275692462921143,0.12368475645780563,0.47424793243408203
1739983199379717600,9.293717529296876,3.7815253734588623,0.09453172236680984,0.4815347194671631
1739983199389700600,9.30370068359375,3.6977837085723877,0.05969491973519325,0.4681936204433441
1739983199399682600,9.3136826171875,3.5611588954925537,0.029932796955108643,0.4236143231391907
1739983199409664500,9.32366455078125,3.378695011138916,0.004262587986886501,0.3475334048271179
1739983199419646500,9.333646484375,3.1674797534942627,-0.009990014135837555,0.24016235768795013
1739983199429629400,9.34362939453125,2.9517242908477783,-0.01489662192761898,0.12071239948272705
1739983199439611400,9.353611328125,2.7455661296844482,-0.006429341621696949,-0.004704258870333433
1739983199449593600,9.363593505859376,2.550189971923828,0.008353066630661488,-0.12193793803453445
1739983199459576600,9.37357666015625,2.36787486076355,0.013642936944961548,-0.21377979218959808
1739983199469558500,9.38355859375,2.191690444946289,0.0052438597194850445,-0.2975732088088989
1739983199479540500,9.39354052734375,2.0093483924865723,-0.005351825151592493,-0.36791887879371643
1739983199489522400,9.4035224609375,1.820419192314148,-0.005922007840126753,-0.43026480078697205
1739983199499505400,9.41350537109375,1.628212809562683,0.005043964833021164,-0.47799772024154663
1739983199509487400,9.4234873046875,1.4203996658325195,0.028833717107772827,-0.4999141991138458
1739983199519469600,9.433469482421875,1.2035242319107056,0.05978766456246376,-0.4908265769481659
1739983199529452500,9.44345263671875,0.9720131754875183,0.0652037262916565,-0.4675625264644623
1739983199539434500,9.4534345703125,0.7090725898742676,0.0350114107131958,-0.4443449378013611
1739983199549416400,9.46341650390625,0.40232014656066895,-0.018157802522182465,-0.4247930645942688
1739983199559398400,9.4733984375,0.07250253111124039,-0.0728587955236435,-0.42090722918510437
1739983199569381400,9.48338134765625,-0.2922373414039612,-0.1070905327796936,-0.44552895426750183
1739983199579363600,9.493363525390626,-0.6969553828239441,-0.11448024213314056,-0.4731808304786682
1739983199589345500,9.503345458984375,-1.132551670074463,-0.10165872424840927,-0.46855995059013367
1739983199599328500,9.51332861328125,-1.5604225397109985,-0.08743560314178467,-0.41328856348991394
1739983199609310500,9.523310546875,-1.9409259557724,-0.1156478002667427,-0.30927324295043945
1739983199619292400,9.53329248046875,-2.2527501583099365,-0.17141902446746826,-0.17794226109981537
1739983199629274600,9.543274658203124,-2.491835594177246,-0.2307278960943222,-0.026789769530296326
1739983199639257300,9.55325732421875,-2.663635015487671,-0.2603414058685303,0.135844424366951
1739983199649239600,9.563239501953126,-2.7655560970306396,-0.25629764795303345,0.28048470616340637
1739983199659221500,9.573221435546875,-2.8173882961273193,-0.21438583731651306,0.38774538040161133
1739983199669204500,9.58320458984375,-2.8209261894226074,-0.11943322420120239,0.4513280987739563
1739983199679186700,9.593186767578125,-2.8230996131896973,0.0468125082552433,0.4929373264312744
1739983199689168400,9.60316845703125,-2.8604986667633057,0.23346254229545593,0.5410501956939697
1739983199699151600,9.613151611328124,-2.9436936378479004,0.39541956782341003,0.6030892729759216
1739983199709133300,9.62313330078125,-3.0551910400390625,0.4813731014728546,0.6871386766433716
1739983199719115500,9.633115478515625,-3.161600351333618,0.4507162868976593,0.7803449630737305
1739983199729097700,9.64309765625,-3.2475194931030273,0.3186892867088318,0.8320155739784241
1739983199739080400,9.65308056640625,-3.3203275203704834,0.15036699175834656,0.7913156151771545
1739983199749062700,9.663062744140625,-3.386148452758789,0.027179289609193802,0.6562240719795227
1739983199759044400,9.67304443359375,-3.450521945953369,-0.048090267926454544,0.44736823439598083
1739983199769027600,9.683027587890624,-3.486173391342163,-0.09240207076072693,0.19404755532741547
1739983199779009500,9.693009521484376,-3.497821807861328,-0.12879440188407898,-0.0640735775232315
1739983199788991500,9.702991455078125,-3.4968090057373047,-0.15469658374786377,-0.2721942961215973
1739983199798973400,9.712973388671875,-3.5161232948303223,-0.18548277020454407,-0.38089296221733093
1739983199808956400,9.722956298828125,-3.5760865211486816,-0.21839705109596252,-0.3911546468734741
1739983199818938400,9.7329384765625,-3.6434807777404785,-0.28016406297683716,-0.34256696701049805
1739983199828920600,9.742920654296874,-3.6992337703704834,-0.3747081458568573,-0.26802003383636475
1739983199838903600,9.752903564453124,-3.7305397987365723,-0.4492606222629547,-0.19396977126598358
1739983199848885500,9.762885498046876,-3.735790491104126,-0.4818420112133026,-0.11812213063240051
1739983199858867500,9.772867431640625,-3.723036289215088,-0.4609476327896118,-0.04790868982672691
1739983199868850400,9.782850341796875,-3.678093671798706,-0.39535558223724365,-0.0020863423123955727
1739983199878832600,9.79283251953125,-3.5889551639556885,-0.29295310378074646,0.02152257040143013
1739983199888814300,9.802814453125,-3.4513213634490967,-0.15310493111610413,0.02886890061199665
1739983199898796500,9.812796630859374,-3.3008739948272705,0.010252405889332294,0.024490945041179657
1739983199908779500,9.822779541015626,-3.1601803302764893,0.13393546640872955,0.019078867509961128
1739983199918761500,9.832761474609375,-3.045992612838745,0.17777398228645325,0.0032290606759488583
1739983199928743700,9.84274365234375,-2.9637374877929688,0.1493372768163681,-0.030307859182357788
1739983199938726400,9.852726318359375,-2.9209160804748535,0.08926329761743546,-0.08393159508705139
1739983199948708600,9.86270849609375,-2.8927085399627686,0.006692253053188324,-0.1440572440624237
1739983199958690300,9.872690185546874,-2.8521347045898438,-0.08044957369565964,-0.22206923365592957
1739983199968672500,9.882672607421876,-2.8080801963806152,-0.15149125456809998,-0.3020327687263489
1739983199978655500,9.892655517578126,-2.7520196437835693,-0.1864161193370819,-0.36478447914123535
1739983199988637400,9.902637451171875,-2.6634984016418457,-0.15801644325256348,-0.38121458888053894
1739983199998619600,9.91261962890625,-2.564901113510132,-0.0741174966096878,-0.36286309361457825
1739983200008602600,9.9226025390625,-2.440281629562378,0.026308435946702957,-0.3017057180404663
1739983200018584600,9.93258447265625,-2.2813384532928467,0.06984215974807739,-0.2157367765903473
1739983200028566500,9.94256640625,-2.1026933193206787,0.06696221977472305,-0.1136452853679657
1739983200038549500,9.952549560546874,-1.9142075777053833,0.04762563854455948,-0.012782842852175236
1739983200048531500,9.962531494140626,-1.713841199874878,0.09472204744815826,0.07234802842140198
1739983200058513400,9.972513427734375,-1.4849531650543213,0.22008413076400757,0.10991954803466797
1739983200068495600,9.98249560546875,-1.2161062955856323,0.36159998178482056,0.12543512880802155
1739983200078478600,9.992478515625,-0.905677080154419,0.430388867855072,0.16041478514671326
1739983200088460500,10.00246044921875,-0.5691070556640625,0.4106825590133667,0.22748810052871704
1739983200098442500,10.0124423828125,-0.2408083826303482,0.3066540062427521,0.3498377799987793
1739983200108425700,10.02242578125,0.06468947231769562,0.11332395672798157,0.5267837643623352
1739983200118407400,10.032407470703125,0.37209761142730713,-0.1273457258939743,0.7503747940063477
1739983200128389600,10.0423896484375,0.6890766620635986,-0.3399330973625183,0.9800388813018799
1739983200138372400,10.052372314453125,1.0215237140655518,-0.46001726388931274,1.1832822561264038
1739983200148354600,10.0623544921875,1.3890948295593262,-0.44264304637908936,1.3499308824539185
1739983200158336500,10.07233642578125,1.794613003730774,-0.25752028822898865,1.4514777660369873
1739983200168318500,10.082318359375,2.2237093448638916,0.05249003693461418,1.4933717250823975
1739983200178301700,10.0923017578125,2.6439478397369385,0.44304388761520386,1.4927597045898438
1739983200188283400,10.102283447265625,3.0446205139160156,0.8531329035758972,1.4768729209899902
1739983200198265600,10.112265625,3.4135563373565674,1.224577784538269,1.4398046731948853
1739983200208248600,10.12224853515625,3.7221665382385254,1.5624394416809082,1.3625024557113647
1739983200218230500,10.13223046875,3.937530755996704,1.8865714073181152,1.2579728364944458
1739983200228212500,10.14221240234375,4.061221599578857,2.1766581535339355,1.1310490369796753
1739983200238195500,10.152195556640624,4.106701374053955,2.3692173957824707,0.9715957045555115
1739983200248177400,10.162177490234376,4.092193126678467,2.404531717300415,0.7868394255638123
1739983200258159400,10.172159423828125,4.010276794433594,2.277458906173706,0.587440550327301
1739983200268141600,10.1821416015625,3.875622272491455,2.001403331756592,0.3876134753227234
1739983200278124500,10.19212451171875,3.7059483528137207,1.6622071266174316,0.1819477677345276
1739983200288106500,10.2021064453125,3.5253074169158936,1.3194124698638916,-0.045067258179187775
1739983200298088400,10.21208837890625,3.3766658306121826,1.001460075378418,-0.29900887608528137
1739983200308071700,10.22207177734375,3.279839515686035,0.7062908411026001,-0.5813761353492737
1739983200318053400,10.232053466796875,3.2502036094665527,0.4381060004234314,-0.8707640171051025
1739983200328035600,10.24203564453125,3.258256196975708,0.20863580703735352,-1.1297351121902466
1739983200338018300,10.252018310546875,3.252814769744873,0.028514742851257324,-1.3196347951889038
1739983200348000500,10.26200048828125,3.23187255859375,-0.08774102479219437,-1.4400153160095215
1739983200357982500,10.271982421875,3.220445394515991,-0.14387454092502594,-1.5097936391830444
1739983200367964400,10.28196435546875,3.229640245437622,-0.13865022361278534,-1.5421451330184937
1739983200377947600,10.29194775390625,3.268523931503296,-0.07641515880823135,-1.5398809909820557
1739983200387929300,10.301929443359375,3.3310041427612305,0.026643047109246254,-1.502868413925171
1739983200397911600,10.31191162109375,3.4038844108581543,0.12146148830652237,-1.442307710647583
1739983200407894500,10.32189453125,3.4769041538238525,0.16668836772441864,-1.376259207725525
1739983200417876500,10.33187646484375,3.528547525405884,0.1945365071296692,-1.3075752258300781
1739983200427858700,10.341858642578124,3.556690216064453,0.20494946837425232,-1.234864592552185
1739983200437841400,10.35184130859375,3.55291485786438,0.19911077618598938,-1.1690526008605957
1739983200447823600,10.36182373046875,3.514726400375366,0.18733853101730347,-1.1051859855651855
1739983200457805300,10.371805419921875,3.4502739906311035,0.1827300488948822,-1.0526646375656128
1739983200467788500,10.38178857421875,3.3523240089416504,0.1925685554742813,-1.006842017173767
1739983200477770500,10.3917705078125,3.2462172508239746,0.2117043137550354,-0.9746991991996765
1739983200487752400,10.40175244140625,3.1431517601013184,0.2246485948562622,-0.9617519974708557
1739983200497734700,10.411734619140624,3.040862798690796,0.22106420993804932,-0.9628750681877136
1739983200507717400,10.42171728515625,2.916579484939575,0.17662404477596283,-0.9667678475379944
1739983200517699600,10.431699462890625,2.7538697719573975,0.09985926747322083,-0.9680038094520569
1739983200527681300,10.441681396484375,2.5506834983825684,-0.006316703744232655,-0.9539700150489807
1739983200537664500,10.45166455078125,2.3121206760406494,-0.13763262331485748,-0.9331527948379517
1739983200547646200,10.461646240234375,2.05423641204834,-0.27652525901794434,-0.8939995169639587
1739983200557628400,10.47162841796875,1.7785322666168213,-0.38810113072395325,-0.8388698697090149
1739983200567611400,10.481611328125,1.4973394870758057,-0.4679749011993408,-0.7806633114814758
1739983200577593300,10.49159326171875,1.217943787574768,-0.5125702619552612,-0.7220264077186584
1739983200587575600,10.501575439453125,0.9464017748832703,-0.5591843724250793,-0.67011559009552
1739983200597558300,10.511558349609375,0.6738520264625549,-0.6107681393623352,-0.6143874526023865
1739983200607540500,10.52154052734375,0.37404459714889526,-0.6324118971824646,-0.558985710144043
1739983200617522400,10.5315224609375,0.041499972343444824,-0.6142966747283936,-0.4825417697429657
1739983200627504400,10.54150439453125,-0.3236550986766815,-0.5638505220413208,-0.39100518822669983
1739983200637487400,10.5514873046875,-0.7131603360176086,-0.5304019451141357,-0.26762646436691284
1739983200647469300,10.56146923828125,-1.1006841659545898,-0.5432745814323425,-0.10886184126138687
1739983200657451300,10.571451171875,-1.4690134525299072,-0.6091896891593933,0.07431650161743164
1739983200667434500,10.5814345703125,-1.8010185956954956,-0.7245600819587708,0.26857197284698486
1739983200677416400,10.59141650390625,-2.0750439167022705,-0.815606951713562,0.46662500500679016
1739983200687398400,10.6013984375,-2.2469401359558105,-0.8249006271362305,0.6373282670974731
1739983200697381400,10.61138134765625,-2.311838388442993,-0.7667235136032104,0.7700604796409607
1739983200707363300,10.62136328125,-2.3058183193206787,-0.6294708251953125,0.8758348822593689
1739983200717345500,10.631345458984375,-2.2695226669311523,-0.4365866482257843,0.9538072347640991
1739983200727328300,10.641328369140625,-2.257235527038574,-0.1934775859117508,1.0174940824508667
1739983200737310500,10.651310546875,-2.298314332962036,0.03107827715575695,1.0648276805877686
1739983200747292200,10.661292236328125,-2.3815507888793945,0.20348306000232697,1.0993014574050903
1739983200757274400,10.6712744140625,-2.4837687015533447,0.32666295766830444,1.1161519289016724
1739983200767257300,10.68125732421875,-2.5574588775634766,0.39608970284461975,1.0931057929992676
1739983200777239300,10.6912392578125,-2.558946371078491,0.3837736248970032,1.0279542207717896
1739983200787221500,10.701221435546875,-2.5133941173553467,0.30544978380203247,0.9036331176757812
1739983200797204500,10.71120458984375,-2.4705944061279297,0.16074925661087036,0.7298218011856079
1739983200807186400,10.7211865234375,-2.4680228233337402,-0.01816590502858162,0.5043061375617981
1739983200817168400,10.73116845703125,-2.5212624073028564,-0.1873040646314621,0.24256639182567596
1739983200827151400,10.7411513671875,-2.6311800479888916,-0.30641981959342957,-0.059293318539857864
1739983200837133300,10.75113330078125,-2.788609504699707,-0.3727481961250305,-0.38162243366241455
1739983200847115300,10.761115234375,-2.9548287391662598,-0.39869990944862366,-0.690833568572998
1739983200857098200,10.77109814453125,-3.1186654567718506,-0.4048495590686798,-0.9580190181732178
1739983200867080400,10.78108056640625,-3.2787721157073975,-0.4351976215839386,-1.157151460647583
1739983200877062400,10.7910625,-3.4365572929382324,-0.5110443234443665,-1.287614107131958
1739983200887045400,10.80104541015625,-3.5974643230438232,-0.6454418301582336,-1.3626816272735596
1739983200897027600,10.811027587890624,-3.781148672103882,-0.8226479291915894,-1.4018172025680542
1739983200907009300,10.82100927734375,-3.985395669937134,-1.0120352506637573,-1.414833903312683
1739983200916992500,10.830992431640626,-4.211719989776611,-1.2307711839675903,-1.420513391494751
1739983200926974200,10.84097412109375,-4.412568092346191,-1.3609342575073242,-1.447771668434143
1739983200936956400,10.850956298828125,-4.532411575317383,-1.4188514947891235,-1.5077168941497803
1739983200946938400,10.8609384765625,-4.544332027435303,-1.2464613914489746,-1.5417507886886597
1739983200956921300,10.87092138671875,-4.410863399505615,-0.6976681351661682,-1.4615342617034912
1739983200966903600,10.880903564453124,-4.091684341430664,-0.09381711483001709,-1.2662627696990967
1739983200976885200,10.89088525390625,-3.703176498413086,0.3614904582500458,-1.1016876697540283
1739983200986868500,10.900868408203126,-3.316279649734497,0.6147323250770569,-0.8813962936401367
1739983200996850400,10.910850341796875,-3.033622980117798,0.7955793142318726,-0.635992705821991
1739983201006832400,10.920832275390625,-2.8545446395874023,0.9139048457145691,-0.4085739552974701
1739983201016815400,10.9308154296875,-2.77124285697937,1.0223534107208252,-0.2575071156024933
1739983201026797300,10.94079736328125,-2.7633848190307617,1.1511799097061157,-0.19053208827972412
1739983201036779500,10.950779541015624,-2.803499698638916,1.2970409393310547,-0.19399285316467285
1739983201046762500,10.960762451171876,-2.8676464557647705,1.4269001483917236,-0.2304408848285675
1739983201056744400,10.970744384765625,-2.9324567317962646,1.4963760375976562,-0.2679993510246277
1739983201066726400,10.980726318359375,-2.953763723373413,1.4783059358596802,-0.2844550311565399
1739983201076709400,10.99070947265625,-2.888942241668701,1.3389511108398438,-0.24824269115924835
1739983201086691300,11.00069140625,-2.725508689880371,1.0904462337493896,-0.17139850556850433
1739983201096673500,11.010673583984374,-2.482515573501587,0.7604876160621643,-0.07773588597774506
1739983201106656300,11.02065625,-2.1877429485321045,0.4353790581226349,0.02375105768442154
1739983201116638500,11.030638427734376,-1.864452838897705,0.14335688948631287,0.08641286194324493
1739983201126620400,11.040620361328125,-1.5260167121887207,-0.11792398244142532,0.10102376341819763
1739983201136602400,11.050602294921875,-1.1809635162353516,-0.36888450384140015,0.07672904431819916
1739983201146585300,11.06058544921875,-0.8434014320373535,-0.5589252710342407,0.0599127821624279
1739983201156567300,11.0705673828125,-0.517632007598877,-0.6548936367034912,0.07398830354213715
1739983201166549500,11.080549560546874,-0.20601874589920044,-0.6873970031738281,0.1261974424123764
1739983201176532200,11.0905322265625,0.11465731263160706,-0.6986934542655945,0.21504178643226624
1739983201186514400,11.100514404296876,0.45580026507377625,-0.7345478534698486,0.3378742039203644
1739983201196496400,11.110496337890625,0.808607816696167,-0.7845454812049866,0.47817426919937134
1739983201206479400,11.120479248046875,1.1545308828353882,-0.7581354379653931,0.6295738816261292
1739983201216461300,11.13046142578125,1.4969571828842163,-0.5928061604499817,0.762050449848175
1739983201226443300,11.140443359375,1.8599764108657837,-0.3258010745048523,0.861278772354126
1739983201236426200,11.15042626953125,2.208173990249634,0.028140973299741745,0.9220449328422546
1739983201246408400,11.160408447265626,2.522238254547119,0.37485605478286743,0.9533884525299072
1739983201256390400,11.170390380859375,2.7816104888916016,0.7010349631309509,0.9803686738014221
1739983201266373400,11.180373291015625,2.97424578666687,0.9680373668670654,1.013273000717163
1739983201276355300,11.190355224609375,3.0935416221618652,1.1645290851593018,1.0415090322494507
1739983201286337300,11.200337158203125,3.1508758068084717,1.2882130146026611,1.0516183376312256
1739983201296320500,11.210320556640625,3.1784250736236572,1.3671141862869263,1.021499514579773
1739983201306302200,11.22030224609375,3.181544780731201,1.4010151624679565,0.9687455892562866
1739983201316284400,11.230284423828126,3.1611316204071045,1.3963580131530762,0.9061082005500793
1739983201326267400,11.240267333984375,3.15354061126709,1.2926185131072998,0.8619255423545837
1739983201336249300,11.250249267578125,3.186716079711914,1.1281777620315552,0.8271395564079285
1739983201346231600,11.2602314453125,3.2889111042022705,0.9129523038864136,0.7994186878204346
1739983201356214300,11.27021435546875,3.441992998123169,0.6758131980895996,0.7564077377319336
1739983201366196500,11.280196533203124,3.616262197494507,0.44147685170173645,0.6618825793266296
1739983201376178200,11.29017822265625,3.7887580394744873,0.22454816102981567,0.5093744993209839
1739983201386161400,11.300161376953126,3.929029703140259,0.03315289691090584,0.3138867914676666
1739983201396143400,11.310143310546875,4.024096488952637,-0.1256159394979477,0.0862085223197937
1739983201406125300,11.320125244140625,4.080860137939453,-0.20694035291671753,-0.15541474521160126
1739983201416108300,11.3301083984375,4.111557483673096,-0.21986091136932373,-0.3835216164588928
1739983201426090500,11.340090576171875,4.128878593444824,-0.1928790956735611,-0.5813414454460144
1739983201436072400,11.350072509765624,4.1302170753479,-0.17300786077976227,-0.7376457452774048
1739983201446055400,11.360055419921874,4.12840461730957,-0.1787933111190796,-0.8515939116477966
1739983201456037400,11.370037353515626,4.124210357666016,-0.20874851942062378,-0.9181867837905884
1739983201466019300,11.380019287109375,4.095588207244873,-0.224648118019104,-0.9588726758956909
1739983201476001300,11.390001220703125,4.046912670135498,-0.20209304988384247,-0.9781914949417114
1739983201485984300,11.399984375,3.975332498550415,-0.15238167345523834,-0.9720598459243774
1739983201495966500,11.409966552734375,3.855788230895996,-0.10271750390529633,-0.9562531113624573
1739983201505949200,11.41994921875,3.6880552768707275,-0.06394986808300018,-0.9337166547775269
1739983201515932400,11.429932373046874,3.4705724716186523,-0.007035123184323311,-0.9008925557136536
1739983201525914000,11.4399140625,3.2282257080078125,0.074021115899086,-0.8628666400909424
1739983201535896300,11.449896240234375,2.980292797088623,0.18410561978816986,-0.8207239508628845
1739983201545879300,11.45987939453125,2.7388052940368652,0.3181220293045044,-0.7785943746566772
1739983201555861200,11.469861328125,2.5185606479644775,0.4687390923500061,-0.7283380627632141
1739983201565843500,11.479843505859375,2.327172040939331,0.6326683759689331,-0.6730923652648926
1739983201575826200,11.489826171875,2.166722059249878,0.785161554813385,-0.6063453555107117
1739983201585808400,11.499808349609374,2.026324510574341,0.9143315553665161,-0.5225604176521301
1739983201595790000,11.5097900390625,1.8853533267974854,0.993261992931366,-0.411639928817749
1739983201605773300,11.519773193359375,1.7213196754455566,1.003610372543335,-0.2713664472103119
1739983201615755300,11.52975537109375,1.5411230325698853,0.9258215427398682,-0.09172063320875168
1739983201625737200,11.5397373046875,1.3417364358901978,0.7822915315628052,0.0973701998591423
1739983201635720200,11.54972021484375,1.0959726572036743,0.5840573906898499,0.25424274802207947
1739983201645702400,11.559702392578124,0.795232892036438,0.3597228229045868,0.3303247392177582
1739983201655684400,11.569684326171876,0.44856104254722595,0.15182526409626007,0.31282925605773926
1739983201665667300,11.579667236328126,0.04281165823340416,0.040750935673713684,0.2088482677936554
1739983201675649300,11.589649169921875,-0.4096417725086212,0.025084462016820908,0.04839039593935013
1739983201685631200,11.59963134765625,-0.8897894620895386,0.07725924998521805,-0.12468471378087997
1739983201695614500,11.609614501953125,-1.360234260559082,0.13341929018497467,-0.26123809814453125
1739983201705596200,11.61959619140625,-1.7645013332366943,0.1365748643875122,-0.2895762622356415
1739983201715578400,11.629578369140624,-2.0907466411590576,0.06744761019945145,-0.21895259618759155
1739983201725561000,11.63956103515625,-2.3304684162139893,-0.07616707682609558,-0.08285573869943619
1739983201735543300,11.649543212890626,-2.4805991649627686,-0.2630220949649811,0.09322571009397507
1739983201745525200,11.659525146484375,-2.5525715351104736,-0.4392525255680084,0.26319584250450134
1739983201755508200,11.66950830078125,-2.574578046798706,-0.5247024297714233,0.419392466545105
1739983201765490200,11.679490234375,-2.5416643619537354,-0.4934462308883667,0.5352770090103149
1739983201775472000,11.68947216796875,-2.4812350273132324,-0.3654700219631195,0.6148370504379272
1739983201785455000,11.699455078125,-2.4248788356781006,-0.16497103869915009,0.6860867738723755
1739983201795437300,11.709437255859376,-2.4060091972351074,0.07609597593545914,0.7415003776550293
1739983201805419300,11.719419189453125,-2.439833641052246,0.3096786439418793,0.8008332252502441
1739983201815402200,11.72940234375,-2.5345826148986816,0.4604937434196472,0.8636730909347534
1739983201825384200,11.73938427734375,-2.65580415725708,0.4813617467880249,0.9143893122673035
1739983201835366100,11.7493662109375,-2.762223720550537,0.39070925116539,0.9425593018531799
1739983201845349400,11.759349365234375,-2.8560221195220947,0.2240917980670929,0.9287732243537903
1739983201855331000,11.7693310546875,-2.944512367248535,0.029135044664144516,0.8630699515342712
1739983201865313300,11.779313232421876,-3.0326051712036133,-0.1760878711938858,0.7518813610076904
1739983201875296300,11.789296142578126,-3.117737293243408,-0.3413517475128174,0.5788889527320862
1739983201885278200,11.7992783203125,-3.1785073280334473,-0.44589731097221375,0.37395527958869934
1739983201895260400,11.809260498046875,-3.2097678184509277,-0.4907410442829132,0.1565454751253128
1739983201905243100,11.8192431640625,-3.2395973205566406,-0.5150051116943359,-0.043646734207868576
1739983201915225300,11.829225341796874,-3.2913031578063965,-0.5282363891601562,-0.19410060346126556
1739983201925207000,11.83920703125,-3.3802871704101562,-0.5402131080627441,-0.2650996744632721
1739983201935190300,11.849190185546876,-3.501072406768799,-0.5583372116088867,-0.262721985578537
1739983201945172200,11.859172119140625,-3.6059939861297607,-0.6013400554656982,-0.20074063539505005
1739983201955155200,11.8691552734375,-3.679434299468994,-0.6378094553947449,-0.10964556038379669
1739983201965137200,11.87913720703125,-3.7224302291870117,-0.6580559015274048,-0.004560680594295263
1739983201975119400,11.889119384765625,-3.7254016399383545,-0.650489330291748,0.09238230437040329
1739983201985102000,11.89910205078125,-3.6961252689361572,-0.5523901581764221,0.16562721133232117
1739983201995084300,11.909084228515624,-3.6283609867095947,-0.3585410416126251,0.1962081789970398
1739983202005066200,11.919066162109376,-3.522341251373291,-0.12721647322177887,0.19250452518463135
1739983202015049200,11.92904931640625,-3.4001176357269287,0.10264270007610321,0.15664702653884888
1739983202025031400,11.939031494140625,-3.283674955368042,0.2793133556842804,0.10761876404285431
1739983202035013000,11.94901318359375,-3.1926822662353516,0.36870279908180237,0.061748843640089035
1739983202044996400,11.958996337890625,-3.1337735652923584,0.36647000908851624,0.029323261231184006
1739983202054978300,11.968978271484374,-3.105720281600952,0.33780422806739807,0.00016590315499342978
1739983202064960300,11.978960205078126,-3.0880892276763916,0.3171975016593933,-0.03759559243917465
1739983202074943200,11.988943115234376,-3.056227922439575,0.3391808271408081,-0.07863524556159973
1739983202084925200,11.99892529296875,-2.997419595718384,0.3891209661960602,-0.10410678386688232
1739983202094907400,12.008907470703125,-2.899599552154541,0.4428577423095703,-0.10285455733537674
1739983202104890400,12.018890380859375,-2.776486396789551,0.4858856499195099,-0.06394923478364944
1739983202114872300,12.028872314453125,-2.6518802642822266,0.4806525409221649,0.01571565866470337
1739983202124854300,12.038854248046874,-2.5434322357177734,0.3989321291446686,0.13616031408309937
1739983202134837200,12.048837158203124,-2.4283175468444824,0.2737722396850586,0.2741483151912689
1739983202144819200,12.058819091796876,-2.2680532932281494,0.12543444335460663,0.40513160824775696
1739983202154801400,12.068801513671875,-2.046631097793579,-0.008166558109223843,0.5027417540550232
1739983202164784000,12.0787841796875,-1.7368998527526855,-0.07015909254550934,0.5161070823669434
1739983202174766300,12.088766357421875,-1.3315680027008057,-0.08712248504161835,0.4538886547088623
1739983202184748300,12.098748291015625,-0.8641807436943054,-0.11436262726783752,0.3447278141975403
1739983202194731300,12.108731201171874,-0.37590840458869934,-0.19499759376049042,0.21867772936820984
1739983202204713500,12.11871337890625,0.0945856124162674,-0.32302266359329224,0.07244356721639633
1739983202214695200,12.128695068359375,0.5143594145774841,-0.4647887647151947,-0.08617722243070602
1739983202224678400,12.138678466796875,0.8713814616203308,-0.6010214686393738,-0.23125611245632172
1739983202234660000,12.14866015625,1.1632839441299438,-0.8700327277183533,-0.2406987100839615
1739983202244642300,12.158642333984375,1.3770097494125366,-0.7979173064231873,-0.30042433738708496
1739983202254625300,12.168625244140625,1.5925695896148682,-0.6014019250869751,-0.40588143467903137
1739983202264607200,12.178607177734374,1.877729058265686,-0.385377436876297,-0.49212872982025146
1739983202274589200,12.188589111328126,2.2210333347320557,-0.16707570850849152,-0.5215559601783752
1739983202284572400,12.198572509765626,2.569530963897705,0.03382890671491623,-0.480292409658432
1739983202294554000,12.20855419921875,2.904189109802246,0.22228217124938965,-0.3637034595012665
1739983202304536300,12.218536376953125,3.217617988586426,0.4171083867549896,-0.19845405220985413
1739983202314519000,12.22851904296875,3.51564621925354,0.5886169672012329,0.000757765315938741
1739983202324501200,12.238501220703125,3.7980291843414307,0.7403311729431152,0.20495644211769104
1739983202334483200,12.248483154296874,4.0449957847595215,0.8365517258644104,0.3867194950580597
1739983202344466200,12.258466064453126,4.214486122131348,0.8893116116523743,0.5383915901184082
1739983202354448400,12.268448486328126,4.2790303230285645,0.9063196778297424,0.6559393405914307
1739983202364430000,12.27843017578125,4.240802764892578,0.9013891220092773,0.7406627535820007
1739983202374413300,12.288413330078125,4.131375789642334,0.8813914656639099,0.7900825142860413
1739983202384395300,12.298395263671875,3.992093086242676,0.8290433287620544,0.7966573238372803
1739983202394377200,12.308377197265624,3.877021074295044,0.7467601895332336,0.7580357789993286
1739983202404360200,12.318360107421874,3.809185266494751,0.6228443384170532,0.6825841665267944
1739983202414342100,12.328342041015626,3.7905731201171875,0.47072672843933105,0.5540903806686401
1739983202424324400,12.338324462890625,3.808567762374878,0.30574148893356323,0.38070231676101685
1739983202434307300,12.348307373046875,3.8280997276306152,0.14465957880020142,0.18534094095230103
1739983202444289300,12.358289306640625,3.8277032375335693,0.016100268810987473,-0.01784466952085495
1739983202454271200,12.368271240234375,3.8115930557250977,-0.06922920048236847,-0.2065742015838623
1739983202464254200,12.378254150390624,3.796189308166504,-0.11718873679637909,-0.36789095401763916
1739983202474236200,12.388236083984374,3.791851758956909,-0.13525868952274323,-0.5007112622261047
1739983202484219400,12.398219482421876,3.7976579666137695,-0.12261905521154404,-0.6025223135948181
1739983202494201000,12.408201171875,3.8162930011749268,-0.08845215290784836,-0.6580882668495178
1739983202504183300,12.418183349609375,3.8555173873901367,-0.057140570133924484,-0.6733329892158508
1739983202514165200,12.428165283203125,3.8994014263153076,-0.041060496121644974,-0.6626640558242798
1739983202524147200,12.438147216796875,3.923887014389038,-0.04041494429111481,-0.6424352526664734
1739983202534129200,12.448129150390624,3.926301956176758,-0.03711584955453873,-0.6131369471549988
1739983202544112000,12.458112060546876,3.887446403503418,-0.013880833052098751,-0.5817723870277405
1739983202554094300,12.46809423828125,3.8005964756011963,0.010464925318956375,-0.5545405745506287
1739983202564076300,12.478076171875,3.666948080062866,0.03365866467356682,-0.5399699211120605
1739983202574059300,12.488059326171875,3.487565517425537,0.04433145746588707,-0.5534007549285889
1739983202584041500,12.49804150390625,3.28193736076355,0.04552828148007393,-0.5967727303504944
1739983202594023200,12.508023193359374,3.062690496444702,0.05446305871009827,-0.6824597120285034
1739983202604006400,12.51800634765625,2.832271099090576,0.0700654610991478,-0.8004694581031799
1739983202613988000,12.527988037109376,2.5876259803771973,0.10714505612850189,-0.933596134185791
1739983202623970300,12.53797021484375,2.3165090084075928,0.12056339532136917,-1.0478434562683105
1739983202633953300,12.547953369140625,2.0080277919769287,0.08479977399110794,-1.1226797103881836
1739983202643935200,12.557935302734375,1.6728317737579346,0.014128800481557846,-1.1552842855453491
1739983202653917400,12.56791748046875,1.3550978899002075,-0.09813286364078522,-1.1530557870864868
