time,seconds_elapsed,z,y,x
1739983190123691000,0.03769091796875,0.7179626822471619,3.4635746479034424,0.9589592814445496
1739983190133673200,0.047673095703125,0.8741112351417542,3.1688098907470703,0.3650203049182892
1739983190143655200,0.0576552734375,1.0070083141326904,2.484196424484253,-0.14251932501792908
1739983190153638100,0.06763818359375,1.1350640058517456,1.802274227142334,-0.5331496596336365
1739983190163620400,0.077620361328125,1.3873910903930664,1.5802688598632812,-0.9230220913887024
1739983190173602000,0.08760205078125,1.7100447416305542,1.7090047597885132,-1.2422914505004883
1739983190183584300,0.097584228515625,2.0280938148498535,1.8895785808563232,-1.3335808515548706
1739983190193566200,0.107566162109375,2.3805556297302246,1.934512734413147,-1.2030086517333984
1739983190203548200,0.117548095703125,2.6849122047424316,1.5567007064819336,-0.9467713236808777
1739983190213531100,0.12753125,2.8653063774108887,0.8416182994842529,-0.6146338582038879
1739983190223513000,0.13751318359375,2.5787899494171143,-0.40165263414382935,-0.46461987495422363
1739983190233495300,0.147495361328125,1.724835991859436,-1.3207670450210571,-0.45003774762153625
1739983190243477000,0.15747705078125,0.6930612921714783,-1.274593472480774,-0.4387781620025635
1739983190253459200,0.167459228515625,-0.12692572176456451,-1.0298452377319336,-0.46389150619506836
1739983190263441200,0.177441162109375,-0.7275188565254211,-0.7258632183074951,-0.6130626201629639
1739983190273424100,0.187424072265625,-1.1632341146469116,-0.2357933521270752,-0.7242186665534973
1739983190283406000,0.197406005859375,-1.2575452327728271,0.5761376023292542,-0.6528201699256897
1739983190293388000,0.207387939453125,-1.1414731740951538,1.3245582580566406,-0.4337083101272583
1739983190303370200,0.217370361328125,-0.8709583282470703,1.7051509618759155,-0.14069825410842896
1739983190313352200,0.227352294921875,-0.5636361837387085,1.7299420833587646,0.2004058063030243
1739983190323334100,0.237334228515625,-0.32343345880508423,1.6037614345550537,0.5705641508102417
1739983190333317000,0.247317138671875,-0.03151211887598038,1.3229092359542847,0.876803457736969
1739983190343299000,0.257299072265625,0.133073627948761,0.7405358552932739,1.0842591524124146
1739983190353281000,0.267281005859375,0.11857644468545914,-0.06450788676738739,1.2009977102279663
1739983190363263200,0.27726318359375,-0.1249251589179039,-0.7477999329566956,1.102985143661499
1739983190373245200,0.2872451171875,-0.6139896512031555,-0.4259805977344513,0.6619803309440613
1739983190383227100,0.29722705078125,-1.2127628326416016,0.6101211309432983,0.09216108918190002
1739983190393210000,0.307210205078125,-1.574828863143921,1.3355281352996826,-0.30087700486183167
1739983190403192000,0.317192138671875,-1.6982141733169556,1.6395117044448853,-0.43100252747535706
1739983190413174300,0.32717431640625,-1.753233551979065,1.6857104301452637,-0.4308414161205292
1739983190423156000,0.337156005859375,-1.8338463306427002,1.85499107837677,-0.3870995044708252
1739983190433138200,0.34713818359375,-1.857612133026123,2.0218610763549805,-0.3020336329936981
1739983190443120000,0.3571201171875,-1.8762129545211792,2.0781376361846924,-0.21644122898578644
1739983190453103000,0.36710302734375,-1.9468094110488892,2.197800397872925,-0.15312723815441132
1739983190463085000,0.3770849609375,-2.131089925765991,2.347634792327881,-0.09815053641796112
1739983190473067000,0.38706689453125,-2.487323045730591,2.4857492446899414,-0.0659441277384758
1739983190483049200,0.39704931640625,-2.93245267868042,2.7361230850219727,-0.12269822508096695
1739983190493031000,0.407031005859375,-3.4321448802948,3.302518606185913,-0.2913775146007538
1739983190503014100,0.41701416015625,-3.799686908721924,3.93886661529541,-0.4807959198951721
1739983190512996000,0.42699609375,-4.072291851043701,4.442305088043213,-0.552830696105957
1739983190522978000,0.43697802734375,-4.408376693725586,4.848727703094482,-0.4677831828594208
1739983190532960300,0.446960205078125,-4.807962417602539,4.934823989868164,-0.25774553418159485
1739983190542942000,0.45694189453125,-5.0671281814575195,4.628538608551025,-0.03671034425497055
1739983190552924200,0.466924072265625,-5.077988624572754,4.20186185836792,0.0883793979883194
1739983190562907100,0.4769072265625,-5.035427093505859,3.8783652782440186,0.12766261398792267
1739983190572889000,0.48688916015625,-5.175644874572754,3.655651330947876,0.1745278686285019
1739983190582871300,0.496871337890625,-5.416010856628418,3.5007190704345703,0.2119482010602951
1739983190592853000,0.50685302734375,-5.519400119781494,3.3984673023223877,0.21344436705112457
1739983190602835200,0.516835205078125,-5.311342239379883,3.1989784240722656,0.18504947423934937
1739983190612817200,0.526817138671875,-4.870156764984131,2.77418851852417,0.1300051361322403
1739983190622800100,0.536800048828125,-4.388627529144287,2.2139699459075928,0.012955212965607643
1739983190632782300,0.5467822265625,-4.05796480178833,1.7119371891021729,-0.18778321146965027
1739983190642764000,0.556763916015625,-3.9078497886657715,1.3218743801116943,-0.4597841203212738
1739983190652746200,0.566746337890625,-3.838472604751587,1.0552120208740234,-0.7907588481903076
1739983190662728200,0.576728271484375,-3.7615365982055664,0.8985180258750916,-1.1371972560882568
1739983190672711200,0.586711181640625,-3.62660551071167,0.8218483328819275,-1.4418623447418213
1739983190682693000,0.596693115234375,-3.4054696559906006,0.8311227560043335,-1.6613121032714844
1739983190692675000,0.606675048828125,-3.0795483589172363,0.8625360727310181,-1.7659649848937988
1739983190702657300,0.6166572265625,-2.7055606842041016,0.8387508392333984,-1.7139668464660645
1739983190712639000,0.626638916015625,-2.296684503555298,0.623506486415863,-1.5149093866348267
1739983190722621200,0.63662109375,-1.9066640138626099,0.25882649421691895,-1.2287849187850952
1739983190732604000,0.64660400390625,-1.6188956499099731,-0.15424203872680664,-0.9230231046676636
1739983190742586000,0.656586181640625,-1.5185933113098145,-0.6525412797927856,-0.6268255710601807
1739983190752568300,0.666568359375,-1.5468188524246216,-1.1770306825637817,-0.35418418049812317
1739983190762550000,0.676550048828125,-1.580058217048645,-1.5419028997421265,-0.09495367854833603
1739983190772532200,0.6865322265625,-1.5627086162567139,-1.6052531003952026,0.17354968190193176
1739983190782515000,0.696514892578125,-1.433918833732605,-1.4492759704589844,0.43057215213775635
1739983190792497200,0.7064970703125,-1.1761696338653564,-1.1648086309432983,0.6941885948181152
1739983190802479000,0.71647900390625,-0.821744978427887,-0.814053475856781,0.9980875253677368
1739983190812461000,0.7264609375,-0.46766093373298645,-0.4873776435852051,1.3409100770950317
1739983190822443000,0.736443115234375,-0.24072766304016113,-0.258225679397583,1.704885721206665
1739983190832425200,0.74642529296875,-0.12052828073501587,-0.09999024868011475,2.055528402328491
1739983190842408200,0.756408203125,-0.058449726551771164,0.03417101874947548,2.338993549346924
1739983190852390100,0.76639013671875,-0.02581907995045185,0.2078099250793457,2.508171558380127
1739983190862372000,0.7763720703125,-0.00010918960470007733,0.42704853415489197,2.5751307010650635
1739983190872354000,0.78635400390625,0.06473585218191147,0.7132360935211182,2.542255163192749
1739983190882336300,0.796336181640625,0.1646222323179245,1.1868020296096802,2.4404311180114746
1739983190892319200,0.8063193359375,0.3328075110912323,1.5458829402923584,2.333181142807007
1739983190902301200,0.81630126953125,0.5356929898262024,1.717909336090088,2.278412342071533
1739983190912283100,0.826283203125,0.7261092662811279,2.0098633766174316,2.214920997619629
1739983190922265000,0.83626513671875,0.8980892896652222,2.2758829593658447,2.1557462215423584
1739983190932247000,0.8462470703125,1.0623080730438232,2.5069520473480225,2.1085736751556396
1739983190942229000,0.85622900390625,1.2262448072433472,2.7649152278900146,2.0989937782287598
1739983190952212000,0.8662119140625,1.3803073167800903,2.979193925857544,2.1393074989318848
1739983190962194200,0.876194091796875,1.5146923065185547,3.135241746902466,2.2180938720703125
1739983190972176100,0.886176025390625,1.6021361351013184,3.3072597980499268,2.3313302993774414
1739983190982158000,0.896157958984375,1.7223008871078491,3.4650354385375977,2.4458727836608887
1739983190992140000,0.90614013671875,1.9600024223327637,3.4765188694000244,2.536257028579712
1739983191002123000,0.916123046875,2.244210958480835,3.382337808609009,2.5619966983795166
1739983191012105200,0.926105224609375,2.5063157081604004,3.254272937774658,2.5266363620758057
1739983191022087200,0.936087158203125,2.727602958679199,3.1156511306762695,2.442095994949341
1739983191032069000,0.946069091796875,2.8995110988616943,2.9966254234313965,2.2982726097106934
1739983191042051000,0.956051025390625,3.021965742111206,2.8616933822631836,2.092209577560425
1739983191052033300,0.966033203125,3.1139979362487793,2.711740493774414,1.8327741622924805
1739983191062016000,0.97601611328125,3.186170816421509,2.5564332008361816,1.5453505516052246
1739983191071998200,0.985998291015625,3.18316650390625,2.4414985179901123,1.2446824312210083
1739983191081980200,0.995980224609375,3.1192383766174316,2.3395800590515137,0.9462496042251587
1739983191091962000,1.005962158203125,3.0313329696655273,2.177314281463623,0.6457291841506958
1739983191101944300,1.0159443359375,2.9255893230438232,1.9099485874176025,0.3149523437023163
1739983191111927000,1.025927001953125,2.8256146907806396,1.5667400360107422,-0.03376994654536247
1739983191121909200,1.0359091796875,2.7695436477661133,1.2423609495162964,-0.3665446937084198
1739983191131891000,1.045890869140625,2.739872932434082,0.9895041584968567,-0.6802674531936646
1739983191141873200,1.055873046875,2.707322120666504,0.8238850831985474,-0.9960986971855164
1739983191151855000,1.065855224609375,2.668095827102661,0.7378095984458923,-1.3028171062469482
1739983191161837000,1.075837158203125,2.62802791595459,0.7093393206596375,-1.5684202909469604
1739983191171820300,1.0858203125,2.5892789363861084,0.7123873233795166,-1.768724799156189
1739983191181802000,1.095802001953125,2.569956064224243,0.7057486176490784,-1.8880336284637451
1739983191191784200,1.1057841796875,2.5484659671783447,0.6938788890838623,-1.9309356212615967
1739983191201766000,1.115765869140625,2.5138258934020996,0.682393491268158,-1.9004464149475098
1739983191211748000,1.125748046875,2.4130165576934814,0.6811298131942749,-1.8286951780319214
1739983191221731000,1.13573095703125,2.286940336227417,0.6863282918930054,-1.7361005544662476
1739983191231713000,1.145713134765625,2.1688170433044434,0.6116859912872314,-1.6480196714401245
1739983191241695200,1.1556953125,2.050652503967285,0.4372316598892212,-1.5594637393951416
1739983191251677000,1.165677001953125,1.8477474451065063,0.2390088587999344,-1.470373511314392
1739983191261659100,1.1756591796875,1.5454435348510742,0.1382143348455429,-1.3826773166656494
1739983191271642000,1.18564208984375,1.2191349267959595,0.07469900697469711,-1.2945266962051392
1739983191281624000,1.1956240234375,0.9031234383583069,-0.022227540612220764,-1.1757960319519043
1739983191291606300,1.205606201171875,0.5741775035858154,-0.17012326419353485,-1.008625864982605
1739983191301588000,1.215587890625,0.21466223895549774,-0.3378092050552368,-0.7752342224121094
1739983191311570200,1.225570068359375,-0.14985767006874084,-0.4897758364677429,-0.4969668984413147
1739983191321552100,1.23555224609375,-0.44544458389282227,-0.5949235558509827,-0.22094117105007172
1739983191331535000,1.24553515625,-0.6661154627799988,-0.613652229309082,0.033670876175165176
1739983191341517300,1.255517333984375,-0.8318295478820801,-0.5790036916732788,0.2781895399093628
1739983191351499000,1.2654990234375,-0.9555214047431946,-0.5286512970924377,0.5177677869796753
1739983191361481200,1.275481201171875,-1.0194791555404663,-0.4832843840122223,0.7328095436096191
1739983191371463200,1.285463134765625,-1.0174670219421387,-0.4844822585582733,0.9007058143615723
1739983191381446100,1.295446044921875,-0.9782014489173889,-0.5111415982246399,0.987849771976471
1739983191391428400,1.305428466796875,-0.9370619654655457,-0.5461261868476868,0.9826710224151611
1739983191401410000,1.31541015625,-0.9067797064781189,-0.5797510147094727,0.8840547204017639
1739983191411392300,1.325392333984375,-0.906776487827301,-0.606936514377594,0.7113785147666931
1739983191421374200,1.335374267578125,-0.9402564167976379,-0.6436623334884644,0.5066543817520142
1739983191431357200,1.345357177734375,-0.9854236841201782,-0.6882561445236206,0.2886890470981598
1739983191441339100,1.355339111328125,-1.0324805974960327,-0.7744868993759155,0.06722990423440933
1739983191451321000,1.365321044921875,-1.0836127996444702,-0.9169489741325378,-0.14489194750785828
1739983191461303300,1.37530322265625,-1.1427924633026123,-1.0875718593597412,-0.37343618273735046
1739983191471285000,1.385284912109375,-1.1862683296203613,-1.2940376996994019,-0.6061152219772339
1739983191481268200,1.395268310546875,-1.2033703327178955,-1.496824860572815,-0.8401349186897278
1739983191491250000,1.40525,-1.2042568922042847,-1.6274631023406982,-1.043506145477295
1739983191501231600,1.415231689453125,-1.2149748802185059,-1.670092225074768,-1.1899144649505615
1739983191511213600,1.425213623046875,-1.230076551437378,-1.6519172191619873,-1.2793439626693726
1739983191521195800,1.43519580078125,-1.2446306943893433,-1.5977472066879272,-1.3265644311904907
1739983191531177500,1.445177490234375,-1.2663003206253052,-1.5513291358947754,-1.345647931098938
1739983191541160700,1.45516064453125,-1.2934176921844482,-1.546117901802063,-1.3599658012390137
1739983191551142700,1.465142578125,-1.3423622846603394,-1.5942881107330322,-1.3984652757644653
1739983191561124600,1.47512451171875,-1.430035948753357,-1.6323139667510986,-1.4731158018112183
1739983191571106600,1.4851064453125,-1.5522186756134033,-1.5890874862670898,-1.6061404943466187
1739983191581088500,1.495088623046875,-1.7036573886871338,-1.4363412857055664,-1.7904930114746094
1739983191591071500,1.505071533203125,-1.8743791580200195,-1.2574106454849243,-1.9882560968399048
1739983191601053700,1.5150537109375,-2.018110990524292,-1.1009217500686646,-2.1588315963745117
1739983191611035600,1.52503564453125,-2.122659206390381,-0.9885009527206421,-2.2853310108184814
1739983191621017600,1.535017578125,-2.1907618045806885,-0.9158725142478943,-2.368077039718628
1739983191630999600,1.54499951171875,-2.270171880722046,-0.8476748466491699,-2.423750400543213
1739983191640982500,1.554982421875,-2.3582570552825928,-0.7606112957000732,-2.4252126216888428
1739983191650964700,1.56496484375,-2.398575782775879,-0.7390586137771606,-2.3814475536346436
1739983191660946700,1.57494677734375,-2.3586671352386475,-0.8109155297279358,-2.3326406478881836
1739983191670928600,1.5849287109375,-2.1790053844451904,-0.8229897618293762,-2.288666009902954
1739983191680910600,1.59491064453125,-1.9523833990097046,-1.0889923572540283,-2.3555634021759033
1739983191690893600,1.6048935546875,-1.6503527164459229,-1.2714143991470337,-2.5320827960968018
1739983191700875500,1.61487548828125,-1.3116896152496338,-1.3459022045135498,-2.8190932273864746
1739983191710857700,1.624857666015625,-1.1127365827560425,-1.3203824758529663,-3.2072010040283203
1739983191720839700,1.634839599609375,-1.1593339443206787,-1.2810853719711304,-3.6442267894744873
1739983191730821600,1.644821533203125,-1.3893221616744995,-1.2245243787765503,-4.071191787719727
1739983191740804600,1.6548046875,-1.7204649448394775,-1.1804301738739014,-4.422700881958008
1739983191750786600,1.66478662109375,-2.069061517715454,-1.132331132888794,-4.603530406951904
1739983191760768800,1.674768798828125,-2.3396663665771484,-1.0055656433105469,-4.528934478759766
1739983191770750500,1.68475048828125,-2.487135171890259,-0.7048354148864746,-4.180294513702393
1739983191780732700,1.694732666015625,-2.476199150085449,-0.27363234758377075,-3.5761468410491943
1739983191790714600,1.704714599609375,-2.3320529460906982,0.19882255792617798,-2.7623884677886963
1739983191800697600,1.714697509765625,-2.098909616470337,0.6907728314399719,-1.7813572883605957
1739983191810679600,1.724679443359375,-1.7950483560562134,1.1104258298873901,-0.6638328433036804
1739983191820661500,1.73466162109375,-1.3445634841918945,1.338340401649475,0.47313186526298523
1739983191830643700,1.744643798828125,-0.7374055981636047,1.365617275238037,1.48875892162323
1739983191840625400,1.75462548828125,-0.05873442068696022,1.3666796684265137,2.2188467979431152
1739983191850608600,1.764608642578125,0.5763498544692993,1.5581668615341187,2.535337209701538
1739983191860590600,1.774590576171875,1.0837608575820923,1.9644567966461182,2.452681303024292
1739983191870572500,1.784572509765625,1.4322954416275024,2.357174873352051,2.1267051696777344
1739983191880554800,1.7945546875,1.6232293844223022,2.5652456283569336,1.7197504043579102
1739983191890536400,1.804536376953125,1.7694215774536133,2.4915695190429688,1.3111742734909058
1739983191900519700,1.814519775390625,1.9271684885025024,2.1239888668060303,0.9027058482170105
1739983191910501600,1.824501708984375,2.005991220474243,1.5818651914596558,0.4514308273792267
1739983191920483600,1.834483642578125,1.9431307315826416,0.9877914786338806,-0.024532241746783257
1739983191930465800,1.8444658203125,1.7315984964370728,0.383669376373291,-0.5071524381637573
1739983191940447500,1.854447509765625,1.4110279083251953,-0.18085633218288422,-0.9662257432937622
1739983191950430700,1.8644306640625,1.0740249156951904,-0.6214348077774048,-1.3600037097930908
1739983191960412700,1.87441259765625,0.7761817574501038,-1.012712836265564,-1.6107118129730225
1739983191970394600,1.88439453125,0.5995928645133972,-1.2958641052246094,-1.666287899017334
1739983191980376800,1.894376953125,0.5341547727584839,-1.443111538887024,-1.5280081033706665
1739983191990358500,1.904358642578125,0.5881407260894775,-1.5267963409423828,-1.1999578475952148
1739983192000341800,1.914341796875,0.7847281098365784,-1.5515285730361938,-0.694348156452179
1739983192010323500,1.924323486328125,1.1014903783798218,-1.524093747138977,-0.06052752584218979
1739983192020305700,1.9343056640625,1.489801287651062,-1.4702223539352417,0.6706569194793701
1739983192030287600,1.94428759765625,1.8776369094848633,-1.4607726335525513,1.4540185928344727
1739983192040269600,1.95426953125,2.2728004455566406,-1.422861933708191,2.209437608718872
1739983192050252800,1.964252685546875,2.6853911876678467,-1.2587478160858154,2.858232259750366
1739983192060234500,1.974234375,3.1254258155822754,-0.94016432762146,3.3752424716949463
1739983192070216700,1.984216796875,3.5832624435424805,-0.5704613327980042,3.768357753753662
1739983192080198400,1.994198486328125,4.000685691833496,-0.23198077082633972,4.056312084197998
1739983192090180600,2.0041806640625,4.381499767303467,0.0907493457198143,4.231344223022461
1739983192100163600,2.01416357421875,4.720562934875488,0.4807746112346649,4.273825645446777
1739983192110145500,2.0241455078125,5.023894309997559,0.986639142036438,4.207706928253174
1739983192120127700,2.034127685546875,5.27116584777832,1.501076102256775,4.0707244873046875
1739983192130109400,2.044109375,5.4524922370910645,1.9266694784164429,3.897047758102417
1739983192140091600,2.054091552734375,5.564545154571533,2.24937105178833,3.6721973419189453
1739983192150074600,2.06407470703125,5.608126163482666,2.4586193561553955,3.371250867843628
1739983192160056600,2.074056640625,5.5800395011901855,2.533613681793213,2.9609618186950684
1739983192170038800,2.084038818359375,5.436460971832275,2.4223737716674805,2.473385810852051
1739983192180020500,2.0940205078125,5.152115345001221,2.0485172271728516,1.9607502222061157
1739983192190002700,2.104002685546875,4.735281467437744,1.4774104356765747,1.4403765201568604
1739983192199985700,2.113985595703125,4.221294403076172,0.832654595375061,0.9612056612968445
1739983192209967600,2.123967529296875,3.617539167404175,0.23842908442020416,0.5803917646408081
1739983192219949800,2.13394970703125,2.870283603668213,-0.1387893110513687,0.31498751044273376
1739983192229931500,2.143931640625,2.0813982486724854,-0.38199371099472046,0.2683805823326111
1739983192239913700,2.153913818359375,1.3527729511260986,-0.6160027384757996,0.46948814392089844
1739983192249896400,2.163896484375,0.7029581665992737,-0.8057950139045715,0.8550499677658081
1739983192259878700,2.173878662109375,0.18969589471817017,-0.9188864231109619,1.3438414335250854
1739983192269860900,2.18386083984375,-0.15837153792381287,-0.9751039147377014,1.8540573120117188
1739983192279842600,2.193842529296875,-0.38477325439453125,-0.923050582408905,2.3161375522613525
1739983192289824800,2.20382470703125,-0.541407585144043,-0.7849435806274414,2.68204665184021
1739983192299807500,2.213807373046875,-0.6756485104560852,-0.6187122464179993,2.922344207763672
1739983192309789700,2.223789794921875,-0.840117335319519,-0.4222545623779297,3.0086023807525635
1739983192319771600,2.233771728515625,-1.0891846418380737,-0.136283278465271,2.909224271774292
1739983192329753600,2.243753662109375,-1.4136450290679932,0.27305418252944946,2.5806548595428467
1739983192339735600,2.253735595703125,-1.7532422542572021,0.7218053340911865,2.0719058513641357
1739983192349718500,2.263718505859375,-2.0785648822784424,1.0848472118377686,1.5241994857788086
1739983192359700700,2.27370068359375,-2.393733024597168,1.2463940382003784,1.0509110689163208
1739983192369682400,2.283682373046875,-2.6801109313964844,1.2420048713684082,0.693149209022522
1739983192379664600,2.29366455078125,-2.9190289974212646,1.1690810918807983,0.41737860441207886
1739983192389646600,2.303646484375,-3.104567050933838,1.0598920583724976,0.15291418135166168
1739983192399629600,2.313629638671875,-3.2267682552337646,0.8862614035606384,-0.13654160499572754
1739983192409611800,2.32361181640625,-3.350905656814575,0.6400519013404846,-0.47835832834243774
1739983192419593500,2.333593505859375,-3.5185837745666504,0.36332014203071594,-0.875542163848877
1739983192429575700,2.34357568359375,-3.6824917793273926,0.09431824833154678,-1.282523512840271
1739983192439558700,2.35355859375,-3.7977492809295654,-0.1123822033405304,-1.6872785091400146
1739983192449540600,2.36354052734375,-3.8680691719055176,-0.2864549458026886,-2.072033166885376
1739983192459522800,2.373522705078125,-3.940274953842163,-0.48239248991012573,-2.393686294555664
1739983192469504500,2.38350439453125,-4.035923004150391,-0.6943084597587585,-2.6374270915985107
1739983192479486700,2.39348681640625,-4.1476731300354,-0.9369357228279114,-2.7825095653533936
1739983192489469400,2.403469482421875,-4.276318073272705,-1.2485709190368652,-2.8647427558898926
1739983192499451600,2.41345166015625,-4.40944242477417,-1.5819599628448486,-2.9279353618621826
1739983192509434400,2.423434326171875,-4.5214457511901855,-1.8903164863586426,-2.99729061126709
1739983192519416600,2.43341650390625,-4.589955806732178,-2.1694986820220947,-3.091643810272217
1739983192529398500,2.4433984375,-4.572390079498291,-2.4118502140045166,-3.226428747177124
1739983192539381500,2.453381591796875,-4.497560977935791,-2.579103946685791,-3.3983347415924072
1739983192549363700,2.46336376953125,-4.414223670959473,-2.613131284713745,-3.5701892375946045
1739983192559345400,2.473345458984375,-4.340790748596191,-2.5071122646331787,-3.695890426635742
1739983192569327600,2.48332763671875,-4.309299468994141,-2.299008369445801,-3.7455999851226807
1739983192579309600,2.4933095703125,-4.247610569000244,-2.0091452598571777,-3.700493574142456
1739983192589292500,2.50329248046875,-4.135017395019531,-1.6673657894134521,-3.5784800052642822
1739983192599274500,2.5132744140625,-3.9325878620147705,-1.257352352142334,-3.4016857147216797
1739983192609256400,2.52325634765625,-3.6221485137939453,-0.8368973135948181,-3.218060255050659
1739983192619238700,2.53323876953125,-3.236426830291748,-0.46482333540916443,-3.07791805267334
1739983192629220600,2.543220703125,-2.855182409286499,-0.0909259095788002,-3.014122486114502
1739983192639202600,2.55320263671875,-2.603989839553833,0.30153030157089233,-3.0171406269073486
1739983192649185500,2.563185546875,-2.5162878036499023,0.6430455446243286,-3.067474365234375
1739983192659167500,2.57316748046875,-2.5270872116088867,0.828913688659668,-3.057314157485962
1739983192669149400,2.5831494140625,-2.541761636734009,0.8200101852416992,-2.9518508911132812
1739983192679131400,2.59313134765625,-2.48122501373291,0.6415914297103882,-2.793576955795288
1739983192689114600,2.603114501953125,-2.379223585128784,0.4154944121837616,-2.637641429901123
1739983192699096300,2.613096435546875,-2.2777910232543945,0.26089897751808167,-2.4775047302246094
1739983192709078500,2.62307861328125,-2.210991621017456,0.2229718267917633,-2.2361512184143066
1739983192719060500,2.633060546875,-2.1417059898376465,0.2101186215877533,-1.8868205547332764
1739983192729042400,2.64304248046875,-2.050043821334839,0.21512934565544128,-1.4638466835021973
1739983192739025700,2.653025634765625,-1.9337724447250366,0.2661387324333191,-1.0058085918426514
1739983192749007400,2.66300732421875,-1.8003714084625244,0.3466990888118744,-0.5249351263046265
1739983192758989600,2.672989501953125,-1.5989350080490112,0.42046546936035156,-0.04036952555179596
1739983192768971500,2.682971435546875,-1.3271421194076538,0.4930131733417511,0.41409891843795776
1739983192778953500,2.692953369140625,-1.0524663925170898,0.5266872644424438,0.7794721126556396
1739983192788936700,2.702936767578125,-0.7862610220909119,0.6009300351142883,1.0408565998077393
1739983192798918400,2.71291845703125,-0.4866926968097687,0.6951164603233337,1.2261677980422974
1739983192808900600,2.722900634765625,-0.17228521406650543,0.7371885776519775,1.347301959991455
1739983192818882600,2.732882568359375,0.12106623500585556,0.7241968512535095,1.4199391603469849
1739983192828864500,2.742864501953125,0.36984384059906006,0.6833127737045288,1.4791496992111206
1739983192838847500,2.752847412109375,0.6278479695320129,0.6965311169624329,1.5069094896316528
1739983192848829400,2.762829345703125,0.888688862323761,0.48455044627189636,1.5872924327850342
1739983192858811600,2.772811767578125,1.150133728981018,0.30479344725608826,1.721916913986206
1739983192868793600,2.782793701171875,1.4997884035110474,0.23677632212638855,1.8785881996154785
1739983192878776600,2.792776611328125,1.9302055835723877,0.2921908497810364,2.063432216644287
1739983192888758500,2.802758544921875,2.4587552547454834,0.4512907564640045,2.2650978565216064
1739983192898740500,2.812740478515625,3.0137035846710205,0.5862778425216675,2.4701762199401855
1739983192908722400,2.822722412109375,3.510378837585449,0.7135399580001831,2.6090457439422607
1739983192918704400,2.832704345703125,3.8842124938964844,0.7638630270957947,2.6778934001922607
1739983192928687600,2.8426875,4.1317057609558105,0.8127456307411194,2.6881518363952637
1739983192938669600,2.852669677734375,4.277390480041504,0.8890992403030396,2.6381912231445312
1739983192948651500,2.862651611328125,4.357179641723633,0.9392707943916321,2.5604567527770996
1739983192958633500,2.872633544921875,4.409054279327393,0.9300855398178101,2.464379072189331
1739983192968615400,2.882615478515625,4.470617294311523,0.8722041845321655,2.3740320205688477
1739983192978598700,2.8925986328125,4.508793830871582,0.769739031791687,2.2936480045318604
1739983192988580400,2.902580322265625,4.496976375579834,0.6421339511871338,2.239161968231201
1739983192998562600,2.9125625,4.453805446624756,0.5155512094497681,2.203808546066284
1739983193008544500,2.92254443359375,4.415839195251465,0.3697444796562195,2.170351266860962
1739983193018527500,2.932527587890625,4.387555122375488,0.2136307954788208,2.108429431915283
1739983193028509700,2.942509765625,4.3641533851623535,0.056295495480298996,2.012624740600586
1739983193038491400,2.952491455078125,4.346522331237793,-0.08636897802352905,1.8964742422103882
1739983193048473600,2.9624736328125,4.35003662109375,-0.18821944296360016,1.773054838180542
1739983193058455600,2.97245556640625,4.351285457611084,-0.23484739661216736,1.6845401525497437
1739983193068438500,2.9824384765625,4.34622859954834,-0.23574595153331757,1.628678798675537
1739983193078420500,2.99242041015625,4.332914352416992,-0.2117207795381546,1.611812949180603
1739983193088402400,3.00240234375,4.351612567901611,-0.16923242807388306,1.6298927068710327
1739983193098384600,3.012384521484375,4.405419826507568,-0.07843861728906631,1.6689702272415161
1739983193108367400,3.022367431640625,4.474583625793457,0.06412572413682938,1.7250034809112549
1739983193118349600,3.032349609375,4.539865493774414,0.21483667194843292,1.7812180519104004
1739983193128331500,3.04233154296875,4.5892133712768555,0.368920236825943,1.8276445865631104
1739983193138313500,3.0523134765625,4.622088432312012,0.526524007320404,1.8533095121383667
1739983193148295400,3.06229541015625,4.635447978973389,0.6573458909988403,1.8624359369277954
1739983193158278400,3.0722783203125,4.609847545623779,0.7487986087799072,1.8633134365081787
1739983193168260600,3.082260498046875,4.525169849395752,0.787219226360321,1.8289275169372559
1739983193178242600,3.09224267578125,4.40072774887085,0.7919875979423523,1.7343138456344604
1739983193188224500,3.102224609375,4.247147083282471,0.7798007130622864,1.5905554294586182
1739983193198207700,3.112207763671875,4.050780773162842,0.76076740026474,1.4101709127426147
1739983193208189400,3.122189453125,3.827984094619751,0.7592189908027649,1.2010846138000488
1739983193218171600,3.132171630859375,3.5814599990844727,0.7713643908500671,0.988289475440979
1739983193228153300,3.1421533203125,3.310842752456665,0.7799967527389526,0.8078930974006653
1739983193238135600,3.152135498046875,3.002659559249878,0.7752464413642883,0.6998867392539978
1739983193248118500,3.162118408203125,2.644087314605713,0.7923269271850586,0.6738862991333008
1739983193258100500,3.1721005859375,2.256131172180176,0.8316165208816528,0.7125473618507385
1739983193268082700,3.182082763671875,1.8876062631607056,0.8323318362236023,0.7934451699256897
1739983193278064400,3.192064453125,1.5177019834518433,0.8040653467178345,0.8996198177337646
1739983193288046600,3.202046630859375,1.1449671983718872,0.7488739490509033,1.0033822059631348
1739983193298029300,3.212029296875,0.7561041712760925,0.6657705307006836,1.0599822998046875
1739983193308011500,3.222011474609375,0.3195337951183319,0.5761362910270691,1.0526751279830933
1739983193317993500,3.231993408203125,-0.17316246032714844,0.522796094417572,0.9536612033843994
1739983193327975400,3.241975341796875,-0.7040934562683105,0.4956243932247162,0.7909404635429382
1739983193337958700,3.251958740234375,-1.261244535446167,0.40071600675582886,0.5781360268592834
1739983193347940400,3.2619404296875,-1.8033368587493896,0.20368921756744385,0.34692707657814026
1739983193357922600,3.271922607421875,-2.2173855304718018,-0.04175197333097458,0.14061516523361206
1739983193367904500,3.281904541015625,-2.454188108444214,-0.2744118571281433,0.00401711231097579
1739983193377886500,3.291886474609375,-2.613311529159546,-0.5169360637664795,-0.01751081645488739
1739983193387869700,3.30186962890625,-2.7548978328704834,-0.64525306224823,0.06609592586755753
1739983193397851400,3.311851318359375,-2.9331626892089844,-0.7354588508605957,0.20538458228111267
1739983193407833600,3.32183349609375,-3.1829683780670166,-0.7712416052818298,0.29127657413482666
1739983193417815600,3.331815673828125,-3.4887752532958984,-0.8216539025306702,0.26109445095062256
1739983193427798500,3.341798583984375,-3.802806854248047,-0.884876012802124,0.1375512033700943
1739983193437780700,3.35178076171875,-4.110448360443115,-0.9296213984489441,-0.02660178393125534
1739983193447762400,3.361762451171875,-4.371042728424072,-1.0191099643707275,-0.18973025679588318
1739983193457744600,3.37174462890625,-4.548077583312988,-1.1505016088485718,-0.31832924485206604
1739983193467726600,3.3817265625,-4.659634590148926,-1.3530802726745605,-0.44096675515174866
1739983193477709600,3.39170947265625,-4.761454105377197,-1.619211196899414,-0.5875293016433716
1739983193487691500,3.40169140625,-4.9066290855407715,-1.91246497631073,-0.7783767580986023
1739983193497673500,3.411673583984375,-5.080733776092529,-2.157346248626709,-0.9958859086036682
1739983193507655200,3.4216552734375,-5.237814426422119,-2.345273017883301,-1.221161127090454
1739983193517638100,3.43163818359375,-5.356099605560303,-2.516315460205078,-1.420292854309082
1739983193527620000,3.4416201171875,-5.42137336730957,-2.561906099319458,-1.5701388120651245
1739983193537602300,3.451602294921875,-5.431621551513672,-2.4721148014068604,-1.6292023658752441
1739983193547584000,3.461583984375,-5.390394687652588,-2.283228874206543,-1.5928558111190796
1739983193557566200,3.471566162109375,-5.300709247589111,-2.0131945610046387,-1.449655294418335
1739983193567549200,3.481549072265625,-5.143014430999756,-1.6931216716766357,-1.231328010559082
1739983193577531100,3.49153125,-4.926795959472656,-1.3846256732940674,-0.9748948216438293
1739983193587513000,3.50151318359375,-4.699607849121094,-1.0995837450027466,-0.7153967022895813
1739983193597495000,3.5114951171875,-4.486860752105713,-0.8394486308097839,-0.523836612701416
1739983193607478000,3.52147802734375,-4.294708251953125,-0.577643096446991,-0.43924421072006226
1739983193617460000,3.5314599609375,-4.113376617431641,-0.3382784426212311,-0.4829610586166382
1739983193627442200,3.541442138671875,-3.9247453212738037,-0.12383512407541275,-0.612235426902771
1739983193637424000,3.551424072265625,-3.7268922328948975,0.022841399535536766,-0.7857739329338074
1739983193647406000,3.561406005859375,-3.5391180515289307,0.06250359117984772,-1.0022870302200317
1739983193657389000,3.57138916015625,-3.35526704788208,0.02207547426223755,-1.2474209070205688
1739983193667371000,3.58137109375,-3.185433864593506,-0.0646628811955452,-1.5082354545593262
1739983193677353200,3.591353271484375,-3.029925584793091,-0.2183331400156021,-1.7478312253952026
1739983193687335000,3.6013349609375,-2.899696111679077,-0.4065278172492981,-1.9249807596206665
1739983193697318100,3.611318115234375,-2.792552947998047,-0.598861038684845,-2.0388855934143066
1739983193707300000,3.621300048828125,-2.7016642093658447,-0.7328923344612122,-2.1525442600250244
1739983193717282000,3.631281982421875,-2.5965301990509033,-0.8266896605491638,-2.3463549613952637
1739983193727264300,3.64126416015625,-2.4933252334594727,-0.8862249255180359,-2.602849006652832
1739983193737246000,3.651245849609375,-2.427365779876709,-0.8976874351501465,-2.8600914478302
1739983193747229200,3.661229248046875,-2.40982985496521,-0.8801116347312927,-3.0456764698028564
1739983193757211100,3.671211181640625,-2.414074182510376,-0.8426837921142578,-3.123175621032715
1739983193767193000,3.681193115234375,-2.38850998878479,-0.7627197504043579,-3.086623191833496
1739983193777175300,3.69117529296875,-2.273031711578369,-0.6823468804359436,-2.9400475025177
1739983193787157000,3.701156982421875,-2.058708906173706,-0.6278032064437866,-2.724900960922241
1739983193797140200,3.71114013671875,-1.7320480346679688,-0.5669196248054504,-2.4717066287994385
1739983193807122200,3.7211220703125,-1.3667877912521362,-0.5015158653259277,-2.225252866744995
1739983193817104100,3.731104248046875,-1.0442891120910645,-0.39164313673973083,-2.028245687484741
1739983193827086300,3.74108642578125,-0.7994234561920166,-0.264045774936676,-1.8682245016098022
1739983193837069000,3.751069091796875,-0.6100143790245056,-0.20057465136051178,-1.6838182210922241
1739983193847051300,3.76105126953125,-0.44708508253097534,-0.24312689900398254,-1.420973777770996
1739983193857033000,3.771032958984375,-0.26302072405815125,-0.38272741436958313,-1.066060185432434
1739983193867015200,3.78101513671875,-0.030526217073202133,-0.5406315326690674,-0.6231048703193665
1739983193876997000,3.7909970703125,0.26349741220474243,-0.6263280510902405,-0.11961375176906586
1739983193886980000,3.80097998046875,0.6810746788978577,-0.6014043688774109,0.4101656973361969
1739983193896962000,3.810962158203125,1.2669527530670166,-0.5332761406898499,0.9319431185722351
1739983193906944000,3.820944091796875,1.9639883041381836,-0.4568336009979248,1.4287960529327393
1739983193916926200,3.83092626953125,2.6433908939361572,-0.3325393497943878,1.8920388221740723
1739983193926909200,3.8409091796875,3.197516918182373,-0.13814401626586914,2.2902002334594727
1739983193936891100,3.85089111328125,3.613008737564087,0.07867350429296494,2.619786262512207
1739983193946873000,3.860873046875,3.9115183353424072,0.3597685694694519,2.9054489135742188
1739983193956855000,3.87085498046875,4.093238830566406,0.6165446639060974,3.135136365890503
1739983193966838000,3.880838134765625,4.186934471130371,0.81606525182724,3.3055760860443115
1739983193976820200,3.8908203125,4.208588600158691,0.9904032349586487,3.4091098308563232
1739983193986802200,3.90080224609375,4.177929878234863,1.1047172546386719,3.464603900909424
1739983193996784000,3.9107841796875,4.124423027038574,1.1281672716140747,3.531198024749756
1739983194006767000,3.92076708984375,4.088321208953857,1.0318694114685059,3.6383771896362305
1739983194016749000,3.9307490234375,4.070796012878418,0.8722478151321411,3.761112689971924
1739983194026731000,3.94073095703125,4.066725730895996,0.7172534465789795,3.864217519760132
1739983194036713200,3.950713134765625,4.116079330444336,0.6219319701194763,3.908541202545166
1739983194046695200,3.960695068359375,4.232760429382324,0.623220682144165,3.849229574203491
1739983194056678100,3.97067822265625,4.385844707489014,0.6914618015289307,3.68398118019104
1739983194066660000,3.98066015625,4.5287275314331055,0.8185020685195923,3.458076000213623
1739983194076642000,3.99064208984375,4.614173889160156,0.9843581318855286,3.2152791023254395
1739983194086624300,4.000624267578125,4.658143520355225,1.1780730485916138,2.999905586242676
1739983194096607200,4.010607177734375,4.674770355224609,1.4119017124176025,2.826343059539795
1739983194106589200,4.020589111328125,4.6959028244018555,1.675166130065918,2.6849241256713867
1739983194116571100,4.030571044921875,4.712862014770508,1.9274699687957764,2.5290451049804688
1739983194126553000,4.040552978515625,4.743743896484375,2.143815517425537,2.3370301723480225
1739983194136536000,4.0505361328125,4.765879154205322,2.3299028873443604,2.096689462661743
1739983194146518300,4.060518310546875,4.7655510902404785,2.489191770553589,1.8161557912826538
1739983194156500200,4.070500244140625,4.730970859527588,2.594548463821411,1.5065501928329468
1739983194166482200,4.080482177734375,4.657837390899658,2.6257565021514893,1.1810940504074097
1739983194176464100,4.090464111328125,4.544545650482178,2.6082165241241455,0.861200749874115
1739983194186447000,4.100447021484375,4.403289794921875,2.5511770248413086,0.5518216490745544
1739983194196429000,4.110428955078125,4.22767448425293,2.43607234954834,0.27044665813446045
1739983194206411000,4.120410888671875,4.0135273933410645,2.3040781021118164,0.01775635965168476
1739983194216393200,4.130393310546875,3.7706000804901123,2.1997265815734863,-0.2341800034046173
1739983194226376000,4.1403759765625,3.5185348987579346,2.1367547512054443,-0.5172362327575684
1739983194236358100,4.150358154296875,3.274564027786255,2.073590040206909,-0.8322564959526062
1739983194246340000,4.160340087890625,3.039839029312134,2.013040781021118,-1.1357122659683228
1739983194256322000,4.170322021484375,2.7910263538360596,1.9373942613601685,-1.3734065294265747
1739983194266304000,4.180303955078125,2.5243358612060547,1.8258062601089478,-1.5206183195114136
1739983194276287000,4.190286865234375,2.268284320831299,1.6608936786651611,-1.617252230644226
1739983194286269200,4.200269287109375,2.0464425086975098,1.4597721099853516,-1.680393934249878
1739983194296251100,4.210251220703125,1.8334468603134155,1.2183998823165894,-1.6893945932388306
1739983194306233000,4.220233154296875,1.6303619146347046,0.9540383219718933,-1.6219537258148193
1739983194316216300,4.23021630859375,1.440833568572998,0.6967892050743103,-1.4891117811203003
1739983194326198000,4.240197998046875,1.252332091331482,0.46193939447402954,-1.3240666389465332
1739983194336180200,4.25018017578125,1.0514202117919922,0.2392496019601822,-1.1535309553146362
1739983194346162200,4.260162109375,0.8166932463645935,0.06605198979377747,-0.9887624382972717
1739983194356145200,4.270145263671875,0.5008798837661743,-0.07511898875236511,-0.8393650054931641
1739983194366127000,4.280127197265625,0.11218832433223724,-0.22785766422748566,-0.7076349258422852
1739983194376109000,4.290109130859375,-0.3327057957649231,-0.40557464957237244,-0.5793421864509583
1739983194386091300,4.30009130859375,-0.8164897561073303,-0.600343644618988,-0.4589713215827942
1739983194396073200,4.3100732421875,-1.3178313970565796,-0.793505072593689,-0.35051408410072327
1739983194406056200,4.32005615234375,-1.7930834293365479,-0.958176851272583,-0.2760973572731018
1739983194416038100,4.3300380859375,-2.1924870014190674,-1.0705313682556152,-0.23713265359401703
1739983194426020000,4.34002001953125,-2.4988880157470703,-1.1680253744125366,-0.23348651826381683
1739983194436002000,4.350001953125,-2.7612476348876953,-1.2484915256500244,-0.24783296883106232
1739983194445985000,4.359985107421875,-3.015099287033081,-1.3101303577423096,-0.26926955580711365
1739983194455967200,4.36996728515625,-3.3012306690216064,-1.322350263595581,-0.2985408902168274
1739983194465949200,4.37994921875,-3.640615940093994,-1.2882412672042847,-0.3485236167907715
1739983194475931100,4.38993115234375,-4.017719268798828,-1.2060165405273438,-0.43092477321624756
1739983194485913000,4.3999130859375,-4.400362968444824,-1.0957940816879272,-0.5471038222312927
1739983194495896000,4.40989599609375,-4.767074108123779,-0.98635333776474,-0.6935683488845825
1739983194505878000,4.4198779296875,-5.086355209350586,-0.9062572121620178,-0.8587954044342041
1739983194515860000,4.42985986328125,-5.326179027557373,-0.8724079132080078,-1.029017686843872
1739983194525842000,4.439842041015625,-5.511653423309326,-0.8459115624427795,-1.2102437019348145
1739983194535825000,4.449824951171875,-5.678027629852295,-0.7723891735076904,-1.3801469802856445
1739983194545806800,4.459806884765625,-5.847111701965332,-0.6411613821983337,-1.4881442785263062
1739983194555789000,4.4697890625,-6.004822731018066,-0.4886290729045868,-1.492340087890625
1739983194565770800,4.479770751953125,-6.147231101989746,-0.43256738781929016,-1.3693145513534546
1739983194575754000,4.48975390625,-6.283996105194092,-0.4675954282283783,-1.1368736028671265
1739983194585735700,4.499735595703125,-6.388570785522461,-0.5628244876861572,-0.8346229791641235
1739983194595718000,4.5097177734375,-6.445397853851318,-0.648625910282135,-0.4809996485710144
1739983194605699800,4.519699951171875,-6.423407077789307,-0.6741584539413452,-0.12031921744346619
1739983194615682800,4.529682861328125,-6.314568042755127,-0.6422186493873596,0.2041776329278946
1739983194625665000,4.5396650390625,-6.107421875,-0.5670961737632751,0.48298582434654236
1739983194635646700,4.549646728515625,-5.793262481689453,-0.420922189950943,0.7262693047523499
1739983194645629000,4.55962890625,-5.414649486541748,-0.21740210056304932,0.9274735450744629
1739983194655611000,4.56961083984375,-5.01887845993042,0.026334401220083237,1.0789083242416382
1739983194665593900,4.57959375,-4.6417436599731445,0.2705923318862915,1.1585294008255005
1739983194675576000,4.589576171875,-4.315468788146973,0.4759327173233032,1.1516027450561523
1739983194685557800,4.599557861328125,-4.045798301696777,0.5997923612594604,1.0606142282485962
1739983194695540000,4.6095400390625,-3.827584743499756,0.6490610837936401,0.9190946817398071
1739983194705522700,4.619522705078125,-3.6370365619659424,0.6026877164840698,0.7489112615585327
1739983194715505000,4.6295048828125,-3.45940899848938,0.4484158754348755,0.5258381962776184
1739983194725487000,4.639487060546875,-3.2954742908477783,0.19932934641838074,0.25174301862716675
1739983194735468800,4.64946875,-3.1196343898773193,-0.09380851686000824,-0.07262813299894333
1739983194745451000,4.659450927734375,-2.921212911605835,-0.3786924481391907,-0.45641013979911804
1739983194755433700,4.669433837890625,-2.693984270095825,-0.5817946791648865,-0.867161214351654
1739983194765416000,4.679416015625,-2.465179204940796,-0.7055613994598389,-1.253006935119629
1739983194775398000,4.68939794921875,-2.273186683654785,-0.7862711548805237,-1.5506840944290161
1739983194785379800,4.6993798828125,-2.1304540634155273,-0.9059983491897583,-1.7312203645706177
1739983194795363000,4.709363037109375,-2.0169296264648438,-1.1045340299606323,-1.8222311735153198
1739983194805344800,4.7193447265625,-1.9264771938323975,-1.3524986505508423,-1.8522658348083496
1739983194815327000,4.729326904296875,-1.8243801593780518,-1.5663107633590698,-1.8480638265609741
1739983194825308700,4.73930859375,-1.6925309896469116,-1.7193405628204346,-1.8225667476654053
1739983194835292000,4.7492919921875,-1.4942024946212769,-1.7784643173217773,-1.7998683452606201
1739983194845273900,4.75927392578125,-1.2089377641677856,-1.760657548904419,-1.7627495527267456
1739983194855255800,4.769255859375,-0.8476173281669617,-1.6892789602279663,-1.6761008501052856
1739983194865238000,4.779238037109375,-0.4473559260368347,-1.6442474126815796,-1.5195996761322021
1739983194875220700,4.789220703125,-0.05241021141409874,-1.753839135169983,-1.2380183935165405
1739983194885203000,4.799202880859375,0.26970019936561584,-1.6794886589050293,-0.8583727478981018
1739983194895185000,4.809184814453125,0.46346884965896606,-1.4680973291397095,-0.5117335915565491
1739983194905166800,4.819166748046875,0.6765185594558716,-1.2830992937088013,-0.10645027458667755
1739983194915149800,4.82914990234375,0.9497442245483398,-1.0893902778625488,0.3351327180862427
1739983194925131800,4.8391318359375,1.30563223361969,-0.8758891820907593,0.7737864851951599
1739983194935114000,4.849114013671875,1.746959924697876,-0.6020757555961609,1.11762535572052
1739983194945095700,4.859095703125,2.260542154312134,-0.20734120905399323,1.322041392326355
1739983194955078000,4.869077880859375,2.7959365844726562,0.2652766704559326,1.4139105081558228
1739983194965060900,4.879060791015625,3.2809391021728516,0.7483810186386108,1.4402830600738525
1739983194975042800,4.889042724609375,3.6834795475006104,1.1826235055923462,1.4323753118515015
1739983194985025000,4.89902490234375,3.9904308319091797,1.5274794101715088,1.4205495119094849
1739983194995006700,4.9090068359375,4.177975654602051,1.7680708169937134,1.4232311248779297
1739983195004990000,4.918989990234375,4.277275085449219,1.8885254859924316,1.4367258548736572
1739983195014972000,4.928971923828125,4.314234733581543,1.9190211296081543,1.450640082359314
1739983195024953900,4.938953857421875,4.318103790283203,1.864889144897461,1.4670504331588745
1739983195034936000,4.94893603515625,4.284889221191406,1.7364436388015747,1.4418354034423828
1739983195044918800,4.958918701171875,4.2393388748168945,1.551279902458191,1.3552464246749878
1739983195054901000,4.96890087890625,4.207395553588867,1.356285572052002,1.2255423069000244
1739983195064883000,4.978883056640625,4.184250354766846,1.1987940073013306,1.0496032238006592
1739983195074865000,4.988864990234375,4.160497665405273,1.033409833908081,0.834374725818634
1739983195084847900,4.998847900390625,4.152625560760498,0.817476749420166,0.6413365602493286
1739983195094829800,5.008829833984375,4.184867858886719,0.6218478679656982,0.5122843384742737
1739983195104812000,5.01881201171875,4.2459306716918945,0.5215622782707214,0.4601968824863434
1739983195114793700,5.028793701171875,4.331097602844238,0.46883565187454224,0.4926842749118805
1739983195124777000,5.03877685546875,4.4280595779418945,0.42573025822639465,0.5463054180145264
1739983195134759000,5.048759033203125,4.525529861450195,0.4116930067539215,0.5836290717124939
1739983195144740900,5.058740966796875,4.624568939208984,0.45419546961784363,0.5817121267318726
1739983195154722800,5.068722900390625,4.699714660644531,0.5525025725364685,0.5388666987419128
1739983195164704800,5.078704833984375,4.753609657287598,0.6242220401763916,0.45468947291374207
1739983195174687700,5.088687744140625,4.788761138916016,0.65384441614151,0.33362245559692383
1739983195184670000,5.098669921875,4.803343296051025,0.666994571685791,0.19259262084960938
1739983195194652000,5.10865185546875,4.78853702545166,0.6910035014152527,0.06027665734291077
1739983195204633900,5.1186337890625,4.738833904266357,0.7197038531303406,-0.060880396515131
1739983195214616800,5.128616943359375,4.650920867919922,0.7073462605476379,-0.14363040030002594
1739983195224598800,5.138598876953125,4.5271430015563965,0.6649481654167175,-0.16757941246032715
1739983195234581000,5.1485810546875,4.388198375701904,0.6051913499832153,-0.14611034095287323
1739983195244563000,5.15856298828125,4.234943866729736,0.5344918966293335,-0.10726999491453171
1739983195254546000,5.1685458984375,4.065365314483643,0.4619694948196411,-0.06229693070054054
1739983195264528000,5.17852783203125,3.8778491020202637,0.39860808849334717,-0.03251213580369949
1739983195274509800,5.188509765625,3.664576530456543,0.35531309247016907,-0.013657222501933575
1739983195284491800,5.19849169921875,3.424654245376587,0.31244391202926636,-0.01986824721097946
1739983195294474800,5.208474853515625,3.1536686420440674,0.2570509612560272,-0.031066305935382843
1739983195304457000,5.21845703125,2.852165937423706,0.18946632742881775,-0.046842604875564575
1739983195314439000,5.22843896484375,2.538823366165161,0.11296969652175903,-0.0638309121131897
1739983195324420900,5.2384208984375,2.226047992706299,0.03365463390946388,-0.09317601472139359
1739983195334404000,5.248404052734375,1.9313092231750488,-0.012474779039621353,-0.14484533667564392
1739983195344385800,5.2583857421875,1.6957558393478394,0.00018722022650763392,-0.20032323896884918
1739983195354368000,5.268367919921875,1.5012284517288208,0.04911667853593826,-0.24521242082118988
1739983195364350000,5.278349853515625,1.285124659538269,0.08438917994499207,-0.2716991603374481
1739983195374333000,5.2883330078125,1.014975666999817,0.05468055605888367,-0.3125035762786865
1739983195384315000,5.29831494140625,0.6511330008506775,-0.0006556702428497374,-0.34615927934646606
1739983195394296800,5.308296875,0.2058114856481552,-0.04490835219621658,-0.3852720558643341
1739983195404279000,5.318279052734375,-0.2829107940196991,-0.07355011999607086,-0.4472517967224121
1739983195414261800,5.32826171875,-0.8040735721588135,-0.11507625877857208,-0.5270827412605286
1739983195424244000,5.338243896484375,-1.3499984741210938,-0.18654990196228027,-0.6163958311080933
1739983195434226000,5.348225830078125,-1.892835021018982,-0.2737780213356018,-0.6874521374702454
1739983195444207900,5.358207763671875,-2.3897109031677246,-0.35357725620269775,-0.7316886186599731
1739983195454190800,5.36819091796875,-2.779330015182495,-0.4029514491558075,-0.7463114857673645
1739983195464172800,5.3781728515625,-3.0635952949523926,-0.44245490431785583,-0.7303658127784729
1739983195474155000,5.388155029296875,-3.2815184593200684,-0.4726940393447876,-0.6843652725219727
1739983195484136700,5.39813671875,-3.4533965587615967,-0.4720767140388489,-0.6208744645118713
1739983195494120000,5.408119873046875,-3.615375280380249,-0.4502960741519928,-0.5683997869491577
1739983195504102000,5.418101806640625,-3.815307378768921,-0.391895592212677,-0.5269772410392761
1739983195514083800,5.428083740234375,-4.032540321350098,-0.3183758556842804,-0.49083444476127625
1739983195524066000,5.438066162109375,-4.244460105895996,-0.22861267626285553,-0.4472515285015106
1739983195534048800,5.448048828125,-4.42921257019043,-0.12754304707050323,-0.4027900695800781
1739983195544031000,5.458031005859375,-4.590349197387695,-0.010381801053881645,-0.3582572042942047
1739983195554012700,5.4680126953125,-4.702165603637695,0.1189812496304512,-0.33392098546028137
1739983195563995000,5.477994873046875,-4.751018047332764,0.19398066401481628,-0.3482128381729126
1739983195573977900,5.487977783203125,-4.748453617095947,0.2180015742778778,-0.40125420689582825
1739983195583959800,5.497959716796875,-4.7138519287109375,0.21350589394569397,-0.46936696767807007
1739983195593942000,5.50794189453125,-4.660966873168945,0.20208466053009033,-0.5332876443862915
1739983195603923700,5.517923828125,-4.591137886047363,0.2103324681520462,-0.5643144845962524
1739983195613907000,5.527906982421875,-4.467541694641113,0.3280881345272064,-0.6188325881958008
1739983195623889000,5.537888916015625,-4.401655673980713,0.22376438975334167,-0.5092379450798035
1739983195633870800,5.547870849609375,-4.350919246673584,0.25251346826553345,-0.3662402927875519
1739983195643853000,5.55785302734375,-4.288769721984863,0.2231995314359665,-0.16382569074630737
1739983195653834800,5.567834716796875,-4.1757612228393555,0.09202952682971954,0.08432340621948242
1739983195663818000,5.57781787109375,-4.0084123611450195,-0.11650291085243225,0.3175305724143982
1739983195673800000,5.587800048828125,-3.802243709564209,-0.2892208993434906,0.5141815543174744
1739983195683782000,5.597781982421875,-3.545867681503296,-0.4005016088485718,0.6568849086761475
1739983195693764000,5.60776416015625,-3.237051010131836,-0.4755316376686096,0.7297481894493103
1739983195703746800,5.617746826171875,-2.934065818786621,-0.5453128814697266,0.7028068900108337
1739983195713729000,5.62772900390625,-2.7052555084228516,-0.5194511413574219,0.5450361371040344
1739983195723710700,5.637710693359375,-2.591651201248169,-0.4063088893890381,0.26365479826927185
1739983195733694000,5.64769384765625,-2.587353467941284,-0.2338670939207077,-0.09003295004367828
1739983195743676000,5.657676025390625,-2.6241002082824707,-0.11077098548412323,-0.45498162508010864
1739983195753657900,5.667657958984375,-2.6599645614624023,-0.07697787135839462,-0.7704386711120605
1739983195763639800,5.677639892578125,-2.6463098526000977,-0.17405807971954346,-1.0118213891983032
1739983195773623000,5.687623046875,-2.5719926357269287,-0.35615599155426025,-1.196168065071106
1739983195783604700,5.697604736328125,-2.456743001937866,-0.5428675413131714,-1.3581836223602295
1739983195793587000,5.7075869140625,-2.3579537868499756,-0.6795385479927063,-1.5418787002563477
1739983195803569000,5.71756884765625,-2.301650047302246,-0.721992552280426,-1.7650076150894165
1739983195813551900,5.7275517578125,-2.3057076930999756,-0.6536246538162231,-1.9776806831359863
1739983195823533800,5.737533935546875,-2.3267219066619873,-0.5654450058937073,-2.0955677032470703
1739983195833515800,5.747515869140625,-2.3323535919189453,-0.5068413615226746,-2.0828845500946045
1739983195843498000,5.757498046875,-2.302382707595825,-0.46678048372268677,-1.9527108669281006
1739983195853480700,5.767480712890625,-2.196005344390869,-0.38892778754234314,-1.7586716413497925
1739983195863463000,5.777462890625,-1.9748042821884155,-0.26381805539131165,-1.5541406869888306
1739983195873444900,5.78744482421875,-1.6450918912887573,-0.15189632773399353,-1.3696650266647339
1739983195883426800,5.7974267578125,-1.2627021074295044,-0.10662977397441864,-1.231879472732544
1739983195893410000,5.80741015625,-0.9290381669998169,-0.09527591615915298,-1.1319843530654907
1739983195903391700,5.817391845703125,-0.6690449118614197,-0.08263043314218521,-1.017137885093689
1739983195913374000,5.8273740234375,-0.4477175772190094,-0.07991267740726471,-0.8634820580482483
1739983195923356000,5.83735595703125,-0.22982573509216309,-0.12254509329795837,-0.6453624963760376
1739983195933339000,5.8473388671875,0.0015017564874142408,-0.17257604002952576,-0.36400270462036133
1739983195943321000,5.857321044921875,0.29372137784957886,-0.18060146272182465,-0.04993320629000664
1739983195953302800,5.867302734375,0.7023927569389343,-0.12723544239997864,0.2504875957965851
1739983195963285000,5.877284912109375,1.255760908126831,-0.0025888588279485703,0.4865739047527313
1739983195973267700,5.887267822265625,1.9042086601257324,0.12206172943115234,0.6617377400398254
1739983195983250000,5.89725,2.5718936920166016,0.23102602362632751,0.8056578636169434
1739983195993232000,5.90723193359375,3.1761858463287354,0.33238112926483154,0.9315534830093384
1739983196003213800,5.9172138671875,3.6646924018859863,0.44023197889328003,1.0637471675872803
1739983196013197000,5.927197021484375,4.015896320343018,0.524669885635376,1.1916948556900024
1739983196023178800,5.9371787109375,4.226502895355225,0.5735722184181213,1.3060661554336548
1739983196033161000,5.947160888671875,4.322056293487549,0.5894243717193604,1.3921512365341187
1739983196043143000,5.957142822265625,4.339079856872559,0.5922145843505859,1.4405251741409302
1739983196053126000,5.9671259765625,4.301543235778809,0.595731258392334,1.449742078781128
1739983196063107800,5.97710791015625,4.232619285583496,0.5922760963439941,1.4348171949386597
1739983196073089800,5.98708984375,4.159945011138916,0.6109965443611145,1.409411907196045
1739983196083072000,5.997072021484375,4.11196231842041,0.6494573950767517,1.3960011005401611
1739983196093054700,6.0070546875,4.114112854003906,0.6567626595497131,1.412833571434021
1739983196103037000,6.017036865234375,4.176496982574463,0.59482342004776,1.4770511388778687
1739983196113019000,6.027018798828125,4.25628662109375,0.4773029088973999,1.5577516555786133
1739983196123000800,6.037000732421875,4.347855567932129,0.3411426842212677,1.624279499053955
1739983196132983800,6.04698388671875,4.42632532119751,0.24144591391086578,1.6529276371002197
1739983196142965800,6.0569658203125,4.480857849121094,0.19616179168224335,1.6312652826309204
1739983196152948000,6.066947998046875,4.493009567260742,0.1769084632396698,1.5437884330749512
1739983196162931000,6.076930908203125,4.477710247039795,0.18981148302555084,1.4028587341308594
1739983196172913000,6.086912841796875,4.457842826843262,0.2756214439868927,1.2353837490081787
1739983196182894800,6.096894775390625,4.446115493774414,0.39822009205818176,1.0576986074447632
1739983196192876800,6.106876708984375,4.435298442840576,0.48718562722206116,0.8789243698120117
1739983196202859800,6.11685986328125,4.428621292114258,0.5268222689628601,0.6989026665687561
1739983196212842000,6.126842041015625,4.400406837463379,0.5318074226379395,0.5364525318145752
1739983196222824000,6.136823974609375,4.35129451751709,0.5243654847145081,0.4093582034111023
1739983196232806000,6.146805908203125,4.274810791015625,0.508530855178833,0.3008652925491333
1739983196242788900,6.156788818359375,4.172665596008301,0.5011065006256104,0.21000197529792786
1739983196252770800,6.166770751953125,4.043369770050049,0.501879870891571,0.13158705830574036
1739983196262752800,6.176752685546875,3.888746500015259,0.4881361126899719,0.06255925446748734
1739983196272735000,6.18673486328125,3.6930336952209473,0.427347868680954,-0.011324825696647167
1739983196282718000,6.196718017578125,3.465489387512207,0.35368695855140686,-0.09134296327829361
1739983196292700000,6.206699951171875,3.209592342376709,0.28355154395103455,-0.17612576484680176
1739983196302681900,6.216681884765625,2.9242875576019287,0.23981764912605286,-0.27636128664016724
1739983196312663800,6.226663818359375,2.6133408546447754,0.22504669427871704,-0.39146390557289124
1739983196322646800,6.236646728515625,2.292448043823242,0.22004581987857819,-0.5136880874633789
1739983196332629000,6.24662890625,1.979851245880127,0.19676285982131958,-0.6245392560958862
1739983196342611000,6.25661083984375,1.6939104795455933,0.16657646000385284,-0.7142981290817261
1739983196352593000,6.266593017578125,1.4295576810836792,0.1508030891418457,-0.769219696521759
1739983196362576000,6.276575927734375,1.1870307922363281,0.14802461862564087,-0.7944153547286987
1739983196372557800,6.286557861328125,0.9591693878173828,0.15171308815479279,-0.8020855188369751
1739983196382540000,6.2965400390625,0.7439170479774475,0.11681050807237625,-0.7978449463844299
1739983196392522800,6.306522705078125,0.5104376673698425,0.02564331144094467,-0.8010364770889282
1739983196402505000,6.3165048828125,0.2271881401538849,-0.08493566513061523,-0.8120156526565552
1739983196412487000,6.32648681640625,-0.12346760928630829,-0.1795351356267929,-0.8186647891998291
1739983196422468900,6.33646875,-0.5266557931900024,-0.26190006732940674,-0.8368155360221863
1739983196432451800,6.346451904296875,-0.9613329768180847,-0.339819073677063,-0.8756194114685059
1739983196442433800,6.356433837890625,-1.3936116695404053,-0.4123196601867676,-0.9283332228660583
1739983196452416000,6.366416015625,-1.7856018543243408,-0.46832460165023804,-0.9699437618255615
1739983196462397700,6.376397705078125,-2.0929436683654785,-0.5036820769309998,-0.9770941138267517
1739983196472381000,6.386380859375,-2.2950799465179443,-0.5421122908592224,-0.928287923336029
1739983196482363000,6.39636279296875,-2.42470121383667,-0.6098263263702393,-0.8302822709083557
1739983196492344800,6.4063447265625,-2.5269358158111572,-0.7140920162200928,-0.6882521510124207
1739983196502327000,6.4163271484375,-2.656508207321167,-0.8486431837081909,-0.5284760594367981
1739983196512310800,6.426310791015625,-2.823519468307495,-0.9550870656967163,-0.3761368691921234
1739983196522292700,6.436292724609375,-3.006565809249878,-1.027580976486206,-0.25325143337249756
1739983196532274700,6.446274658203125,-3.167567729949951,-1.0832208395004272,-0.1610884815454483
1739983196542257700,6.456257568359375,-3.2812650203704834,-1.115526795387268,-0.10409843921661377
1739983196552239600,6.466239501953125,-3.28100323677063,-1.2107731103897095,-0.0719362422823906
1739983196562221600,6.4762216796875,-3.2007577419281006,-1.4112426042556763,-0.07251494377851486
1739983196572203500,6.48620361328125,-3.154444456100464,-1.5271739959716797,-0.11556174606084824
1739983196582186800,6.496186767578125,-3.189222812652588,-1.4611132144927979,-0.2102256715297699
1739983196592168400,6.50616845703125,-3.2833573818206787,-1.2554458379745483,-0.3519716262817383
1739983196602150700,6.516150634765625,-3.376549243927002,-0.9917449355125427,-0.5237900018692017
1739983196612132600,6.526132568359375,-3.406665086746216,-0.7243196368217468,-0.6999080181121826
1739983196622115600,6.536115478515625,-3.3559112548828125,-0.5232053995132446,-0.8555746078491211
1739983196632097800,6.546097900390625,-3.25081467628479,-0.37737390398979187,-0.9878506064414978
1739983196642079500,6.55607958984375,-3.140920400619507,-0.23738113045692444,-1.078161597251892
1739983196652061700,6.566061767578125,-3.0491342544555664,-0.13681457936763763,-1.1158287525177002
1739983196662044400,6.57604443359375,-2.995614767074585,-0.10860663652420044,-1.1021156311035156
1739983196672026600,6.586026611328125,-2.99408221244812,-0.09542239457368851,-1.043336272239685
1739983196682008800,6.5960087890625,-3.023714780807495,-0.07637839764356613,-0.9473146200180054
1739983196691991600,6.605991455078125,-3.04133677482605,-0.02316524088382721,-0.8309749364852905
1739983196701973800,6.615973876953125,-3.0378026962280273,0.09472411125898361,-0.6975415349006653
1739983196711955500,6.62595556640625,-3.0381548404693604,0.25728878378868103,-0.5612502694129944
1739983196721937700,6.635937744140625,-3.051485061645508,0.41349703073501587,-0.46140357851982117
1739983196731920600,6.645920654296875,-3.0328524112701416,0.5490828156471252,-0.41274309158325195
1739983196741902600,6.655902587890625,-2.915050506591797,0.6058289408683777,-0.40402522683143616
1739983196751884800,6.665884765625,-2.7413673400878906,0.5776907801628113,-0.43788012862205505
1739983196761866500,6.675866455078125,-2.570125102996826,0.47959455847740173,-0.504859983921051
1739983196771849700,6.685849609375,-2.476447343826294,0.3646163046360016,-0.6094212532043457
1739983196781831700,6.695831787109375,-2.475492477416992,0.29226115345954895,-0.7492420077323914
1739983196791813600,6.705813720703125,-2.5366013050079346,0.2773277461528778,-0.9178025126457214
1739983196801795800,6.7157958984375,-2.6170029640197754,0.2617136240005493,-1.1154370307922363
1739983196811778600,6.725778564453125,-2.675839424133301,0.22632820904254913,-1.3294473886489868
1739983196821760800,6.7357607421875,-2.7232537269592285,0.20352382957935333,-1.5243384838104248
1739983196831742500,6.745742431640625,-2.722506046295166,0.1637713611125946,-1.6499444246292114
1739983196841725700,6.7557255859375,-2.684319257736206,0.08543527126312256,-1.7171061038970947
1739983196851707600,6.765707763671875,-2.6405951976776123,0.029651636257767677,-1.7518187761306763
1739983196861689600,6.775689697265625,-2.5730504989624023,0.0020820593927055597,-1.7654778957366943
1739983196871671600,6.785671630859375,-2.4563376903533936,-0.0374981053173542,-1.7829219102859497
1739983196881654800,6.79565478515625,-2.2492518424987793,-0.12647777795791626,-1.8090083599090576
1739983196891636700,6.80563671875,-1.943626880645752,-0.24757517874240875,-1.8363789319992065
1739983196901618700,6.81561865234375,-1.585949420928955,-0.3005017638206482,-1.8581180572509766
1739983196911600600,6.8256005859375,-1.2236932516098022,-0.2793101966381073,-1.8464417457580566
1739983196921583600,6.83558349609375,-0.8779709935188293,-0.26264122128486633,-1.75742506980896
1739983196931565600,6.845565673828125,-0.5699934363365173,-0.334212064743042,-1.5681546926498413
1739983196941547500,6.855547607421875,-0.3068193197250366,-0.45692095160484314,-1.2895971536636353
1739983196951529700,6.86552978515625,-0.0710131898522377,-0.5894089341163635,-0.9436996579170227
1739983196961512400,6.875512451171875,0.1511266678571701,-0.7119455337524414,-0.5540022253990173
1739983196971494700,6.88549462890625,0.4114767611026764,-0.809112548828125,-0.15301138162612915
1739983196981476600,6.8954765625,0.7716572880744934,-0.8565263748168945,0.23905332386493683
1739983196991459600,6.90545947265625,1.1952335834503174,-0.8280396461486816,0.6168760061264038
1739983197001441800,6.91544189453125,1.6357923746109009,-0.7121649384498596,0.9793428778648376
1739983197011423500,6.925423583984375,2.062941789627075,-0.4901380240917206,1.2832872867584229
1739983197021405700,6.93540576171875,2.4570281505584717,-0.2276933491230011,1.548973798751831
1739983197031388400,6.945388427734375,2.799868106842041,0.021527662873268127,1.7751809358596802
1739983197041370600,6.95537060546875,3.0889885425567627,0.18538077175617218,1.968261957168579
1739983197051352800,6.965352783203125,3.317732334136963,0.26538240909576416,2.1254501342773438
1739983197061334500,6.97533447265625,3.47373628616333,0.3130234181880951,2.2388827800750732
1739983197071317800,6.98531787109375,3.5532729625701904,0.33678895235061646,2.314166784286499
1739983197081299500,6.995299560546875,3.5763437747955322,0.35447365045547485,2.3396899700164795
1739983197091281700,7.00528173828125,3.5543899536132812,0.3611033260822296,2.3274621963500977
1739983197101264600,7.0152646484375,3.5155181884765625,0.37637975811958313,2.2777059078216553
1739983197111246600,7.02524658203125,3.5060153007507324,0.3983937203884125,2.196157455444336
1739983197121228800,7.035228759765625,3.525508403778076,0.4035772979259491,2.0906379222869873
1739983197131210500,7.04521044921875,3.5735702514648438,0.36038801074028015,1.9659370183944702
1739983197141193700,7.05519384765625,3.6318540573120117,0.2726682722568512,1.816973328590393
1739983197151175700,7.06517578125,3.685598134994507,0.1725161075592041,1.636171579360962
1739983197161157600,7.07515771484375,3.720871925354004,0.10772912949323654,1.4270069599151611
1739983197171139800,7.085139892578125,3.7593376636505127,0.048535045236349106,1.210714340209961
1739983197181122600,7.09512255859375,3.7896437644958496,-0.03424372524023056,1.002025842666626
1739983197191104800,7.105104736328125,3.813408136367798,-0.10860291123390198,0.8516741394996643
1739983197201086500,7.11508642578125,3.8333914279937744,-0.12526071071624756,0.7603599429130554
1739983197211069700,7.125069580078125,3.8695974349975586,-0.09235416352748871,0.7308214902877808
1739983197221051600,7.1350517578125,3.9320714473724365,-0.03151744604110718,0.7491679787635803
1739983197231033600,7.14503369140625,4.0047783851623535,0.041492581367492676,0.7793706059455872
1739983197241015600,7.155015625,4.064656734466553,0.11090041697025299,0.8141824007034302
1739983197250998800,7.164998779296875,4.094084739685059,0.16818074882030487,0.8275903463363647
1739983197260980500,7.17498046875,4.101944923400879,0.23002174496650696,0.8250779509544373
1739983197270962700,7.184962646484375,4.0777153968811035,0.2804985046386719,0.8203505277633667
1739983197280944600,7.194944580078125,4.040704250335693,0.28305354714393616,0.820246160030365
1739983197290927600,7.204927734375,3.9683098793029785,0.25667625665664673,0.8203670382499695
1739983197300909600,7.21490966796875,3.870079755783081,0.2360095977783203,0.8192999362945557
1739983197310891500,7.2248916015625,3.7452821731567383,0.23396828770637512,0.7996788024902344
1739983197320873700,7.234873779296875,3.594053030014038,0.24478231370449066,0.7644822001457214
1739983197330856400,7.2448564453125,3.4137048721313477,0.2552458643913269,0.7040089964866638
1739983197340838700,7.254838623046875,3.193408489227295,0.2591865658760071,0.5905908346176147
1739983197350820600,7.264820556640625,2.931833267211914,0.26869696378707886,0.4363307058811188
1739983197360803600,7.274803466796875,2.6371874809265137,0.27710697054862976,0.23385190963745117
1739983197370785800,7.284785888671875,2.340019464492798,0.3003917932510376,-0.013255351223051548
1739983197380767500,7.294767578125,2.0586905479431152,0.32680341601371765,-0.28946298360824585
1739983197390749700,7.304749755859375,1.7907625436782837,0.3344852924346924,-0.560074508190155
1739983197400732400,7.314732421875,1.5139492750167847,0.3060896098613739,-0.7841456532478333
1739983197410714600,7.324714599609375,1.2107510566711426,0.2545965909957886,-0.9223453402519226
1739983197420696800,7.33469677734375,0.8824024796485901,0.19455909729003906,-0.972526490688324
1739983197430679600,7.344679443359375,0.5356746315956116,0.1185130625963211,-0.9414998888969421
1739983197440661800,7.354661865234375,0.1849818378686905,0.04357943683862686,-0.8661451935768127
1739983197450643500,7.3646435546875,-0.17539259791374207,-0.016757408156991005,-0.7938646078109741
1739983197460625700,7.374625732421875,-0.5507957935333252,-0.028248682618141174,-0.7542221546173096
1739983197470608600,7.384608642578125,-0.9286402463912964,0.04159005358815193,-0.7610712647438049
1739983197480590600,7.394590576171875,-1.319501519203186,0.16824732720851898,-0.8098156452178955
1739983197490572800,7.40457275390625,-1.7170262336730957,0.31608420610427856,-0.8639914989471436
1739983197500554500,7.414554443359375,-2.1035044193267822,0.41395989060401917,-0.8854008913040161
1739983197510536700,7.42453662109375,-2.454885244369507,0.41155800223350525,-0.8491454720497131
1739983197520518700,7.4345185546875,-2.7639780044555664,0.3364717662334442,-0.7697252035140991
1739983197530500600,7.44450048828125,-3.01127028465271,0.23128116130828857,-0.6462154984474182
1739983197540483800,7.45448388671875,-3.1911303997039795,0.1520387977361679,-0.511221170425415
1739983197550465800,7.4644658203125,-3.30997371673584,0.12152616679668427,-0.3751773536205292
1739983197560447700,7.47444775390625,-3.3927595615386963,0.161350280046463,-0.24290905892848969
1739983197570429700,7.4844296875,-3.463299036026001,0.2498583048582077,-0.12720349431037903
1739983197580413000,7.494412841796875,-3.530613899230957,0.35414236783981323,-0.041011616587638855
1739983197590394600,7.50439453125,-3.605015754699707,0.4655706286430359,-0.00507039250805974
1739983197600376800,7.514376953125,-3.692542314529419,0.5982791185379028,0.00965662207454443
1739983197610358800,7.52435888671875,-3.7973642349243164,0.7106360197067261,0.023480292409658432
1739983197620341800,7.534341796875,-3.8920583724975586,0.7432065010070801,0.054309312254190445
1739983197630323700,7.54432373046875,-3.9627859592437744,0.678067684173584,0.09182818979024887
1739983197640305700,7.5543056640625,-4.0100603103637695,0.5276614427566528,0.1216377541422844
1739983197650287900,7.564287841796875,-4.020198345184326,0.32097747921943665,0.11097631603479385
1739983197660270600,7.5742705078125,-3.999720335006714,0.09427750110626221,0.03568928688764572
1739983197670252800,7.584252685546875,-3.970465660095215,-0.0865657851099968,-0.08768138289451599
1739983197680234800,7.59423486328125,-3.952021837234497,-0.17677317559719086,-0.23528628051280975
1739983197690217700,7.6042177734375,-3.9253127574920654,-0.21075297892093658,-0.3560244143009186
1739983197700200000,7.614199951171875,-3.906682252883911,-0.20799873769283295,-0.4176523685455322
1739983197710181600,7.624181640625,-3.8964970111846924,-0.14635081589221954,-0.40430328249931335
1739983197720163800,7.634163818359375,-3.870541572570801,-0.06897347420454025,-0.3284894526004791
1739983197730146600,7.644146484375,-3.8109004497528076,-0.03406262770295143,-0.2238389551639557
1739983197740128800,7.654128662109375,-3.7182059288024902,-0.024227308109402657,-0.10738051682710648
1739983197750111000,7.664111083984375,-3.6145474910736084,-0.01239302009344101,-0.0054733287543058395
1739983197760092700,7.6740927734375,-3.49272084236145,0.013235378079116344,0.04859789460897446
1739983197770076000,7.684075927734375,-3.3430466651916504,0.02696264162659645,0.012871324084699154
1739983197780057600,7.6940576171875,-3.196598529815674,0.05336282402276993,-0.1245291456580162
1739983197790039800,7.704039794921875,-3.0862505435943604,0.14162024855613708,-0.3475891351699829
1739983197800022800,7.714022705078125,-3.001373052597046,0.2399049997329712,-0.5906318426132202
1739983197810004700,7.724004638671875,-2.9485182762145996,0.2600347697734833,-0.7867057919502258
1739983197819987000,7.733987060546875,-2.9302759170532227,0.20390386879444122,-0.9237666726112366
1739983197829968600,7.74396875,-2.9393153190612793,0.12582823634147644,-1.0175395011901855
1739983197839952000,7.753951904296875,-2.9499924182891846,0.024715732783079147,-1.069810390472412
1739983197849933800,7.763933837890625,-2.9261271953582764,-0.07593071460723877,-1.0711758136749268
1739983197859915800,7.773915771484375,-2.8504416942596436,-0.1493828296661377,-0.9936589598655701
1739983197869897700,7.783897705078125,-2.740596055984497,-0.19580678641796112,-0.8548129200935364
1739983197879880700,7.793880615234375,-2.6164445877075195,-0.20634758472442627,-0.6922357082366943
1739983197889862700,7.803862548828125,-2.51006817817688,-0.15089844167232513,-0.5143341422080994
1739983197899844600,7.8138447265625,-2.4329395294189453,-0.01997024565935135,-0.33189699053764343
1739983197909827600,7.82382763671875,-2.364471912384033,0.18468250334262848,-0.12824851274490356
1739983197919809800,7.833809814453125,-2.269773006439209,0.4494824707508087,0.11872319132089615
1739983197929791700,7.843791748046875,-2.1112329959869385,0.7058684229850769,0.41454818844795227
1739983197939773700,7.853773681640625,-1.8687398433685303,0.8820144534111023,0.7542080283164978
1739983197949757000,7.8637568359375,-1.5506950616836548,0.9391589760780334,1.074802279472351
1739983197959738600,7.873738525390625,-1.1810392141342163,0.9171410202980042,1.3143559694290161
1739983197969720800,7.883720947265625,-0.7524455189704895,0.8719208240509033,1.4249194860458374
1739983197979702800,7.893702880859375,-0.30170339345932007,0.7689201235771179,1.4099254608154297
1739983197989685800,7.903685791015625,0.103530652821064,0.5851953029632568,1.28493070602417
1739983197999667700,7.913667724609375,0.4068172872066498,0.3577083349227905,1.0798289775848389
1739983198009649700,7.923649658203125,0.6026392579078674,0.12188569456338882,0.8526358008384705
1739983198019633000,7.9336328125,0.7290496826171875,-0.14457368850708008,0.6264897584915161
1739983198029614600,7.943614501953125,0.8487393260002136,-0.3707253336906433,0.4362918436527252
1739983198039596800,7.9535966796875,0.9826566576957703,-0.5628936886787415,0.2904195785522461
1739983198049578800,7.963578857421875,1.1889818906784058,-0.6167079210281372,0.19829684495925903
1739983198059561700,7.973561767578125,1.4837197065353394,-0.4925340712070465,0.1397043764591217
1739983198069544000,7.9835439453125,1.8467274904251099,-0.25424692034721375,0.0989268496632576
1739983198079525600,7.993525634765625,2.2238080501556396,0.02931154891848564,0.07828894257545471
1739983198089507800,8.0035078125,2.569078207015991,0.343181848526001,0.08015955239534378
1739983198099490600,8.013490478515624,2.8338141441345215,0.6355998516082764,0.10217190533876419
1739983198109472800,8.02347265625,3.002020835876465,0.8594910502433777,0.14416277408599854
1739983198119455000,8.033455078125,3.0767762660980225,1.005305528640747,0.20445753633975983
1739983198129437700,8.043437744140626,3.0880205631256104,1.1140944957733154,0.2735194265842438
1739983198139420000,8.053419921875,3.0838963985443115,1.1947563886642456,0.34718379378318787
1739983198149401600,8.063401611328125,3.1043665409088135,1.2376521825790405,0.41812482476234436
1739983198159383800,8.0733837890625,3.1575140953063965,1.2510886192321777,0.48949700593948364
1739983198169366800,8.08336669921875,3.228969097137451,1.244805932044983,0.5623597502708435
1739983198179348700,8.0933486328125,3.324028253555298,1.1981945037841797,0.6322696208953857
1739983198189331000,8.1033310546875,3.4700822830200195,1.1119552850723267,0.6828227639198303
1739983198199312600,8.113312744140625,3.6587252616882324,0.9800605773925781,0.6951712965965271
1739983198209296000,8.1232958984375,3.859790802001953,0.7610190510749817,0.6529011130332947
1739983198219277800,8.13327783203125,4.019972801208496,0.5159592032432556,0.5499840378761292
1739983198229259800,8.143259765625,4.096009731292725,0.3350376486778259,0.3888643980026245
1739983198239241700,8.15324169921875,4.1077375411987305,0.24650059640407562,0.18268832564353943
1739983198249224700,8.163224609375,4.076460838317871,0.2288464903831482,-0.04617415368556976
1739983198259206700,8.17320654296875,4.033745288848877,0.2614012360572815,-0.26034849882125854
1739983198269188600,8.183188720703125,4.004130840301514,0.3314008414745331,-0.4259451925754547
1739983198279171600,8.193171630859375,3.9972944259643555,0.40000492334365845,-0.5315802693367004
1739983198289153800,8.20315380859375,4.0073747634887695,0.44241443276405334,-0.5882877707481384
1739983198299135700,8.2131357421875,4.037493705749512,0.4303519129753113,-0.611333966255188
1739983198309117700,8.22311767578125,4.053821563720703,0.3763478100299835,-0.6243290901184082
1739983198319099600,8.233099609375,4.062983512878418,0.3094739615917206,-0.6479234099388123
1739983198329081900,8.243081787109375,4.045823574066162,0.26045289635658264,-0.6778887510299683
1739983198339064800,8.25306494140625,4.004284381866455,0.24588753283023834,-0.7292073369026184
1739983198349046800,8.263046875,3.9225707054138184,0.26679253578186035,-0.7963767647743225
1739983198359028700,8.27302880859375,3.8031117916107178,0.30455562472343445,-0.8679742813110352
1739983198369010700,8.2830107421875,3.656298875808716,0.33104345202445984,-0.9419222474098206
1739983198378993700,8.29299365234375,3.4751064777374268,0.32977232336997986,-1.004643201828003
1739983198388975900,8.302975830078125,3.265531539916992,0.2985938787460327,-1.054937481880188
1739983198398957800,8.312957763671875,3.0488197803497314,0.2272089123725891,-1.1004477739334106
1739983198408939800,8.322939697265625,2.8158607482910156,0.1300341635942459,-1.163430094718933
1739983198418922800,8.3329228515625,2.560973882675171,0.0429685041308403,-1.2445673942565918
1739983198428904700,8.34290478515625,2.268444061279297,-0.028309669345617294,-1.3382635116577148
1739983198438886700,8.35288671875,1.9668147563934326,-0.09796491265296936,-1.401242733001709
1739983198448869600,8.36286962890625,1.679129719734192,-0.1832726150751114,-1.4076502323150635
1739983198458851800,8.372851806640625,1.414094090461731,-0.253330260515213,-1.3443719148635864
1739983198468833800,8.382833740234375,1.1627862453460693,-0.282653272151947,-1.2141153812408447
1739983198478815700,8.392815673828125,0.9241309762001038,-0.2782292366027832,-1.044551134109497
1739983198488799000,8.402799072265625,0.7002390623092651,-0.2777429223060608,-0.8556270599365234
1739983198498780700,8.41278076171875,0.49344247579574585,-0.3161483705043793,-0.6699954271316528
1739983198508763600,8.422763671875,0.2698993980884552,-0.34625834226608276,-0.4951780438423157
1739983198518745600,8.43274560546875,0.006159359123557806,-0.34773001074790955,-0.33142346143722534
1739983198528728600,8.442728515625,-0.320837140083313,-0.3297547399997711,-0.17301598191261292
1739983198538710500,8.45271044921875,-0.6959441900253296,-0.3348640203475952,-0.011421232484281063
1739983198548692500,8.4626923828125,-1.0753111839294434,-0.3550020456314087,0.15111015737056732
1739983198558674700,8.4726748046875,-1.4233365058898926,-0.35604172945022583,0.30675381422042847
1739983198568657700,8.48265771484375,-1.707955241203308,-0.3407604992389679,0.46191808581352234
1739983198578639600,8.4926396484375,-1.9129581451416016,-0.30408158898353577,0.6175715923309326
1739983198588621600,8.50262158203125,-2.041604518890381,-0.24831713736057281,0.772433340549469
1739983198598604500,8.5126044921875,-2.0837795734405518,-0.19581584632396698,0.9168917536735535
1739983198608586500,8.52258642578125,-2.065732479095459,-0.13310877978801727,1.0240051746368408
1739983198618568700,8.532568603515625,-2.0555124282836914,-0.06809409707784653,1.0935860872268677
1739983198628550700,8.542550537109374,-2.1115176677703857,-0.03170706331729889,1.10858154296875
1739983198638533600,8.55253369140625,-2.239804983139038,-0.007136206608265638,1.0657224655151367
1739983198648515600,8.562515625,-2.40028977394104,0.027713919058442116,0.939791738986969
1739983198658497500,8.57249755859375,-2.5470755100250244,0.0642615407705307,0.7236751317977905
1739983198668480500,8.58248046875,-2.678189754486084,0.10307152569293976,0.43227365612983704
1739983198678462500,8.59246240234375,-2.8044075965881348,0.11132652312517166,0.07730304449796677
1739983198688444700,8.602444580078124,-2.9492828845977783,0.10755228996276855,-0.3500714600086212
1739983198698426400,8.61242626953125,-3.0991370677948,0.059473179280757904,-0.82099449634552
1739983198708409600,8.62240966796875,-3.2402122020721436,-0.0451914481818676,-1.2658833265304565
1739983198718391600,8.6323916015625,-3.3780667781829834,-0.2287391722202301,-1.617695927619934
1739983198728373500,8.64237353515625,-3.536416530609131,-0.4619010388851166,-1.8437995910644531
1739983198738355700,8.652355712890625,-3.7383012771606445,-0.6572273969650269,-1.9476187229156494
1739983198748338400,8.66233837890625,-3.9710774421691895,-0.7642704844474792,-1.9442367553710938
1739983198758320600,8.672320556640624,-4.20913028717041,-0.785571813583374,-1.8512392044067383
1739983198768302300,8.68230224609375,-4.405562877655029,-0.7274647951126099,-1.6945369243621826
1739983198778285600,8.69228564453125,-4.5144476890563965,-0.593935489654541,-1.472610354423523
1739983198788267500,8.702267578125,-4.5146660804748535,-0.41850778460502625,-1.2074353694915771
1739983198798249500,8.71224951171875,-4.43547248840332,-0.2070983201265335,-0.9105600714683533
1739983198808231700,8.722231689453125,-4.303245544433594,0.007080812472850084,-0.6034020185470581
1739983198818214700,8.732214599609375,-4.157487392425537,0.22918391227722168,-0.30726221203804016
1739983198828196600,8.742196533203124,-4.042303562164307,0.45954814553260803,-0.03695029392838478
1739983198838178600,8.752178466796876,-3.963285446166992,0.6912607550621033,0.17474304139614105
1739983198848160500,8.762160400390625,-3.888772487640381,0.9069256782531738,0.3225668668746948
1739983198858143500,8.7721435546875,-3.8056204319000244,1.0566117763519287,0.39532601833343506
1739983198868125400,8.78212548828125,-3.723484992980957,1.1239434480667114,0.42066678404808044
1739983198878107600,8.792107666015625,-3.6616103649139404,1.1275629997253418,0.40700212121009827
1739983198888090600,8.802090576171874,-3.6058313846588135,1.1284114122390747,0.35657355189323425
1739983198898072600,8.812072509765626,-3.5497660636901855,1.108665108680725,0.3004138767719269
1739983198908054500,8.822054443359375,-3.4537689685821533,1.0379753112792969,0.2547529339790344
1739983198918036500,8.832036376953125,-3.314284324645996,0.8979042172431946,0.230464905500412
1739983198928019500,8.84201953125,-3.1270554065704346,0.6765843033790588,0.20915508270263672
1739983198938001700,8.852001708984375,-2.918997287750244,0.43556132912635803,0.17787998914718628
1739983198947983600,8.861983642578124,-2.7094404697418213,0.2952319085597992,0.12482661753892899
1739983198957966600,8.871966552734374,-2.4945595264434814,0.2500109076499939,0.0526091493666172
1739983198967948500,8.881948486328126,-2.2748818397521973,0.2542914152145386,-0.013733122497797012
1739983198977930500,8.891930419921875,-2.042470693588257,0.30668723583221436,-0.06149185821413994
1739983198987912700,8.90191259765625,-1.7567811012268066,0.35540977120399475,-0.09885307401418686
1739983198997895400,8.9118955078125,-1.4135342836380005,0.37597790360450745,-0.14607545733451843
1739983199007877600,8.921877685546875,-1.0136339664459229,0.3773038685321808,-0.23076103627681732
1739983199017859600,8.931859619140624,-0.6160032749176025,0.2946276366710663,-0.3454607129096985
1739983199027841500,8.941841552734376,-0.23241060972213745,0.15250511467456818,-0.44910696148872375
1739983199037824500,8.951824462890626,0.13245470821857452,-0.05630375072360039,-0.5427093505859375
1739983199047806500,8.961806396484375,0.4445047378540039,-0.3206339478492737,-0.6334102153778076
1739983199057788700,8.97178857421875,0.6761332154273987,-0.5435812473297119,-0.6909582018852234
1739983199067771400,8.981771484375,0.852898895740509,-0.6836771368980408,-0.6832981705665588
1739983199077753600,8.991753662109375,1.0112110376358032,-0.7627754211425781,-0.6043423414230347
1739983199087735600,9.001735595703124,1.20078444480896,-0.7741351127624512,-0.46692296862602234
1739983199097717500,9.011717529296876,1.4462709426879883,-0.7131591439247131,-0.28851303458213806
1739983199107700500,9.021700439453125,1.755791425704956,-0.5575168132781982,-0.09183324873447418
1739983199117682400,9.031682373046875,2.109590530395508,-0.32799383997917175,0.12427401542663574
1739983199127664600,9.04166455078125,2.4864249229431152,-0.05642865598201752,0.34821629524230957
1739983199137647600,9.051647705078125,2.8545286655426025,0.22688640654087067,0.5744800567626953
1739983199147629600,9.061629638671874,3.2006585597991943,0.4719291925430298,0.8001880049705505
1739983199157611500,9.071611572265626,3.508885622024536,0.6626386642456055,1.008014440536499
1739983199167593500,9.081593505859376,3.771637439727783,0.7944236397743225,1.1757062673568726
1739983199177576400,9.091576416015625,3.9686338901519775,0.8831252455711365,1.283859133720398
1739983199187558700,9.10155859375,4.088346004486084,0.9202491641044617,1.3321861028671265
1739983199197540600,9.11154052734375,4.136063575744629,0.8921294212341309,1.3259705305099487
1739983199207523600,9.121523681640625,4.086657524108887,0.7930036187171936,1.281174898147583
1739983199217505500,9.131505615234374,3.9808242321014404,0.6248928904533386,1.1955145597457886
1739983199227487500,9.141487548828126,3.8495607376098633,0.4552586078643799,1.0602587461471558
1739983199237469400,9.151469482421875,3.724351644515991,0.30203282833099365,0.8756833076477051
1739983199247452400,9.161452392578125,3.6406409740448,0.19274228811264038,0.6545003056526184
1739983199257434600,9.1714345703125,3.6094541549682617,0.11650610715150833,0.4198034107685089
1739983199267416600,9.18141650390625,3.6137757301330566,0.06131262704730034,0.2301197499036789
1739983199277399600,9.191399658203125,3.607142210006714,0.007847536355257034,0.11627494543790817
1739983199287381800,9.2013818359375,3.582028388977051,-0.04502420127391815,0.0728294625878334
1739983199297363500,9.211363525390626,3.5669448375701904,-0.07478289306163788,0.08377984911203384
1739983199307345700,9.221345703125,3.568568706512451,-0.06638488173484802,0.13604065775871277
1739983199317328400,9.231328369140625,3.601224422454834,-0.02839968353509903,0.19695886969566345
1739983199327310600,9.241310546875,3.653005361557007,0.02545369416475296,0.26166436076164246
1739983199337292500,9.25129248046875,3.7172536849975586,0.0769704133272171,0.3244662284851074
1739983199347274500,9.2612744140625,3.772361993789673,0.11641529202461243,0.3797774314880371
1739983199357257700,9.2712578125,3.8179404735565186,0.13841566443443298,0.4319450259208679
1739983199367239400,9.281239501953126,3.8281872272491455,0.13598845899105072,0.4683469533920288
1739983199377221600,9.2912216796875,3.795541763305664,0.10833872109651566,0.4825432002544403
1739983199387204600,9.30120458984375,3.7227859497070312,0.07588145136833191,0.4741968810558319
1739983199397186600,9.3111865234375,3.5971741676330566,0.04234639182686806,0.43885698914527893
1739983199407168500,9.32116845703125,3.425278663635254,0.016474047675728798,0.36836203932762146
1739983199417150500,9.331150390625,3.2196435928344727,-0.00022663500567432493,0.26995399594306946
1739983199427133400,9.341133544921876,3.0041136741638184,-0.007368167862296104,0.15183506906032562
1739983199437115400,9.351115478515625,2.795830249786377,-0.005792641546577215,0.027833495289087296
1739983199447097600,9.36109765625,2.5970704555511475,0.009829461574554443,-0.0911586731672287
1739983199457080600,9.37108056640625,2.4090576171875,0.02178945206105709,-0.1918938010931015
1739983199467062500,9.3810625,2.2355618476867676,0.014120878651738167,-0.2765445113182068
1739983199477044500,9.39104443359375,2.0563886165618896,0.004209392238408327,-0.3501010239124298
1739983199487026400,9.4010263671875,1.865024209022522,0.0014346449170261621,-0.41684436798095703
1739983199497009400,9.411009521484376,1.6741831302642822,0.007745005190372467,-0.4693736135959625
1739983199506991400,9.420991455078125,1.4709200859069824,0.029290243983268738,-0.49614423513412476
1739983199516973600,9.4309736328125,1.2571067810058594,0.06075336039066315,-0.49494263529777527
1739983199526956500,9.44095654296875,1.0328742265701294,0.07431764155626297,-0.4715843200683594
1739983199536938500,9.4509384765625,0.7772606015205383,0.05168743059039116,-0.4484374523162842
1739983199546920400,9.46092041015625,0.48295947909355164,0.003466370515525341,-0.42951062321662903
1739983199556902400,9.47090234375,0.15675020217895508,-0.053651776164770126,-0.4206710457801819
1739983199566885400,9.480885498046876,-0.2003786414861679,-0.09434061497449875,-0.43867483735084534
1739983199576867600,9.49086767578125,-0.5935831665992737,-0.10897282510995865,-0.4687938392162323
1739983199586849500,9.500849609375,-1.0221766233444214,-0.09897558391094208,-0.473263680934906
1739983199596832500,9.51083251953125,-1.4571373462677002,-0.08144239336252213,-0.4316299557685852
1739983199606814500,9.520814453125,-1.8549963235855103,-0.09417283535003662,-0.338511198759079
1739983199616796400,9.53079638671875,-2.179974317550659,-0.15092240273952484,-0.2130289226770401
1739983199626778600,9.540778564453126,-2.441054344177246,-0.21357673406600952,-0.06462986022233963
1739983199636761300,9.55076123046875,-2.6293351650238037,-0.25082927942276,0.09653053432703018
1739983199646743600,9.56074365234375,-2.7477781772613525,-0.25242879986763,0.2495885193347931
1739983199656725500,9.5707255859375,-2.8122856616973877,-0.21866416931152344,0.36617451906204224
1739983199666708500,9.58070849609375,-2.823479652404785,-0.1465577483177185,0.43863967061042786
1739983199676690700,9.590690673828124,-2.8221187591552734,0.009602559730410576,0.483726441860199
1739983199686672400,9.60067236328125,-2.8505337238311768,0.19252817332744598,0.5301461815834045
1739983199696655600,9.610655517578126,-2.9240081310272217,0.368021696805954,0.5875594019889832
1739983199706637600,9.620637451171875,-3.0251731872558594,0.4760347008705139,0.6637281775474548
1739983199716619500,9.63061962890625,-3.1384716033935547,0.475871205329895,0.7599633932113647
1739983199726601700,9.640601806640625,-3.229161024093628,0.3662104904651642,0.8228123784065247
1739983199736584400,9.65058447265625,-3.304877519607544,0.2000254988670349,0.808371901512146
1739983199746566700,9.660566650390624,-3.371077060699463,0.05937623977661133,0.6958211660385132
1739983199756548400,9.67054833984375,-3.4376089572906494,-0.024277642369270325,0.5029720664024353
1739983199766531600,9.680531494140626,-3.4812633991241455,-0.07877524197101593,0.2599985599517822
1739983199776513500,9.690513427734375,-3.498335361480713,-0.11498916894197464,-0.0026770094409585
1739983199786495500,9.70049560546875,-3.49884033203125,-0.13952700793743134,-0.229047030210495
1739983199796477400,9.7104775390625,-3.509908437728882,-0.17149798572063446,-0.361933171749115
1739983199806460700,9.720460693359374,-3.561962127685547,-0.20360665023326874,-0.39465010166168213
1739983199816442400,9.7304423828125,-3.627617835998535,-0.25338777899742126,-0.3569307029247284
1739983199826424600,9.740424560546876,-3.689378261566162,-0.344524085521698,-0.2854999303817749
1739983199836407300,9.7504072265625,-3.726780891418457,-0.4297037124633789,-0.213392436504364
1739983199846389500,9.760389404296875,-3.737145185470581,-0.47013553977012634,-0.1367088407278061
1739983199856371500,9.770371337890625,-3.7285637855529785,-0.4621817469596863,-0.06324394792318344
1739983199866354400,9.7803544921875,-3.695056200027466,-0.4072628319263458,-0.010421748273074627
1739983199876336600,9.790336669921874,-3.6176958084106445,-0.31714385747909546,0.018623486161231995
1739983199886318300,9.800318359375,-3.4907166957855225,-0.18526360392570496,0.03153875097632408
1739983199896300500,9.810300537109375,-3.3399465084075928,-0.01973002962768078,0.025557290762662888
1739983199906283500,9.820283447265625,-3.1945395469665527,0.11629145592451096,0.02046639285981655
1739983199916265500,9.830265380859375,-3.073443651199341,0.1807601898908615,0.008570052683353424
1739983199926247700,9.84024755859375,-2.9852161407470703,0.1696108728647232,-0.01960725709795952
1739983199936230400,9.85023046875,-2.930713415145874,0.11272042244672775,-0.06913459300994873
1739983199946212600,9.860212646484374,-2.9001989364624023,0.03585440292954445,-0.12840084731578827
1739983199956194300,9.8701943359375,-2.8631510734558105,-0.04884077608585358,-0.1997959315776825
1739983199966176500,9.880176513671875,-2.822305202484131,-0.12865890562534332,-0.28323569893836975
1739983199976159500,9.890159423828125,-2.765807628631592,-0.17711006104946136,-0.35220226645469666
1739983199986141400,9.900141357421875,-2.6898884773254395,-0.16352447867393494,-0.3836720287799835
1739983199996123600,9.91012353515625,-2.593489646911621,-0.08871708810329437,-0.3715607821941376
1739983200006106600,9.920106689453124,-2.475360631942749,0.009791377931833267,-0.3170416057109833
1739983200016088600,9.930088623046874,-2.3251895904541016,0.0733538419008255,-0.24127280712127686
1739983200026070500,9.940070556640626,-2.151757001876831,0.07645908743143082,-0.1431094855070114
1739983200036053500,9.950053466796875,-1.9652602672576904,0.057978082448244095,-0.03492229804396629
1739983200046035500,9.960035400390625,-1.7658464908599854,0.08130497485399246,0.05427149310708046
1739983200056017400,9.970017333984375,-1.5453485250473022,0.18890947103500366,0.10364357382059097
1739983200065999600,9.97999951171875,-1.2889398336410522,0.33610716462135315,0.12054186314344406
1739983200075982600,9.989982666015624,-0.988958477973938,0.4294043481349945,0.15079936385154724
1739983200085964500,9.999964599609376,-0.6548073887825012,0.4293777346611023,0.2092035561800003
1739983200095946500,10.009946533203125,-0.32230639457702637,0.3493422865867615,0.3117661476135254
1739983200105929700,10.0199296875,-0.008653408847749233,0.1739709973335266,0.4752059280872345
1739983200115911400,10.029911376953125,0.29519274830818176,-0.06106308847665787,0.6950086355209351
1739983200125893600,10.0398935546875,0.6040235757827759,-0.28955990076065063,0.9219573140144348
1739983200135876400,10.04987646484375,0.9333354234695435,-0.4320717751979828,1.1376992464065552
1739983200145858600,10.059858642578124,1.2928826808929443,-0.45624130964279175,1.314941644668579
1739983200155840500,10.069840576171876,1.6885064840316772,-0.3083261549472809,1.4357069730758667
1739983200165822500,10.079822509765625,2.1142971515655518,-0.026026541367173195,1.4869756698608398
1739983200175805700,10.0898056640625,2.5397679805755615,0.3495878279209137,1.4949396848678589
1739983200185787400,10.099787353515625,2.946981430053711,0.7611420750617981,1.4834686517715454
1739983200195769600,10.10976953125,3.3218986988067627,1.1433073282241821,1.4491276741027832
1739983200205752600,10.119752685546874,3.6476657390594482,1.4856579303741455,1.3864613771438599
1739983200215734500,10.129734619140624,3.889796733856201,1.814083218574524,1.2882695198059082
1739983200225716500,10.139716552734376,4.037106990814209,2.114874839782715,1.1654847860336304
1739983200235699500,10.149699462890625,4.100603103637695,2.3416991233825684,1.0117199420928955
1739983200245681400,10.159681396484375,4.099976062774658,2.4207026958465576,0.8348267078399658
1739983200255663400,10.169663330078125,4.036676406860352,2.32794451713562,0.6375998854637146
1739983200265645600,10.1796455078125,3.9115869998931885,2.0870163440704346,0.4389629662036896
1739983200275628500,10.189628662109374,3.751995801925659,1.7563656568527222,0.2365155965089798
1739983200285610500,10.199610595703126,3.567626476287842,1.4112242460250854,0.013572268187999725
1739983200295592400,10.209592529296875,3.4074249267578125,1.086244821548462,-0.23380476236343384
1739983200305575700,10.21957568359375,3.296626091003418,0.7849145531654358,-0.5111748576164246
1739983200315557400,10.229557373046875,3.250028371810913,0.508082389831543,-0.8002117276191711
1739983200325539600,10.23953955078125,3.2540438175201416,0.26626017689704895,-1.0697457790374756
1739983200335522300,10.249522216796874,3.2539138793945312,0.07562605291604996,-1.2785130739212036
1739983200345504500,10.25950439453125,3.2334439754486084,-0.05925959348678589,-1.4162712097167969
1739983200355486500,10.269486572265626,3.218662738800049,-0.12952390313148499,-1.4969245195388794
1739983200365468400,10.279468505859375,3.2237913608551025,-0.13630405068397522,-1.5366127490997314
1739983200375451600,10.28945166015625,3.2551345825195312,-0.09038076549768448,-1.5428693294525146
1739983200385433300,10.299433349609375,3.3076226711273193,0.00749040674418211,-1.5175323486328125
1739983200395415600,10.30941552734375,3.3842933177948,0.10490138083696365,-1.458100438117981
1739983200405398500,10.3193984375,3.4588327407836914,0.1630762666463852,-1.3918873071670532
1739983200415380500,10.32938037109375,3.5150012969970703,0.1939801275730133,-1.3257192373275757
1739983200425362700,10.33936279296875,3.5502378940582275,0.21266859769821167,-1.2517073154449463
1739983200435345400,10.349345458984375,3.55511212348938,0.2079089879989624,-1.1834232807159424
1739983200445327600,10.35932763671875,3.5263988971710205,0.1971024125814438,-1.119480013847351
1739983200455309300,10.369309326171875,3.466183662414551,0.19053639471530914,-1.0660159587860107
1739983200465292500,10.37929248046875,3.3792624473571777,0.1941034346818924,-1.0154856443405151
1739983200475274500,10.3892744140625,3.272784948348999,0.21237191557884216,-0.9811093211174011
1739983200485256400,10.39925634765625,3.1700360774993896,0.22793783247470856,-0.9650206565856934
1739983200495238700,10.40923876953125,3.0691137313842773,0.23189155757427216,-0.9601483941078186
1739983200505221400,10.419221435546875,2.947969675064087,0.19939406216144562,-0.9647298455238342
1739983200515203600,10.42920361328125,2.7975926399230957,0.1271965652704239,-0.9650507569313049
1739983200525185300,10.439185302734375,2.6025660037994385,0.028834311291575432,-0.9544873237609863
1739983200535168500,10.44916845703125,2.3702738285064697,-0.09287507832050323,-0.938147783279419
1739983200545150200,10.459150146484374,2.117563009262085,-0.23310250043869019,-0.9043263792991638
1739983200555132400,10.46913232421875,1.847108006477356,-0.3545096218585968,-0.8539109230041504
1739983200565115400,10.479115478515626,1.5677634477615356,-0.441915899515152,-0.7947540879249573
1739983200575097300,10.489097412109375,1.2872364521026611,-0.49618685245513916,-0.7358178496360779
1739983200585079600,10.49907958984375,1.0118839740753174,-0.5383790731430054,-0.6830909848213196
1739983200595062500,10.5090625,0.7430014610290527,-0.5919850468635559,-0.6321582794189453
1739983200605044500,10.51904443359375,0.4518635869026184,-0.6254526972770691,-0.5749914050102234
1739983200615026400,10.5290263671875,0.12548334896564484,-0.6129251718521118,-0.5035409331321716
1739983200625008400,10.53900830078125,-0.23250462114810944,-0.567485511302948,-0.4163056015968323
1739983200634991400,10.548991455078125,-0.6150205731391907,-0.5303195118904114,-0.2995542287826538
1739983200644973300,10.558973388671875,-1.0079632997512817,-0.5277775526046753,-0.15069976449012756
1739983200654955300,10.568955322265625,-1.3835992813110352,-0.5797565579414368,0.025950640439987183
1739983200664938500,10.5789384765625,-1.722901701927185,-0.6882023811340332,0.2187264859676361
1739983200674920400,10.58892041015625,-2.014478921890259,-0.7897537350654602,0.4193682372570038
1739983200684902400,10.59890234375,-2.216850996017456,-0.8214722871780396,0.5994524955749512
1739983200694885400,10.608885498046876,-2.3056633472442627,-0.7833666801452637,0.7421084642410278
1739983200704867300,10.618867431640625,-2.3132362365722656,-0.662295937538147,0.8507018089294434
1739983200714849500,10.628849609375,-2.2782931327819824,-0.4834257960319519,0.9331218600273132
1739983200724832300,10.638832275390625,-2.2581403255462646,-0.2459903359413147,1.0045675039291382
1739983200734814500,10.648814453125,-2.284825563430786,-0.016151273623108864,1.0545310974121094
1739983200744796200,10.658796142578124,-2.3569557666778564,0.17554280161857605,1.0913552045822144
1739983200754778400,10.6687783203125,-2.457534074783325,0.3034789264202118,1.11329185962677
1739983200764761300,10.67876123046875,-2.5466458797454834,0.39241278171539307,1.1037236452102661
1739983200774743300,10.688743408203125,-2.5645253658294678,0.4005993604660034,1.0518280267715454
1739983200784725500,10.6987255859375,-2.525949478149414,0.34099140763282776,0.9395805597305298
1739983200794708500,10.70870849609375,-2.4801836013793945,0.20838436484336853,0.7769215703010559
1739983200804690400,10.7186904296875,-2.464324951171875,0.03304210677742958,0.564710795879364
1739983200814672400,10.72867236328125,-2.505868673324585,-0.1413201093673706,0.311008483171463
1739983200824655400,10.7386552734375,-2.600327968597412,-0.27392154932022095,0.022244319319725037
1739983200834637300,10.74863720703125,-2.749659299850464,-0.3501311242580414,-0.3031787872314453
1739983200844619300,10.758619384765625,-2.914496421813965,-0.3876957893371582,-0.6164072751998901
1739983200854602200,10.768602294921875,-3.080601692199707,-0.3974789083003998,-0.8972173929214478
1739983200864584400,10.77858447265625,-3.2377614974975586,-0.419951468706131,-1.1123073101043701
1739983200874566400,10.78856640625,-3.3982503414154053,-0.4816177785396576,-1.259362816810608
1739983200884549400,10.79854931640625,-3.557636260986328,-0.6003167033195496,-1.3488556146621704
1739983200894531600,10.808531494140626,-3.7345943450927734,-0.7714669108390808,-1.3897870779037476
1739983200904513300,10.81851318359375,-3.9342219829559326,-0.9519996643066406,-1.4147065877914429
1739983200914496500,10.82849658203125,-4.155520439147949,-1.174185037612915,-1.418434977531433
1739983200924478200,10.838478271484375,-4.371278762817383,-1.329981803894043,-1.438694715499878
1739983200934460400,10.84846044921875,-4.514008045196533,-1.4011404514312744,-1.4897443056106567
1739983200944442400,10.8584423828125,-4.5540690422058105,-1.3274012804031372,-1.543565273284912
1739983200954425300,10.86842529296875,-4.462325572967529,-0.8466527462005615,-1.4880207777023315
1739983200964407600,10.878407470703126,-4.189155101776123,-0.26405614614486694,-1.2939484119415283
1739983200974389200,10.88838916015625,-3.804734945297241,0.2794708013534546,-1.1488754749298096
1739983200984372500,10.89837255859375,-3.4072813987731934,0.5675675868988037,-0.9420082569122314
1739983200994354400,10.9083544921875,-3.0959322452545166,0.7632957696914673,-0.6961880922317505
1739983201004336400,10.91833642578125,-2.892671823501587,0.8925568461418152,-0.4591420292854309
1739983201014319400,10.9283193359375,-2.788299798965454,0.999944269657135,-0.2877252697944641
1739983201024301300,10.93830126953125,-2.7621874809265137,1.1227335929870605,-0.1957617849111557
1739983201034283500,10.948283447265625,-2.7932188510894775,1.26449716091156,-0.18855206668376923
1739983201044266500,10.9582666015625,-2.851015090942383,1.4053990840911865,-0.21923381090164185
1739983201054248400,10.96824853515625,-2.919265031814575,1.489326000213623,-0.2592877447605133
1739983201064230400,10.97823046875,-2.9558558464050293,1.4987213611602783,-0.2827797830104828
1739983201074213400,10.98821337890625,-2.9178659915924072,1.3913352489471436,-0.26143720746040344
1739983201084195300,10.9981953125,-2.7797718048095703,1.170318365097046,-0.19336333870887756
1739983201094177500,11.008177490234376,-2.552928924560547,0.85521399974823,-0.10037747025489807
1739983201104160300,11.01816015625,-2.2681663036346436,0.5185627341270447,-0.0015068164793774486
1739983201114142500,11.028142578125,-1.9499359130859375,0.22260697185993195,0.07682500779628754
1739983201124124400,11.03812451171875,-1.6162679195404053,-0.04878271743655205,0.10256525874137878
1739983201134106400,11.0481064453125,-1.2695446014404297,-0.30091536045074463,0.0821760967373848
1739983201144089300,11.05808935546875,-0.9281195998191833,-0.5140460133552551,0.06375980377197266
1739983201154071300,11.0680712890625,-0.5985537171363831,-0.6300399899482727,0.06518246233463287
1739983201164053500,11.078053466796876,-0.28298428654670715,-0.6761033535003662,0.11040240526199341
1739983201174036200,11.0880361328125,0.031717449426651,-0.6860278844833374,0.1893073469400406
1739983201184018400,11.098018310546875,0.3715195059776306,-0.7160539627075195,0.303801953792572
1739983201194000400,11.10800048828125,0.7180691957473755,-0.7694279551506042,0.44326052069664
1739983201203983400,11.1179833984375,1.0669342279434204,-0.7695906758308411,0.5934444069862366
1739983201213965300,11.12796533203125,1.4076446294784546,-0.6415498852729797,0.7328758239746094
1739983201223947300,11.137947265625,1.7666810750961304,-0.3940698206424713,0.8397628664970398
1739983201233930200,11.14793017578125,2.121124505996704,-0.054312508553266525,0.9096165299415588
1739983201243912400,11.157912353515625,2.446169376373291,0.2954942286014557,0.9452232122421265
1739983201253894400,11.167894287109375,2.7207460403442383,0.6295773983001709,0.9742101430892944
1739983201263877400,11.17787744140625,2.9299755096435547,0.916252851486206,1.004425048828125
1739983201273859300,11.187859375,3.067971706390381,1.126524567604065,1.0343281030654907
1739983201283841300,11.19784130859375,3.1409201622009277,1.269753098487854,1.0515168905258179
1739983201293824500,11.207824462890626,3.170010805130005,1.3582321405410767,1.0318078994750977
1739983201303806200,11.21780615234375,3.1815524101257324,1.3986461162567139,0.9847208261489868
1739983201313788400,11.227788330078125,3.1651034355163574,1.4099853038787842,0.9200693964958191
1739983201323771400,11.237771484375,3.1504251956939697,1.335261344909668,0.8707972168922424
1739983201333753300,11.24775341796875,3.1722357273101807,1.1814783811569214,0.8356144428253174
1739983201343735600,11.257735595703124,3.2558059692382812,0.9765012860298157,0.8077495098114014
1739983201353718300,11.26771826171875,3.3972582817077637,0.7446584701538086,0.7721518874168396
1739983201363700500,11.277700439453126,3.568613290786743,0.5052647590637207,0.6915339827537537
1739983201373682200,11.28768212890625,3.746499538421631,0.2848149538040161,0.5545684099197388
1739983201383665400,11.29766552734375,3.896109104156494,0.08436814695596695,0.3696257174015045
1739983201393647400,11.3076474609375,4.004870891571045,-0.08373244851827621,0.14429645240306854
1739983201403629300,11.31762939453125,4.067991733551025,-0.1857115477323532,-0.09535927325487137
1739983201413612300,11.3276123046875,4.106096267700195,-0.21471630036830902,-0.32780930399894714
1739983201423594500,11.337594482421874,4.12341833114624,-0.19513992965221405,-0.5342229008674622
1739983201433576400,11.347576416015626,4.1270270347595215,-0.17163033783435822,-0.7012587785720825
1739983201443559400,11.357559326171875,4.127103328704834,-0.1687818318605423,-0.8256060481071472
1739983201453541400,11.367541259765625,4.125527858734131,-0.1933300495147705,-0.9050111174583435
1739983201463523300,11.3775234375,4.105191230773926,-0.21504466235637665,-0.9516534209251404
1739983201473505300,11.38750537109375,4.058765888214111,-0.2029419243335724,-0.9762192368507385
1739983201483488300,11.39748828125,3.9941329956054688,-0.15922826528549194,-0.9725536704063416
1739983201493470500,11.407470458984376,3.8902859687805176,-0.10756853967905045,-0.9616690874099731
1739983201503452400,11.417452392578125,3.73111629486084,-0.06653028726577759,-0.940918505191803
1739983201513436400,11.4274365234375,3.5253055095672607,-0.01798699051141739,-0.9073312282562256
1739983201523418000,11.437418212890625,3.2916100025177,0.05770377442240715,-0.8706693649291992
1739983201533400300,11.447400390625,3.0428409576416016,0.1580921709537506,-0.8303776383399963
1739983201543383300,11.45738330078125,2.7954654693603516,0.29024699330329895,-0.7885609269142151
1739983201553365200,11.467365234375,2.5707361698150635,0.4364966154098511,-0.7401348352432251
1739983201563347500,11.477347412109374,2.370166540145874,0.5975707173347473,-0.6861421465873718
1739983201573330200,11.487330078125,2.2045247554779053,0.7571244239807129,-0.6259110569953918
1739983201583312400,11.4973125,2.0580039024353027,0.8929957151412964,-0.5498626232147217
1739983201593294000,11.507294189453125,1.9202653169631958,0.9852918386459351,-0.44423070549964905
1739983201603277300,11.51727734375,1.763930320739746,1.0139554738998413,-0.3078417181968689
1739983201613259300,11.52725927734375,1.582521677017212,0.9600549340248108,-0.1412000060081482
1739983201623241200,11.5372412109375,1.39340078830719,0.8321121335029602,0.053039781749248505
1739983201633224200,11.54722412109375,1.1607393026351929,0.6425781846046448,0.22426772117614746
1739983201643206400,11.557206298828126,0.8731623888015747,0.42583465576171875,0.3207513988018036
1739983201653188400,11.567188232421875,0.5375422835350037,0.20532040297985077,0.32681432366371155
1739983201663171300,11.57717138671875,0.1495514065027237,0.06536941975355148,0.24166402220726013
1739983201673153300,11.5871533203125,-0.2941719591617584,0.028794363141059875,0.09326283633708954
1739983201683135200,11.59713525390625,-0.7700788378715515,0.06881608068943024,-0.08448585867881775
1739983201693118200,11.6071181640625,-1.2505629062652588,0.130960151553154,-0.23543435335159302
1739983201703100200,11.61710009765625,-1.6720778942108154,0.15012425184249878,-0.29401618242263794
1739983201713082400,11.627082275390626,-2.0188472270965576,0.09965895116329193,-0.24562574923038483
1739983201723065000,11.637065185546875,-2.2791900634765625,-0.027841750532388687,-0.11953598260879517
1739983201733047300,11.64704736328125,-2.452479839324951,-0.21038253605365753,0.04609958454966545
1739983201743029200,11.657029296875,-2.541527271270752,-0.39321625232696533,0.2201632559299469
1739983201753012200,11.66701220703125,-2.572068452835083,-0.5081308484077454,0.38428348302841187
1739983201762994200,11.676994140625,-2.555899143218994,-0.5028396844863892,0.5111485123634338
1739983201772976000,11.68697607421875,-2.4997806549072266,-0.39749783277511597,0.597365140914917
1739983201782959000,11.696958984375,-2.4394350051879883,-0.21590779721736908,0.6692633032798767
1739983201792941300,11.70694140625,-2.4090497493743896,0.022344985976815224,0.7283782958984375
1739983201802923300,11.71692333984375,-2.430072784423828,0.2663477957248688,0.7857472896575928
1739983201812906200,11.72690625,-2.5082285404205322,0.4418269395828247,0.8482783436775208
1739983201822888200,11.73688818359375,-2.629511833190918,0.49683746695518494,0.9027125239372253
1739983201832870100,11.7468701171875,-2.7389540672302246,0.4281116724014282,0.9384825229644775
1739983201842853400,11.756853271484376,-2.835909605026245,0.2769487798213959,0.9371104836463928
1739983201852835000,11.7668349609375,-2.9254822731018066,0.08364163339138031,0.8829002380371094
1739983201862817300,11.7768173828125,-3.01336669921875,-0.11944570392370224,0.7851294279098511
1739983201872800300,11.78680029296875,-3.101300001144409,-0.2988458275794983,0.6305491924285889
1739983201882782200,11.7967822265625,-3.165339469909668,-0.4200470745563507,0.427491694688797
1739983201892764400,11.806764404296874,-3.2057442665100098,-0.4761582911014557,0.2109689563512802
1739983201902747100,11.8167470703125,-3.2344377040863037,-0.5007549524307251,0.00016058860637713224
1739983201912729300,11.826729248046876,-3.2739882469177246,-0.5175632238388062,-0.1663154810667038
1739983201922711000,11.8367109375,-3.3560585975646973,-0.5312218070030212,-0.25324663519859314
1739983201932694300,11.8466943359375,-3.4757580757141113,-0.5411165356636047,-0.2691795229911804
1739983201942676200,11.85667626953125,-3.587244987487793,-0.5830799341201782,-0.2181168794631958
1739983201952659500,11.866659423828125,-3.665233850479126,-0.6238337755203247,-0.13476820290088654
1739983201962641200,11.87664111328125,-3.7174196243286133,-0.6481641530990601,-0.029878802597522736
1739983201972624400,11.886624267578124,-3.729163885116577,-0.6518651247024536,0.07217752188444138
1739983201982606000,11.896606201171876,-3.706425905227661,-0.5806633830070496,0.14994315803050995
1739983201992588300,11.90658837890625,-3.650574207305908,-0.40789908170700073,0.19237424433231354
1739983202002571300,11.9165712890625,-3.552187919616699,-0.17986750602722168,0.19522328674793243
1739983202012553200,11.92655322265625,-3.4335250854492188,0.058211106806993484,0.1672808676958084
1739983202022535400,11.936535400390625,-3.313244342803955,0.2487187385559082,0.12269369512796402
1739983202032518100,11.94651806640625,-3.2137629985809326,0.3620487451553345,0.07456424832344055
1739983202042500400,11.956500244140624,-3.145890712738037,0.3807862401008606,0.03863687440752983
1739983202052482300,11.966482421875,-3.1118991374969482,0.35218334197998047,0.006579872220754623
1739983202062465300,11.97646533203125,-3.093235969543457,0.32569047808647156,-0.029450833797454834
1739983202072447200,11.986447265625,-3.067732334136963,0.3372350335121155,-0.07152025401592255
1739983202082429200,11.99642919921875,-3.0152409076690674,0.3818320631980896,-0.09748101979494095
1739983202092412200,12.006412109375,-2.9294352531433105,0.4342329502105713,-0.10432694107294083
1739983202102394400,12.016394287109375,-2.8103678226470947,0.486001580953598,-0.07785698026418686
1739983202112376300,12.026376220703124,-2.6831893920898438,0.4954230487346649,-0.008783637546002865
1739983202122359300,12.036359375,-2.5682899951934814,0.43294158577919006,0.10421641916036606
1739983202132341200,12.04634130859375,-2.459512948989868,0.3170538544654846,0.23792041838169098
1739983202142323200,12.0563232421875,-2.3169655799865723,0.16918689012527466,0.37447214126586914
1739983202152306400,12.066306396484375,-2.109569787979126,0.02443050779402256,0.4846321940422058
1739983202162288000,12.0762880859375,-1.8248592615127563,-0.05583423748612404,0.5218360424041748
1739983202172270300,12.086270263671874,-1.4415693283081055,-0.07620635628700256,0.47852957248687744
1739983202182253300,12.09625341796875,-0.9840995073318481,-0.09736649692058563,0.3768191933631897
1739983202192235300,12.1062353515625,-0.49570801854133606,-0.16150207817554474,0.24929717183113098
1739983202202217200,12.11621728515625,-0.020084761083126068,-0.28557634353637695,0.11169643700122833
1739983202212200200,12.1262001953125,0.41245412826538086,-0.42112112045288086,-0.04791559278964996
1739983202222182400,12.136182373046875,0.7862759232521057,-0.5618017911911011,-0.19685180485248566
1739983202232164000,12.1461640625,1.0952500104904175,-0.8813867568969727,-0.23864293098449707
1739983202242147300,12.156147216796874,1.3229825496673584,-0.8266241550445557,-0.2772047221660614
1739983202252129300,12.16612939453125,1.5316667556762695,-0.646986722946167,-0.3744111657142639
1739983202262111200,12.176111328125,1.798919439315796,-0.43390482664108276,-0.4715443551540375
1739983202272094200,12.18609423828125,2.131441354751587,-0.21507155895233154,-0.5191236138343811
1739983202282076400,12.196076416015625,2.4818432331085205,-0.005542570725083351,-0.5008516311645508
1739983202292058000,12.20605810546875,2.8201136589050293,0.17997269332408905,-0.3988155722618103
1739983202302041300,12.216041259765625,3.1398022174835205,0.3760093152523041,-0.24332717061042786
1739983202312023000,12.22602294921875,3.44026780128479,0.5567532777786255,-0.05179315805435181
1739983202322005200,12.236005126953126,3.726386547088623,0.7139173150062561,0.15637069940567017
1739983202331987200,12.2459873046875,3.9890315532684326,0.8256095051765442,0.34402793645858765
1739983202341970200,12.25597021484375,4.1795878410339355,0.886519730091095,0.5051867365837097
1739983202351952400,12.265952392578125,4.270410537719727,0.9118293523788452,0.6318637132644653
1739983202361934000,12.27593408203125,4.25695276260376,0.910293459892273,0.7232929468154907
1739983202371917300,12.285917236328125,4.162479877471924,0.8937760591506958,0.7810699939727783
1739983202381899300,12.295899169921874,4.025091648101807,0.8522027730941772,0.7986516356468201
1739983202391881200,12.305881103515626,3.900648355484009,0.7781850099563599,0.7735497355461121
1739983202401864200,12.3158642578125,3.8178436756134033,0.6615476012229919,0.7039099335670471
1739983202411846100,12.32584619140625,3.790466547012329,0.5192990899085999,0.5890371799468994
1739983202421828400,12.335828369140625,3.7984092235565186,0.35586437582969666,0.4266511797904968
1739983202431811300,12.345811279296875,3.822571277618408,0.19012519717216492,0.23776595294475555
1739983202441793300,12.355793212890624,3.828448534011841,0.049552105367183685,0.032459404319524765
1739983202451775200,12.365775146484374,3.814255952835083,-0.047577373683452606,-0.1625140756368637
1739983202461758200,12.37575830078125,3.7978134155273438,-0.10414184629917145,-0.33011478185653687
1739983202471740200,12.385740234375,3.790576219558716,-0.12706340849399567,-0.472921222448349
1739983202481723400,12.395723388671875,3.7931065559387207,-0.12254109233617783,-0.5811116099357605
1739983202491705000,12.405705078125,3.807495355606079,-0.08963188529014587,-0.6501551270484924
1739983202501687300,12.415687255859375,3.8429160118103027,-0.05583210662007332,-0.6728940010070801
1739983202511669200,12.425669189453124,3.886535406112671,-0.036923930048942566,-0.6689631342887878
1739983202521651200,12.435651123046876,3.920891284942627,-0.033250097185373306,-0.6508136987686157
1739983202531633200,12.445633056640625,3.9285807609558105,-0.032224249094724655,-0.6199697852134705
1739983202541616000,12.4556162109375,3.8988661766052246,-0.012582637369632721,-0.586899995803833
1739983202551598300,12.465598388671875,3.824855089187622,0.010733071714639664,-0.5588576793670654
1739983202561580300,12.475580322265625,3.7008981704711914,0.04031147062778473,-0.542975127696991
1739983202571563300,12.485563232421875,3.5329105854034424,0.04753050208091736,-0.5475658774375916
1739983202581545500,12.49554541015625,3.333268642425537,0.051901813596487045,-0.585405170917511
1739983202591527200,12.505527099609376,3.1181790828704834,0.05754531919956207,-0.6560683846473694
1739983202601510400,12.515510498046876,2.888993740081787,0.07077377289533615,-0.7703558206558228
1739983202611492000,12.5254921875,2.6468889713287354,0.10480790585279465,-0.903330385684967
1739983202621474300,12.535474365234375,2.3830726146698,0.12670227885246277,-1.022883653640747
1739983202631457300,12.545457275390625,2.0876903533935547,0.10358311980962753,-1.1085948944091797
1739983202641439200,12.555439208984374,1.7560207843780518,0.04597148671746254,-1.1530100107192993
1739983202651421200,12.565421142578124,1.4295179843902588,-0.06419389694929123,-1.1574862003326416
