time,seconds_elapsed,z,y,x
1739920574468920800,0.0309208984375,-1.2143402099609375,-0.1415252685546875,-0.0735015869140625
1739920574478903800,0.04090380859375,-1.1559295654296875,-0.15228271484375,-0.006500244140625
1739920574488885800,0.0508857421875,-1.0492401123046875,-0.1583251953125,0.020843505859375
1739920574498868000,0.060867919921875,-0.960845947265625,-0.1713104248046875,0.003173828125
1739920574508850000,0.070849853515625,-0.9343414306640625,-0.20391845703125,-0.0201263427734375
1739920574518831900,0.080831787109375,-0.8831024169921875,-0.2257232666015625,-0.0070648193359375
1739920574528813800,0.090813720703125,-0.783477783203125,-0.24346923828125,0.002716064453125
1739920574538796800,0.100796875,-0.7816314697265625,-0.3051300048828125,0.0020294189453125
1739920574548778800,0.11077880859375,-0.9164886474609375,-0.2792510986328125,0.107574462890625
1739920574558761000,0.120760986328125,-0.988006591796875,-0.1800537109375,0.1711273193359375
1739920574568743000,0.130742919921875,-0.9470977783203125,-0.1241455078125,0.2141876220703125
1739920574578724900,0.140724853515625,-0.84478759765625,-0.11627197265625,0.2163238525390625
1739920574588707000,0.15070703125,-0.7027587890625,-0.1321868896484375,0.258087158203125
1739920574598689800,0.160689697265625,-0.5723724365234375,-0.21466064453125,0.323272705078125
1739920574608671500,0.17067138671875,-0.4571990966796875,-0.323638916015625,0.2830352783203125
1739920574618653200,0.180653076171875,-0.4083099365234375,-0.3863372802734375,0.1465606689453125
1739920574628635400,0.190635498046875,-0.4504547119140625,-0.40960693359375,0.065765380859375
1739920574638617300,0.200617431640625,-0.4637298583984375,-0.3802490234375,0.070465087890625
1739920574648599300,0.210599365234375,-0.41552734375,-0.3358001708984375,0.0992584228515625
1739920574658582500,0.22058251953125,-0.3653564453125,-0.2984466552734375,0.1149139404296875
1739920574668564200,0.230564208984375,-0.3663482666015625,-0.3084869384765625,0.0882415771484375
1739920574678546400,0.24054638671875,-0.431793212890625,-0.3367919921875,0.0751495361328125
1739920574688528400,0.2505283203125,-0.53839111328125,-0.367889404296875,0.1089630126953125
1739920574698510300,0.26051025390625,-0.72467041015625,-0.4002685546875,0.1862945556640625
1739920574708493300,0.270493408203125,-0.760345458984375,-0.28240966796875,0.3011474609375
1739920574718475300,0.280475341796875,-0.6908111572265625,-0.13720703125,0.3458251953125
1739920574728457500,0.29045751953125,-0.813720703125,-0.0408782958984375,0.2718048095703125
1739920574738439400,0.300439453125,-0.9003753662109375,0.0015411376953125,0.246795654296875
1739920574748421400,0.31042138671875,-1.0491790771484375,0.0035247802734375,0.2516021728515625
1739920574758403300,0.3204033203125,-1.015411376953125,0.02288818359375,0.156280517578125
1739920574768386300,0.33038623046875,-0.9202423095703125,-0.0287628173828125,0.03375244140625
1739920574778368300,0.3403681640625,-0.87890625,-0.15692138671875,-0.057769775390625
1739920574788350500,0.3503505859375,-0.872222900390625,-0.2308349609375,-0.0674896240234375
1739920574798332400,0.36033251953125,-0.8628997802734375,-0.2326202392578125,-0.01171875
1739920574808314400,0.370314453125,-0.80621337890625,-0.2209930419921875,0.04949951171875
1739920574818296300,0.38029638671875,-0.740631103515625,-0.21990966796875,0.145721435546875
1739920574828279300,0.390279296875,-0.76544189453125,-0.2404022216796875,0.255767822265625
1739920574838261200,0.40026123046875,-0.775360107421875,-0.2320098876953125,0.3425140380859375
1739920574848243200,0.4102431640625,-0.64892578125,-0.11962890625,0.4463958740234375
1739920574858225400,0.420225341796875,-0.5146484375,-0.0058441162109375,0.4403228759765625
1739920574868207000,0.43020703125,-0.532257080078125,0.0135498046875,0.3346405029296875
1739920574878190300,0.4401904296875,-0.8910064697265625,0.03778076171875,0.2525482177734375
1739920574888172300,0.45017236328125,-0.8196258544921875,0.0085906982421875,0.212310791015625
1739920574898154200,0.460154296875,-0.75531005859375,0.1303253173828125,0.485137939453125
1739920574908136400,0.470136474609375,-0.774505615234375,0.2314300537109375,0.7627716064453125
1739920574918118100,0.4801181640625,-0.8327484130859375,0.224609375,0.8704376220703125
1739920574928100400,0.490100341796875,-0.8520660400390625,0.236083984375,0.8187255859375
1739920574938083300,0.500083251953125,-0.7563018798828125,0.3725433349609375,0.897705078125
1739920574948065300,0.510065185546875,-0.639251708984375,0.4511566162109375,0.971160888671875
1739920574958047500,0.520047607421875,-0.5681610107421875,0.447174072265625,1.0185089111328125
1739920574968029200,0.530029296875,-0.5715789794921875,0.3858642578125,1.00897216796875
1739920574978011400,0.540011474609375,-0.642181396484375,0.326416015625,0.925537109375
1739920574987994400,0.549994384765625,-0.74072265625,0.29534912109375,0.8496856689453125
1739920574997976300,0.559976318359375,-0.865631103515625,0.270355224609375,0.8563690185546875
1739920575007958500,0.56995849609375,-0.9355926513671875,0.2658233642578125,0.957489013671875
1739920575017940200,0.579940185546875,-0.869964599609375,0.3075408935546875,1.0929412841796875
1739920575027922400,0.58992236328125,-0.778839111328125,0.2843017578125,1.0977325439453125
1739920575037904400,0.599904296875,-0.6737518310546875,0.157440185546875,0.94476318359375
1739920575047887400,0.609887451171875,-0.5757293701171875,0.098052978515625,0.7770538330078125
1739920575057869300,0.619869384765625,-0.5243072509765625,0.1064605712890625,0.7184600830078125
1739920575067851300,0.629851318359375,-0.5799560546875,0.0927734375,0.6367034912109375
1739920575077833500,0.63983349609375,-0.7350616455078125,0.0407867431640625,0.518341064453125
1739920575087815200,0.649815185546875,-0.8849334716796875,0.0188751220703125,0.4849395751953125
1739920575097797400,0.65979736328125,-0.7978515625,0.1440887451171875,0.6741485595703125
1739920575107780000,0.669780029296875,-0.6729736328125,0.2104339599609375,0.7496185302734375
1739920575117762300,0.67976220703125,-0.54156494140625,0.1824798583984375,0.7743988037109375
1739920575127744500,0.68974462890625,-0.4488525390625,0.1624603271484375,0.79022216796875
1739920575137726200,0.699726318359375,-0.4209136962890625,0.1891326904296875,0.8092041015625
1739920575147708400,0.70970849609375,-0.42218017578125,0.246795654296875,0.803558349609375
1739920575157691100,0.719691162109375,-0.3973846435546875,0.279144287109375,0.8167266845703125
1739920575167673300,0.72967333984375,-0.37188720703125,0.23931884765625,0.7983551025390625
1739920575177655300,0.7396552734375,-0.2821807861328125,0.108642578125,0.6605377197265625
1739920575187637200,0.74963720703125,-0.1539154052734375,0.1318511962890625,0.5248565673828125
1739920575197619500,0.759619384765625,-0.13153076171875,0.212066650390625,0.36907958984375
1739920575207601400,0.769601318359375,-0.1937713623046875,0.311279296875,0.31427001953125
1739920575217584400,0.77958447265625,-0.3052215576171875,0.37994384765625,0.3254852294921875
1739920575227566300,0.78956640625,-0.36810302734375,0.487030029296875,0.4114532470703125
1739920575237548300,0.79954833984375,-0.347137451171875,0.5423431396484375,0.555938720703125
1739920575247530200,0.8095302734375,-0.3395538330078125,0.51824951171875,0.6368255615234375
1739920575257512400,0.819512451171875,-0.3886260986328125,0.5093231201171875,0.6719818115234375
1739920575267495400,0.829495361328125,-0.4641571044921875,0.5157928466796875,0.682220458984375
1739920575277477400,0.839477294921875,-0.502288818359375,0.543243408203125,0.670806884765625
1739920575287459300,0.849459228515625,-0.584625244140625,0.593536376953125,0.7129974365234375
1739920575297441300,0.859441162109375,-0.641998291015625,0.6241912841796875,0.7859649658203125
1739920575307423200,0.86942333984375,-0.571868896484375,0.614532470703125,0.869964599609375
1739920575317405200,0.8794052734375,-0.48504638671875,0.6407318115234375,0.9727020263671875
1739920575327388200,0.88938818359375,-0.44580078125,0.719757080078125,1.04339599609375
1739920575337370400,0.899370361328125,-0.4676513671875,0.8022003173828125,1.0703887939453125
1739920575347352300,0.909352294921875,-0.5437164306640625,0.883453369140625,1.114227294921875
1739920575357334300,0.919334228515625,-0.615386962890625,0.926300048828125,1.1496734619140625
1739920575367316200,0.929316162109375,-0.6772613525390625,0.9793853759765625,1.224456787109375
1739920575377299200,0.93929931640625,-0.73773193359375,1.043853759765625,1.3061981201171875
1739920575387281400,0.949281494140625,-0.798095703125,1.0755462646484375,1.31304931640625
1739920575397263400,0.959263427734375,-0.8382568359375,1.095062255859375,1.3220062255859375
1739920575407245300,0.969245361328125,-0.8472747802734375,1.12109375,1.3606719970703125
1739920575417227300,0.979227294921875,-0.853607177734375,1.143951416015625,1.408721923828125
1739920575427210200,0.989210205078125,-0.8931121826171875,1.184814453125,1.46044921875
1739920575437192400,0.9991923828125,-0.972381591796875,1.1665802001953125,1.478729248046875
1739920575447174400,1.00917431640625,-1.0679931640625,1.12115478515625,1.5031890869140625
1739920575457156400,1.01915625,-1.1312103271484375,1.0330963134765625,1.4845123291015625
1739920575467138300,1.02913818359375,-1.14208984375,0.9111480712890625,1.443267822265625
1739920575477120500,1.03912060546875,-1.1316680908203125,0.81121826171875,1.429779052734375
1739920575487103200,1.049103271484375,-1.1248321533203125,0.704498291015625,1.4210052490234375
1739920575497085400,1.05908544921875,-1.12164306640625,0.576263427734375,1.4140472412109375
1739920575507067400,1.0690673828125,-1.116302490234375,0.4427642822265625,1.387054443359375
1739920575517049300,1.07904931640625,-1.1075286865234375,0.3482208251953125,1.382049560546875
1739920575527031300,1.08903125,-1.095428466796875,0.25885009765625,1.3541259765625
1739920575537014300,1.09901416015625,-1.0804443359375,0.1743621826171875,1.338897705078125
1739920575546996500,1.10899658203125,-1.0601806640625,0.120819091796875,1.3097076416015625
1739920575556978200,1.118978271484375,-1.0670166015625,0.0863800048828125,1.291473388671875
1739920575566960400,1.12896044921875,-1.0463409423828125,0.038238525390625,1.2295989990234375
1739920575576942300,1.1389423828125,-0.9535064697265625,-0.0047760009765625,1.1576080322265625
1739920575586925300,1.14892529296875,-0.8851165771484375,0.0236968994140625,1.1285552978515625
1739920575596907300,1.1589072265625,-0.8001556396484375,0.05389404296875,1.0904388427734375
1739920575606889700,1.1688896484375,-0.7268524169921875,0.0870361328125,1.038330078125
1739920575616871700,1.17887158203125,-0.6675872802734375,0.0854034423828125,1.001678466796875
1739920575626853600,1.188853515625,-0.6168670654296875,0.0835723876953125,1.0276947021484375
1739920575636835600,1.198835693359375,-0.5619964599609375,0.0791778564453125,1.0292816162109375
1739920575646818600,1.208818603515625,-0.49713134765625,0.01470947265625,0.9118499755859375
1739920575656800500,1.218800537109375,-0.525726318359375,0.03167724609375,0.8650665283203125
1739920575666782700,1.22878271484375,-0.61676025390625,0.075408935546875,0.8912506103515625
1739920575676764700,1.2387646484375,-0.6914215087890625,0.0919342041015625,0.9119110107421875
1739920575686746600,1.24874658203125,-0.783599853515625,0.16448974609375,1.0015716552734375
1739920575696729600,1.2587294921875,-0.8928985595703125,0.243133544921875,1.0682830810546875
1739920575706711600,1.268711669921875,-0.9708404541015625,0.2918853759765625,1.05279541015625
1739920575716693800,1.27869384765625,-0.9615936279296875,0.3144073486328125,1.004608154296875
1739920575726675500,1.288675537109375,-0.898040771484375,0.313720703125,0.9749755859375
1739920575736657700,1.29865771484375,-0.8208465576171875,0.3706512451171875,0.9928436279296875
1739920575746640600,1.308640625,-0.7377166748046875,0.43707275390625,1.0199432373046875
1739920575756622600,1.31862255859375,-0.678955078125,0.449005126953125,1.0120697021484375
1739920575766604500,1.3286044921875,-0.6380767822265625,0.43682861328125,1.0189056396484375
1739920575776586500,1.33858642578125,-0.5902557373046875,0.423431396484375,1.043914794921875
1739920575786568700,1.348568603515625,-0.561431884765625,0.4675445556640625,1.0355682373046875
1739920575796550400,1.35855029296875,-0.531005859375,0.441864013671875,1.085693359375
1739920575806533600,1.36853369140625,-0.5269622802734375,0.43414306640625,1.1179962158203125
1739920575816515600,1.378515625,-0.5283050537109375,0.4598388671875,1.1500091552734375
1739920575826497500,1.38849755859375,-0.528900146484375,0.476165771484375,1.1942291259765625
1739920575836479700,1.398479736328125,-0.5305633544921875,0.4983673095703125,1.277801513671875
1739920575846461400,1.40846142578125,-0.5008544921875,0.5038299560546875,1.38946533203125
1739920575856444700,1.418444580078125,-0.443817138671875,0.502716064453125,1.4453277587890625
1739920575866426600,1.428426513671875,-0.407745361328125,0.4955902099609375,1.46002197265625
1739920575876408600,1.43840869140625,-0.387359619140625,0.4737091064453125,1.484405517578125
1739920575886390800,1.448390869140625,-0.354522705078125,0.5176849365234375,1.4597015380859375
1739920575896372500,1.45837255859375,-0.3288726806640625,0.5915374755859375,1.390350341796875
1739920575906355700,1.468355712890625,-0.324981689453125,0.62158203125,1.34130859375
1739920575916337700,1.478337646484375,-0.3509063720703125,0.6190185546875,1.3140411376953125
1739920575926319600,1.488319580078125,-0.3885345458984375,0.627777099609375,1.2821502685546875
1739920575936301800,1.4983017578125,-0.42169189453125,0.62353515625,1.244598388671875
1739920575946283500,1.508283447265625,-0.446533203125,0.600616455078125,1.2147064208984375
1739920575956266800,1.518266845703125,-0.458038330078125,0.5924530029296875,1.1961822509765625
1739920575966248400,1.52824853515625,-0.4441986083984375,0.62451171875,1.2054901123046875
1739920575976230700,1.538230712890625,-0.397735595703125,0.6771240234375,1.212127685546875
1739920575986212600,1.548212646484375,-0.3279266357421875,0.71099853515625,1.22308349609375
1739920575996194600,1.558194580078125,-0.2626953125,0.7128143310546875,1.234405517578125
1739920576006176800,1.5681767578125,-0.2159271240234375,0.695037841796875,1.23468017578125
1739920576016159500,1.578159423828125,-0.22308349609375,0.690673828125,1.202178955078125
1739920576026141700,1.5881416015625,-0.2363739013671875,0.6407012939453125,1.0860595703125
1739920576036123400,1.598123291015625,-0.2310638427734375,0.5255279541015625,0.92352294921875
1739920576046105600,1.608105712890625,-0.2317047119140625,0.4225311279296875,0.7743072509765625
1739920576056087800,1.618087890625,-0.215057373046875,0.3592071533203125,0.65625
1739920576066070500,1.628070556640625,-0.1766204833984375,0.3210296630859375,0.5706329345703125
1739920576076052700,1.638052734375,-0.1168670654296875,0.3030548095703125,0.5590362548828125
1739920576086034400,1.648034423828125,-0.0507659912109375,0.27398681640625,0.6112823486328125
1739920576096016600,1.6580166015625,-0.0092620849609375,0.32989501953125,0.5847320556640625
1739920576105998600,1.66799853515625,0.0291595458984375,0.387451171875,0.56134033203125
1739920576115981600,1.677981689453125,0.1044158935546875,0.366607666015625,0.55767822265625
1739920576125963800,1.6879638671875,0.17657470703125,0.3635101318359375,0.4774017333984375
1739920576135945500,1.697945556640625,0.225830078125,0.3789520263671875,0.4387969970703125
1739920576145927700,1.707927734375,0.234405517578125,0.4088592529296875,0.455230712890625
1739920576155909600,1.71790966796875,0.1885833740234375,0.439239501953125,0.4695281982421875
1739920576165892600,1.727892578125,0.1148529052734375,0.430633544921875,0.4674224853515625
1739920576175874800,1.737874755859375,0.054443359375,0.4162445068359375,0.488372802734375
1739920576185856500,1.7478564453125,0.0069122314453125,0.4030609130859375,0.495574951171875
1739920576195838700,1.757838623046875,-0.0434722900390625,0.3739471435546875,0.4937591552734375
1739920576205820700,1.767820556640625,-0.0787353515625,0.3538818359375,0.48712158203125
1739920576215802600,1.777802734375,-0.101837158203125,0.344512939453125,0.4626617431640625
1739920576225785900,1.787785888671875,-0.118072509765625,0.3270416259765625,0.4429473876953125
1739920576235767600,1.797767578125,-0.135009765625,0.3083648681640625,0.424407958984375
1739920576245749800,1.807749755859375,-0.139892578125,0.2980499267578125,0.4229278564453125
1739920576255731500,1.8177314453125,-0.100006103515625,0.269805908203125,0.50628662109375
1739920576265713700,1.827713623046875,-0.1423187255859375,0.304962158203125,0.40509033203125
1739920576275696600,1.837696533203125,-0.2025146484375,0.309234619140625,0.415130615234375
1739920576285678600,1.8476787109375,-0.1681976318359375,0.2791900634765625,0.5029296875
1739920576295660800,1.857660888671875,-0.1610565185546875,0.30615234375,0.5379180908203125
1739920576305642500,1.867642578125,-0.179656982421875,0.350341796875,0.589813232421875
1739920576315624700,1.877624755859375,-0.17608642578125,0.37786865234375,0.6294403076171875
1739920576325607400,1.887607421875,-0.161346435546875,0.37005615234375,0.6219940185546875
1739920576335589600,1.897589599609375,-0.1393280029296875,0.350128173828125,0.606048583984375
1739920576345571600,1.907571533203125,-0.1042633056640625,0.346923828125,0.608612060546875
1739920576355553500,1.917553466796875,-0.050811767578125,0.3680572509765625,0.6436309814453125
1739920576365535700,1.92753564453125,-0.01702880859375,0.4093475341796875,0.701873779296875
1739920576375518500,1.9375185546875,0.00628662109375,0.4496917724609375,0.77593994140625
1739920576385500700,1.947500732421875,0.0175628662109375,0.489654541015625,0.865570068359375
1739920576395482600,1.957482666015625,0.0153045654296875,0.52386474609375,0.9520416259765625
1739920576405464600,1.967464599609375,0.0053863525390625,0.5435028076171875,1.048919677734375
1739920576415446500,1.977446533203125,-0.0066986083984375,0.5669403076171875,1.1664886474609375
1739920576425429500,1.987429443359375,-0.00543212890625,0.60577392578125,1.28546142578125
1739920576435411700,1.99741162109375,0.0033416748046875,0.6435699462890625,1.3910675048828125
1739920576445393700,2.0073935546875,0.022796630859375,0.706787109375,1.489501953125
1739920576455375600,2.017375732421875,0.040313720703125,0.7668304443359375,1.55181884765625
1739920576465357600,2.027357666015625,0.0379180908203125,0.78759765625,1.6094512939453125
1739920576475340500,2.037340576171875,0.0037384033203125,0.787017822265625,1.70721435546875
1739920576485322800,2.04732275390625,-0.0489349365234375,0.7704620361328125,1.82965087890625
1739920576495304700,2.0573046875,-0.0997467041015625,0.771392822265625,1.9603271484375
1739920576505286700,2.06728662109375,-0.13482666015625,0.77325439453125,2.118377685546875
1739920576515268600,2.0772685546875,-0.142578125,0.7968292236328125,2.25396728515625
1739920576525251600,2.08725146484375,-0.1526947021484375,0.8177642822265625,2.292449951171875
1739920576535233800,2.09723388671875,-0.1865692138671875,0.7835235595703125,2.243896484375
1739920576545215500,2.107215576171875,-0.235015869140625,0.6998138427734375,2.160919189453125
1739920576555197700,2.11719775390625,-0.28680419921875,0.570953369140625,2.0706024169921875
1739920576565179600,2.1271796875,-0.3094482421875,0.4482879638671875,2.0075531005859375
1739920576575162600,2.13716259765625,-0.33331298828125,0.34521484375,1.9496917724609375
1739920576585144600,2.14714453125,-0.3548736572265625,0.2299041748046875,1.9371185302734375
1739920576595126500,2.15712646484375,-0.3408966064453125,0.110076904296875,1.9700927734375
1739920576605108700,2.167108642578125,-0.336334228515625,-0.021484375,1.9791412353515625
1739920576615090400,2.17709033203125,-0.35601806640625,-0.135894775390625,1.9274139404296875
1739920576625073400,2.187073486328125,-0.3743438720703125,-0.2086639404296875,1.8240966796875
1739920576635055400,2.197055419921875,-0.381591796875,-0.2503204345703125,1.7159423828125
1739920576645037300,2.207037353515625,-0.3483123779296875,-0.265533447265625,1.6173858642578125
1739920576655019300,2.217019287109375,-0.26531982421875,-0.2439422607421875,1.5142364501953125
1739920576665001500,2.22700146484375,-0.1608734130859375,-0.1943359375,1.4414520263671875
1739920576674983200,2.236983154296875,-0.0864410400390625,-0.11407470703125,1.4189910888671875
1739920576684966400,2.24696630859375,0.0113372802734375,-0.0807952880859375,1.3468017578125
1739920576694948400,2.2569482421875,0.1048736572265625,-0.0886688232421875,1.2542724609375
1739920576704930300,2.266930419921875,0.0880889892578125,-0.093017578125,1.2193603515625
1739920576714912500,2.27691259765625,0.06103515625,-0.0815582275390625,1.1914215087890625
1739920576724894200,2.286894287109375,0.0478363037109375,-0.07830810546875,1.1576690673828125
1739920576734877400,2.29687744140625,0.0208587646484375,-0.069061279296875,1.1579437255859375
1739920576744859100,2.306859130859375,-0.0344085693359375,-0.0419158935546875,1.2384490966796875
1739920576754841300,2.31684130859375,-0.1271820068359375,-0.00897216796875,1.361114501953125
1739920576764823600,2.326823486328125,-0.240631103515625,0.0324554443359375,1.43121337890625
1739920576774805200,2.33680517578125,-0.3313751220703125,0.0690765380859375,1.4447479248046875
1739920576784788500,2.34678857421875,-0.411590576171875,0.091278076171875,1.4141845703125
1739920576794770200,2.356770263671875,-0.475311279296875,0.12841796875,1.3770294189453125
1739920576804752400,2.36675244140625,-0.4977874755859375,0.1793212890625,1.3134765625
1739920576814734300,2.376734375,-0.4730072021484375,0.2306060791015625,1.2354736328125
1739920576824716300,2.38671630859375,-0.4404296875,0.2635498046875,1.1774749755859375
1739920576834699500,2.396699462890625,-0.399383544921875,0.27642822265625,1.1352386474609375
1739920576844681200,2.40668115234375,-0.3342742919921875,0.2931060791015625,1.1150054931640625
1739920576854663400,2.416663330078125,-0.2684326171875,0.3350372314453125,1.122406005859375
1739920576864645000,2.42664501953125,-0.2321319580078125,0.379058837890625,1.1445159912109375
1739920576874627300,2.43662744140625,-0.2187957763671875,0.39678955078125,1.1647491455078125
1739920576884610300,2.4466103515625,-0.20166015625,0.4059295654296875,1.185211181640625
1739920576894592300,2.45659228515625,-0.1788330078125,0.4249114990234375,1.2086639404296875
1739920576904574500,2.466574462890625,-0.1535491943359375,0.450225830078125,1.2303009033203125
1739920576914556200,2.47655615234375,-0.1222076416015625,0.4798126220703125,1.24749755859375
1739920576924538400,2.486538330078125,-0.0966644287109375,0.4847259521484375,1.2552642822265625
1739920576934521300,2.496521240234375,-0.08489990234375,0.4677581787109375,1.2558135986328125
1739920576944503300,2.50650341796875,-0.0725555419921875,0.4372100830078125,1.25872802734375
1739920576954485500,2.516485595703125,-0.0469207763671875,0.3986968994140625,1.27178955078125
1739920576964467200,2.52646728515625,-0.008209228515625,0.3751678466796875,1.311859130859375
1739920576974450400,2.536450439453125,0.0337066650390625,0.3691253662109375,1.356231689453125
1739920576984432000,2.54643212890625,0.0644989013671875,0.3775177001953125,1.3967742919921875
1739920576994414300,2.556414306640625,0.0889892578125,0.403778076171875,1.44647216796875
1739920577004396500,2.566396484375,0.1047821044921875,0.447174072265625,1.488861083984375
1739920577014378200,2.576378173828125,0.1133880615234375,0.5079193115234375,1.5157623291015625
1739920577024361500,2.586361572265625,0.0858154296875,0.54638671875,1.484527587890625
1739920577034343200,2.59634326171875,0.0134124755859375,0.5385894775390625,1.3989410400390625
1739920577044325400,2.606325439453125,-0.03668212890625,0.5292510986328125,1.31915283203125
1739920577054307300,2.616307373046875,-0.050323486328125,0.5647125244140625,1.2726287841796875
1739920577064289300,2.626289306640625,-0.059234619140625,0.6108551025390625,1.245513916015625
1739920577074272500,2.6362724609375,-0.085906982421875,0.63250732421875,1.1933746337890625
1739920577084254200,2.646254150390625,-0.1172332763671875,0.611236572265625,1.118865966796875
1739920577094236400,2.656236328125,-0.1414642333984375,0.5502166748046875,1.034820556640625
1739920577104218400,2.66621826171875,-0.16754150390625,0.4934539794921875,0.9601593017578125
1739920577114200300,2.676200439453125,-0.1953125,0.4436187744140625,0.8808135986328125
1739920577124183300,2.686183349609375,-0.226287841796875,0.38031005859375,0.806915283203125
1739920577134165200,2.696165283203125,-0.265594482421875,0.3235321044921875,0.764129638671875
1739920577144147500,2.7061474609375,-0.3065643310546875,0.282806396484375,0.7360382080078125
1739920577154129200,2.716129150390625,-0.340240478515625,0.2559356689453125,0.6934967041015625
1739920577164111400,2.726111328125,-0.3594207763671875,0.2342529296875,0.6461181640625
1739920577174094300,2.73609423828125,-0.3608245849609375,0.2200775146484375,0.6024017333984375
1739920577184076300,2.746076171875,-0.356536865234375,0.2221221923828125,0.5896148681640625
1739920577194058500,2.75605859375,-0.3531341552734375,0.24371337890625,0.6323394775390625
1739920577204040200,2.766040283203125,-0.3335418701171875,0.312408447265625,0.715545654296875
1739920577214022400,2.7760224609375,-0.2862548828125,0.3795928955078125,0.751922607421875
1739920577224005000,2.786005126953125,-0.2422943115234375,0.3826904296875,0.6933441162109375
1739920577233987300,2.7959873046875,-0.2241668701171875,0.3549957275390625,0.6356201171875
1739920577243969500,2.805969482421875,-0.2153778076171875,0.33526611328125,0.5909423828125
1739920577253951200,2.815951171875,-0.19921875,0.3269805908203125,0.5772552490234375
1739920577263933400,2.825933349609375,-0.1671905517578125,0.3425140380859375,0.6077423095703125
1739920577273916200,2.835916259765625,-0.133575439453125,0.3530120849609375,0.6472930908203125
1739920577283898400,2.8458984375,-0.109283447265625,0.3352508544921875,0.6740570068359375
1739920577293880300,2.85588037109375,-0.0772705078125,0.306915283203125,0.662811279296875
1739920577303862300,2.8658623046875,-0.0381927490234375,0.280914306640625,0.6128387451171875
1739920577313844500,2.875844482421875,-0.0089569091796875,0.2540435791015625,0.5446319580078125
1739920577323827200,2.8858271484375,0.0034942626953125,0.227294921875,0.4833526611328125
1739920577333809400,2.895809326171875,0.0092315673828125,0.2127227783203125,0.4476318359375
1739920577343791400,2.905791259765625,0.0036773681640625,0.2064666748046875,0.452484130859375
1739920577353773300,2.915773193359375,-0.006256103515625,0.209991455078125,0.4845428466796875
1739920577363755300,2.92575537109375,-0.0142059326171875,0.2133026123046875,0.51751708984375
1739920577373738200,2.93573828125,-0.018585205078125,0.22381591796875,0.533660888671875
1739920577383720400,2.945720458984375,-0.02630615234375,0.244476318359375,0.54473876953125
1739920577393702100,2.9557021484375,-0.0570831298828125,0.2649078369140625,0.5464324951171875
1739920577403684400,2.965684326171875,-0.0955963134765625,0.274871826171875,0.5855560302734375
1739920577413666300,2.975666259765625,-0.103851318359375,0.2852020263671875,0.6343994140625
1739920577423649300,2.985649169921875,-0.094024658203125,0.2572479248046875,0.6229400634765625
1739920577433631500,2.995631591796875,-0.0780792236328125,0.2148895263671875,0.6339111328125
1739920577443613200,3.00561328125,-0.0621337890625,0.1683502197265625,0.7294769287109375
1739920577453595400,3.015595458984375,-0.0148468017578125,0.1449127197265625,0.82373046875
1739920577463578000,3.025578125,-0.009918212890625,0.1727142333984375,0.930145263671875
1739920577473560300,3.035560302734375,0.0106964111328125,0.1686859130859375,0.99066162109375
1739920577483542500,3.04554248046875,0.0272216796875,0.1483306884765625,1.0737152099609375
1739920577493524200,3.055524169921875,0.024017333984375,0.1427154541015625,1.15875244140625
1739920577503506400,3.06550634765625,-0.0043792724609375,0.1264495849609375,1.2436676025390625
1739920577513489200,3.0754892578125,-0.0836029052734375,0.11309814453125,1.33074951171875
1739920577523471400,3.085471435546875,-0.1988677978515625,0.110595703125,1.436676025390625
1739920577533453300,3.095453369140625,-0.3048095703125,0.1129150390625,1.5777435302734375
1739920577543435300,3.105435302734375,-0.3819122314453125,0.1341552734375,1.6630859375
1739920577553417500,3.11541748046875,-0.47698974609375,0.1777496337890625,1.693267822265625
1739920577563400200,3.125400146484375,-0.57635498046875,0.209991455078125,1.706329345703125
1739920577573382400,3.13538232421875,-0.66943359375,0.1940155029296875,1.7025146484375
1739920577583364400,3.1453642578125,-0.7352752685546875,0.1537933349609375,1.6974639892578125
1739920577593346300,3.15534619140625,-0.7699737548828125,0.1009674072265625,1.7372894287109375
1739920577603328300,3.165328369140625,-0.78009033203125,0.059783935546875,1.8018341064453125
1739920577613311000,3.17531103515625,-0.7488861083984375,0.0439453125,1.809173583984375
1739920577623293000,3.18529296875,-0.69049072265625,0.0352325439453125,1.743621826171875
1739920577633275100,3.195275146484375,-0.779205322265625,0.0254364013671875,1.747467041015625
1739920577643256800,3.2052568359375,-0.89874267578125,-0.032318115234375,1.7642974853515625
1739920577653240000,3.215239990234375,-1.0224456787109375,-0.1207733154296875,1.730316162109375
1739920577663222000,3.225221923828125,-1.11578369140625,-0.1980133056640625,1.6405487060546875
1739920577673204000,3.235203857421875,-1.141204833984375,-0.2530517578125,1.53375244140625
1739920577683186200,3.245186279296875,-1.09967041015625,-0.2799835205078125,1.4253387451171875
1739920577693167900,3.25516796875,-1.033782958984375,-0.289459228515625,1.3120880126953125
1739920577703151000,3.265151123046875,-1.002166748046875,-0.2964324951171875,1.2406463623046875
1739920577713132800,3.2751328125,-1.0116119384765625,-0.2906646728515625,1.190185546875
1739920577723115000,3.285114990234375,-1.03289794921875,-0.2669830322265625,1.1603851318359375
1739920577733097000,3.295096923828125,-1.04888916015625,-0.217437744140625,1.137939453125
1739920577743079000,3.305078857421875,-1.045867919921875,-0.14788818359375,1.1187896728515625
1739920577753062000,3.315061767578125,-1.0516815185546875,-0.095245361328125,1.1245574951171875
1739920577763043800,3.3250439453125,-0.9905853271484375,-0.0524139404296875,1.1209716796875
1739920577773026000,3.335026123046875,-0.9216461181640625,-0.0020599365234375,1.191864013671875
1739920577783007700,3.3450078125,-0.8987274169921875,0.0664215087890625,1.2899627685546875
1739920577792990000,3.354989990234375,-0.877593994140625,0.14410400390625,1.362213134765625
1739920577802973000,3.364972900390625,-0.787322998046875,0.188232421875,1.378021240234375
1739920577812955000,3.374954833984375,-0.7352752685546875,0.2012481689453125,1.3437957763671875
1739920577822937000,3.38493701171875,-0.72406005859375,0.200103759765625,1.287384033203125
1739920577832918800,3.394918701171875,-0.7204437255859375,0.2144622802734375,1.1634674072265625
1739920577842901000,3.40490087890625,-0.7117156982421875,0.211761474609375,1.0352783203125
1739920577852884000,3.414884033203125,-0.7071075439453125,0.1672210693359375,0.99005126953125
1739920577862866000,3.424865966796875,-0.7761383056640625,0.100799560546875,1.16717529296875
1739920577872848100,3.43484814453125,-0.8834991455078125,0.1312713623046875,1.431243896484375
1739920577882829800,3.444829833984375,-0.8251495361328125,0.2393341064453125,1.5539398193359375
1739920577892813000,3.45481298828125,-0.693359375,0.32061767578125,1.601470947265625
1739920577902795000,3.464794921875,-0.623138427734375,0.3476104736328125,1.5539398193359375
1739920577912777000,3.47477685546875,-0.53790283203125,0.3159332275390625,1.407958984375
1739920577922759200,3.48475927734375,-0.3876800537109375,0.2695770263671875,1.236083984375
1739920577932740900,3.494740966796875,-0.2250518798828125,0.244384765625,1.184051513671875
1739920577942724000,3.50472412109375,-0.0960540771484375,0.2485198974609375,1.2873382568359375
1739920577952705800,3.514705810546875,-0.0320587158203125,0.3025054931640625,1.4188995361328125
1739920577962688000,3.52468798828125,-0.0555572509765625,0.379547119140625,1.49755859375
1739920577972670000,3.534669921875,-0.1268157958984375,0.4344635009765625,1.4569549560546875
1739920577982652000,3.54465185546875,-0.1650848388671875,0.466400146484375,1.33935546875
1739920577992635100,3.55463525390625,-0.180206298828125,0.51898193359375,1.206939697265625
1739920578002616800,3.564616943359375,-0.2201385498046875,0.563140869140625,1.1041107177734375
1739920578012599000,3.57459912109375,-0.276153564453125,0.5740814208984375,1.0650177001953125
1739920578022580700,3.584580810546875,-0.3058319091796875,0.5725250244140625,1.0503997802734375
1739920578032564000,3.59456396484375,-0.301727294921875,0.580780029296875,1.041961669921875
1739920578042546000,3.6045458984375,-0.2743072509765625,0.5897216796875,1.04498291015625
1739920578052527900,3.61452783203125,-0.2319793701171875,0.6048126220703125,1.0430755615234375
1739920578062510000,3.624510009765625,-0.192596435546875,0.6170196533203125,1.0092620849609375
1739920578072491800,3.63449169921875,-0.153656005859375,0.6129913330078125,0.96051025390625
1739920578082475000,3.64447509765625,-0.1260986328125,0.6162261962890625,0.9051361083984375
1739920578092457000,3.65445703125,-0.106597900390625,0.6281280517578125,0.85760498046875
1739920578102439000,3.66443896484375,-0.09271240234375,0.6368408203125,0.8233795166015625
1739920578112421000,3.674421142578125,-0.0806427001953125,0.640167236328125,0.7917633056640625
1739920578122402800,3.68440283203125,-0.0551605224609375,0.6432952880859375,0.721099853515625
1739920578132386000,3.694385986328125,-0.01812744140625,0.6463775634765625,0.68475341796875
1739920578142367700,3.70436767578125,0.008331298828125,0.6629791259765625,0.6715850830078125
1739920578152350000,3.714349853515625,0.0384979248046875,0.682525634765625,0.6495361328125
1739920578162332200,3.724332275390625,0.0936737060546875,0.67669677734375,0.57708740234375
1739920578172315000,3.73431494140625,0.1282501220703125,0.6398162841796875,0.4678192138671875
1739920578182297000,3.744297119140625,0.1350860595703125,0.5784759521484375,0.38787841796875
1739920578192278800,3.75427880859375,0.1475372314453125,0.5313720703125,0.34393310546875
1739920578202261000,3.764260986328125,0.157379150390625,0.5108489990234375,0.3445587158203125
1739920578212243000,3.774242919921875,0.166168212890625,0.493194580078125,0.348297119140625
1739920578222226000,3.784225830078125,0.1297607421875,0.4627227783203125,0.349395751953125
1739920578232208100,3.7942080078125,0.0584564208984375,0.4390411376953125,0.3734588623046875
1739920578242189800,3.80418994140625,-0.0216064453125,0.4112396240234375,0.448944091796875
1739920578252172000,3.814172119140625,-0.0705108642578125,0.3712921142578125,0.5290985107421875
1739920578262154000,3.824154052734375,-0.0901031494140625,0.33843994140625,0.5913543701171875
1739920578272137000,3.834136962890625,-0.079315185546875,0.3195953369140625,0.651275634765625
1739920578282119000,3.844118896484375,-0.03546142578125,0.330169677734375,0.69775390625
1739920578292100900,3.854100830078125,0.0311737060546875,0.360321044921875,0.7173309326171875
1739920578302084000,3.864083984375,0.0889434814453125,0.3912200927734375,0.747711181640625
1739920578312065800,3.874065673828125,0.1295166015625,0.4314422607421875,0.80010986328125
1739920578322048000,3.884048095703125,0.1344451904296875,0.477569580078125,0.847137451171875
1739920578332031000,3.894031005859375,0.105072021484375,0.518951416015625,0.889007568359375
1739920578342013000,3.904012939453125,0.0404205322265625,0.5525970458984375,0.9615936279296875
1739920578351995000,3.913994873046875,-0.04608154296875,0.575469970703125,1.069488525390625
1739920578361976800,3.923976806640625,-0.145294189453125,0.594512939453125,1.19024658203125
1739920578371959800,3.933959716796875,-0.2493743896484375,0.6106719970703125,1.2848358154296875
1739920578381942000,3.94394189453125,-0.3164825439453125,0.620819091796875,1.3241119384765625
1739920578391924000,3.953924072265625,-0.328277587890625,0.599945068359375,1.300048828125
1739920578401906000,3.963906005859375,-0.31060791015625,0.5516510009765625,1.237274169921875
1739920578411887900,3.973887939453125,-0.2913360595703125,0.5110626220703125,1.1653900146484375
1739920578421870800,3.983870849609375,-0.278350830078125,0.4792327880859375,1.1268310546875
1739920578431853000,3.99385302734375,-0.2655487060546875,0.4466705322265625,1.13330078125
1739920578441835000,4.0038349609375,-0.2547760009765625,0.41949462890625,1.1592559814453125
1739920578451817000,4.01381689453125,-0.2431793212890625,0.3933868408203125,1.174530029296875
1739920578461800000,4.023800048828125,-0.234039306640625,0.3614654541015625,1.189422607421875
1739920578471782000,4.033781982421875,-0.2293243408203125,0.339202880859375,1.2210235595703125
1739920578481763800,4.043763916015625,-0.2392120361328125,0.334564208984375,1.26739501953125
1739920578491746000,4.05374609375,-0.25482177734375,0.3298492431640625,1.3013763427734375
1739920578501728000,4.06372802734375,-0.2784881591796875,0.3213348388671875,1.3118743896484375
1739920578511711000,4.0737109375,-0.2973175048828125,0.30865478515625,1.29779052734375
1739920578521693000,4.08369287109375,-0.3029022216796875,0.2979736328125,1.2825469970703125
1739920578531675000,4.0936748046875,-0.3188629150390625,0.2883148193359375,1.29083251953125
1739920578541657000,4.103656982421875,-0.341583251953125,0.2613677978515625,1.335723876953125
1739920578551638800,4.113638671875,-0.3646697998046875,0.2393951416015625,1.4080963134765625
1739920578561622000,4.1236220703125,-0.365234375,0.225494384765625,1.4626312255859375
1739920578571604000,4.13360400390625,-0.352935791015625,0.2038421630859375,1.49530029296875
1739920578581586000,4.1435859375,-0.3382415771484375,0.1873626708984375,1.4985504150390625
1739920578591568000,4.15356787109375,-0.3286895751953125,0.159759521484375,1.478790283203125
1739920578601551000,4.163551025390625,-0.320037841796875,0.1239471435546875,1.50958251953125
1739920578611532800,4.17353271484375,-0.3159942626953125,0.1206207275390625,1.5831298828125
1739920578621515000,4.183514892578125,-0.32208251953125,0.1171417236328125,1.6504669189453125
1739920578631497000,4.1934970703125,-0.32562255859375,0.0924072265625,1.707611083984375
1739920578641479000,4.20347900390625,-0.31610107421875,0.0723419189453125,1.749542236328125
1739920578651462100,4.213462158203125,-0.30731201171875,0.045196533203125,1.778564453125
1739920578661443800,4.22344384765625,-0.2976531982421875,0.008392333984375,1.7879180908203125
1739920578671426000,4.233426025390625,-0.3118438720703125,-0.02020263671875,1.77581787109375
1739920578681408000,4.243407958984375,-0.3413543701171875,-0.0444793701171875,1.776611328125
1739920578691390000,4.253389892578125,-0.3611297607421875,-0.059295654296875,1.8184967041015625
1739920578701372000,4.263371826171875,-0.368927001953125,-0.0589599609375,1.8692169189453125
1739920578711355000,4.27335498046875,-0.37451171875,-0.0688629150390625,1.9016265869140625
1739920578721337000,4.283337158203125,-0.386932373046875,-0.08941650390625,1.8885650634765625
1739920578731319000,4.293319091796875,-0.411773681640625,-0.121368408203125,1.85382080078125
1739920578741301000,4.303301025390625,-0.443817138671875,-0.1703338623046875,1.8098602294921875
1739920578751283000,4.313282958984375,-0.4662628173828125,-0.23602294921875,1.759857177734375
1739920578761266000,4.323265869140625,-0.4701995849609375,-0.284454345703125,1.7004241943359375
1739920578771248000,4.333248046875,-0.4680328369140625,-0.32342529296875,1.6206512451171875
1739920578781230000,4.34322998046875,-0.4517364501953125,-0.326324462890625,1.5382537841796875
1739920578791212000,4.3532119140625,-0.4265289306640625,-0.282440185546875,1.467803955078125
1739920578801195000,4.363195068359375,-0.402618408203125,-0.2189788818359375,1.412506103515625
1739920578811177000,4.373177001953125,-0.3842315673828125,-0.1397247314453125,1.384735107421875
1739920578821159000,4.383158935546875,-0.371063232421875,-0.042572021484375,1.4075775146484375
1739920578831141000,4.39314111328125,-0.34906005859375,0.062042236328125,1.4586334228515625
1739920578841123000,4.403123046875,-0.3201141357421875,0.1668243408203125,1.4932098388671875
1739920578851106000,4.41310595703125,-0.2990570068359375,0.2537841796875,1.4930419921875
1739920578861088000,4.423087890625,-0.2745513916015625,0.3251495361328125,1.46112060546875
1739920578871070000,4.433070068359375,-0.2423553466796875,0.3869781494140625,1.4271240234375
1739920578881052000,4.443052001953125,-0.2190704345703125,0.433624267578125,1.404571533203125
1739920578891035100,4.45303515625,-0.21026611328125,0.46478271484375,1.4057464599609375
1739920578901016800,4.463016845703125,-0.212249755859375,0.4744110107421875,1.418792724609375
1739920578910999000,4.4729990234375,-0.22540283203125,0.4705657958984375,1.4349365234375
1739920578920981000,4.48298095703125,-0.2322998046875,0.4561004638671875,1.4474945068359375
1739920578930963000,4.492962890625,-0.224822998046875,0.43988037109375,1.434600830078125
1739920578940946200,4.5029462890625,-0.20208740234375,0.4260101318359375,1.3971099853515625
1739920578950928000,4.512927978515625,-0.1824798583984375,0.4064178466796875,1.3535919189453125
1739920578960910000,4.52291015625,-0.1464080810546875,0.3864898681640625,1.317779541015625
1739920578970892000,4.53289208984375,-0.0923614501953125,0.378448486328125,1.2898101806640625
1739920578980875000,4.542875,-0.0661468505859375,0.3721160888671875,1.27349853515625
1739920578990857000,4.55285693359375,-0.0718231201171875,0.3665771484375,1.261383056640625
1739920579000839000,4.5628388671875,-0.094390869140625,0.370086669921875,1.261871337890625
1739920579010821000,4.572821044921875,-0.122894287109375,0.394439697265625,1.29351806640625
1739920579020803000,4.582802978515625,-0.163726806640625,0.436431884765625,1.332183837890625
1739920579030786000,4.5927861328125,-0.1981048583984375,0.4763946533203125,1.329254150390625
1739920579040768000,4.60276806640625,-0.2076568603515625,0.516693115234375,1.29058837890625
1739920579050750000,4.61275,-0.2050628662109375,0.547271728515625,1.2271270751953125
1739920579060732000,4.62273193359375,-0.2022552490234375,0.568145751953125,1.157867431640625
1739920579070715000,4.63271484375,-0.2156829833984375,0.574920654296875,1.109893798828125
1739920579080697000,4.642697021484375,-0.2432403564453125,0.5836029052734375,1.0908660888671875
1739920579090679000,4.652678955078125,-0.266357421875,0.579833984375,1.0763702392578125
1739920579100661000,4.662660888671875,-0.2482757568359375,0.5703125,1.0701141357421875
1739920579110644200,4.672644287109375,-0.1933441162109375,0.578704833984375,1.0718994140625
1739920579120626000,4.6826259765625,-0.1436309814453125,0.5789794921875,1.069366455078125
1739920579130608000,4.692608154296875,-0.10540771484375,0.5837554931640625,1.0578765869140625
1739920579140590000,4.702590087890625,-0.0771331787109375,0.592010498046875,1.035247802734375
1739920579150572000,4.712572021484375,-0.0500640869140625,0.5992889404296875,1.0097198486328125
1739920579160555000,4.722554931640625,-0.0210723876953125,0.613037109375,0.9879302978515625
1739920579170537000,4.732536865234375,0.01141357421875,0.6292572021484375,0.9698333740234375
1739920579180519200,4.742519287109375,0.0333099365234375,0.6497955322265625,0.938720703125
1739920579190500900,4.7525009765625,0.04669189453125,0.668426513671875,0.8653411865234375
1739920579200484000,4.762484130859375,0.048980712890625,0.67767333984375,0.7646636962890625
1739920579210465800,4.7724658203125,0.051727294921875,0.677947998046875,0.66558837890625
1739920579220448000,4.782447998046875,0.066070556640625,0.6780853271484375,0.5728607177734375
1739920579230430000,4.792429931640625,0.0804443359375,0.6829681396484375,0.5122528076171875
1739920579240412000,4.802411865234375,0.107086181640625,0.707000732421875,0.4751739501953125
1739920579250395100,4.81239501953125,0.135772705078125,0.72344970703125,0.43499755859375
1739920579260376800,4.822376953125,0.1483306884765625,0.7142486572265625,0.3974456787109375
1739920579270359000,4.832359130859375,0.137420654296875,0.687042236328125,0.3815460205078125
1739920579280341000,4.842341064453125,0.1006011962890625,0.6612396240234375,0.3856201171875
1739920579290324000,4.852323974609375,0.042022705078125,0.6316375732421875,0.402862548828125
1739920579300306200,4.86230615234375,-0.0263671875,0.576416015625,0.4363250732421875
1739920579310288000,4.872287841796875,-0.0912628173828125,0.5272674560546875,0.4697418212890625
1739920579320270000,4.88227001953125,-0.1295166015625,0.4995269775390625,0.480621337890625
1739920579330252800,4.892252685546875,-0.1400604248046875,0.479278564453125,0.4941558837890625
1739920579340235000,4.902235107421875,-0.13885498046875,0.451263427734375,0.5582427978515625
1739920579350217200,4.91221728515625,-0.127105712890625,0.4473114013671875,0.6508026123046875
1739920579360199000,4.922198974609375,-0.0894317626953125,0.4789886474609375,0.7193756103515625
1739920579370181000,4.93218115234375,-0.030517578125,0.5019989013671875,0.761627197265625
1739920579380163800,4.942163818359375,0.02191162109375,0.52410888671875,0.8025970458984375
1739920579390146000,4.95214599609375,0.05780029296875,0.5504608154296875,0.8895111083984375
1739920579400128000,4.9621279296875,0.076141357421875,0.5865631103515625,1.04132080078125
1739920579410110000,4.97210986328125,0.0729827880859375,0.6197662353515625,1.197052001953125
1739920579420093200,4.98209326171875,0.0542755126953125,0.631500244140625,1.33526611328125
1739920579430075000,4.992074951171875,0.035430908203125,0.638031005859375,1.4610748291015625
1739920579440057000,5.00205712890625,0.0181427001953125,0.6519927978515625,1.56610107421875
1739920579450038800,5.012038818359375,0.0100250244140625,0.640350341796875,1.632781982421875
1739920579460021000,5.02202099609375,0.002410888671875,0.598724365234375,1.6730194091796875
1739920579470004000,5.03200390625,-0.0030670166015625,0.5479736328125,1.7094268798828125
1739920579479986000,5.04198583984375,-0.0165557861328125,0.4969940185546875,1.7189178466796875
1739920579489968000,5.051968017578125,-0.045013427734375,0.45074462890625,1.6970672607421875
1739920579499949800,5.06194970703125,-0.09759521484375,0.40875244140625,1.6400299072265625
1739920579509933000,5.07193310546875,-0.1571502685546875,0.3719940185546875,1.577606201171875
1739920579519915000,5.0819150390625,-0.223114013671875,0.3148345947265625,1.5365447998046875
1739920579529897000,5.09189697265625,-0.2884063720703125,0.242645263671875,1.5440673828125
1739920579539879200,5.101879150390625,-0.3216094970703125,0.1966705322265625,1.5410308837890625
1739920579549862000,5.11186181640625,-0.328155517578125,0.1835479736328125,1.541290283203125
1739920579559844000,5.121843994140625,-0.3214569091796875,0.1530303955078125,1.5247650146484375
1739920579569825800,5.13182568359375,-0.3188323974609375,0.1077880859375,1.4932861328125
1739920579579808000,5.14180810546875,-0.3055877685546875,0.066864013671875,1.4637908935546875
1739920579589790200,5.151790283203125,-0.25927734375,0.0405426025390625,1.4322357177734375
1739920579599773000,5.16177294921875,-0.2050628662109375,0.018096923828125,1.411590576171875
1739920579609755400,5.17175537109375,-0.157928466796875,-0.001251220703125,1.40283203125
1739920579619737600,5.181737548828125,-0.11785888671875,-0.0170745849609375,1.3874053955078125
1739920579629719600,5.191719482421875,-0.079803466796875,-0.0292510986328125,1.352996826171875
1739920579639702500,5.20170263671875,-0.037322998046875,-0.05072021484375,1.328643798828125
1739920579649684700,5.211684814453125,0.006988525390625,-0.0638885498046875,1.3494110107421875
1739920579659666400,5.22166650390625,0.0321197509765625,-0.061798095703125,1.3558349609375
1739920579669648600,5.231648681640625,0.02886962890625,-0.0670623779296875,1.3297576904296875
1739920579679631400,5.24163134765625,0.00347900390625,-0.0856475830078125,1.29351806640625
1739920579689613600,5.251613525390625,-0.0204315185546875,-0.0966949462890625,1.3180389404296875
1739920579699595800,5.261595703125,-0.039520263671875,-0.085968017578125,1.367095947265625
1739920579709577500,5.271577392578125,-0.0652923583984375,-0.0793914794921875,1.367767333984375
1739920579719559700,5.2815595703125,-0.1052093505859375,-0.099884033203125,1.336578369140625
1739920579729542400,5.29154248046875,-0.13214111328125,-0.116943359375,1.323486328125
1739920579739524600,5.301524658203125,-0.13897705078125,-0.1165771484375,1.356719970703125
1739920579749506600,5.311506591796875,-0.1483001708984375,-0.120025634765625,1.4333343505859375
1739920579759488500,5.321488525390625,-0.169921875,-0.1109619140625,1.5404510498046875
1739920579769471700,5.3314716796875,-0.201141357421875,-0.0923614501953125,1.6495361328125
1739920579779453400,5.341453369140625,-0.2380218505859375,-0.0806121826171875,1.75994873046875
1739920579789435600,5.351435546875,-0.2627410888671875,-0.097320556640625,1.8723907470703125
1739920579799417600,5.36141748046875,-0.287109375,-0.1230010986328125,1.9415283203125
1739920579809400600,5.371400634765625,-0.3050079345703125,-0.1558380126953125,1.9621429443359375
1739920579819382800,5.3813828125,-0.303466796875,-0.193450927734375,1.91632080078125
1739920579829364500,5.391364501953125,-0.2895965576171875,-0.2182464599609375,1.8293914794921875
1739920579839346700,5.4013466796875,-0.2652130126953125,-0.219482421875,1.7657623291015625
1739920579849328600,5.41132861328125,-0.24444580078125,-0.174835205078125,1.7851409912109375
1739920579859311600,5.4213115234375,-0.236480712890625,-0.0832672119140625,1.8190460205078125
1739920579869293600,5.43129345703125,-0.23681640625,0.0093536376953125,1.797576904296875
1739920579879275500,5.441275634765625,-0.23468017578125,0.0924530029296875,1.7505035400390625
1739920579889257700,5.4512578125,-0.224945068359375,0.1944732666015625,1.7173614501953125
1739920579899240400,5.461240478515625,-0.21148681640625,0.3131866455078125,1.686431884765625
1739920579909222700,5.47122265625,-0.192535400390625,0.4293975830078125,1.6590118408203125
1739920579919204400,5.481204345703125,-0.172393798828125,0.5253448486328125,1.6341400146484375
1739920579929186600,5.4911865234375,-0.1468658447265625,0.6045379638671875,1.6050262451171875
1739920579939169500,5.50116943359375,-0.1179962158203125,0.6671142578125,1.55615234375
1739920579949151500,5.5111513671875,-0.0947418212890625,0.706756591796875,1.490081787109375
1739920579959133700,5.5211337890625,-0.085418701171875,0.719024658203125,1.4215087890625
1739920579969115400,5.531115478515625,-0.07354736328125,0.703521728515625,1.3643035888671875
1739920579979098600,5.5410986328125,-0.0620269775390625,0.684051513671875,1.3362274169921875
1739920579989080600,5.55108056640625,-0.05718994140625,0.6551055908203125,1.3349456787109375
1739920579999062500,5.5610625,-0.0471954345703125,0.608673095703125,1.3264923095703125
1739920580009044700,5.571044677734375,-0.0345001220703125,0.552734375,1.317718505859375
1739920580019026400,5.5810263671875,-0.0206298828125,0.5032501220703125,1.338470458984375
1739920580029009700,5.591009765625,-0.0175628662109375,0.47216796875,1.3658447265625
1739920580038991600,5.60099169921875,-0.0282745361328125,0.4521484375,1.3804931640625
1739920580048973600,5.6109736328125,-0.054046630859375,0.4349517822265625,1.3770904541015625
1739920580058955800,5.620955810546875,-0.081451416015625,0.427032470703125,1.3672943115234375
1739920580068938500,5.6309384765625,-0.0999908447265625,0.4364471435546875,1.36077880859375
1739920580078920700,5.640920654296875,-0.11016845703125,0.455047607421875,1.339599609375
1739920580088902400,5.65090234375,-0.128570556640625,0.46844482421875,1.3123626708984375
1739920580098884600,5.660884521484375,-0.1439361572265625,0.4788665771484375,1.28131103515625
1739920580108867600,5.67086767578125,-0.15576171875,0.5028839111328125,1.2491607666015625
1739920580118849500,5.680849609375,-0.1660003662109375,0.5298919677734375,1.2140960693359375
1739920580128831700,5.690831787109375,-0.1763916015625,0.5498504638671875,1.1731414794921875
1739920580138813400,5.7008134765625,-0.1846923828125,0.574432373046875,1.1246795654296875
1739920580148796700,5.710796630859375,-0.192108154296875,0.595123291015625,1.0835418701171875
1739920580158778600,5.720778564453125,-0.20587158203125,0.611175537109375,1.051116943359375
1739920580168760600,5.730760498046875,-0.2114105224609375,0.609771728515625,1.0216827392578125
1739920580178742500,5.740742431640625,-0.202789306640625,0.61181640625,1.001953125
1739920580188724500,5.750724365234375,-0.1753082275390625,0.6207122802734375,0.9712066650390625
1739920580198707500,5.76070751953125,-0.13330078125,0.628265380859375,0.9231109619140625
1739920580208689700,5.770689697265625,-0.091094970703125,0.6317901611328125,0.8725738525390625
1739920580218671600,5.780671630859375,-0.042266845703125,0.62823486328125,0.8281707763671875
1739920580228653600,5.790653564453125,-0.0016937255859375,0.6309661865234375,0.7924041748046875
1739920580238636500,5.800636474609375,0.0157318115234375,0.644134521484375,0.76239013671875
1739920580248618500,5.810618408203125,0.0277099609375,0.6373748779296875,0.7227783203125
1739920580258600400,5.820600341796875,0.0490264892578125,0.623199462890625,0.684326171875
1739920580268582700,5.830582763671875,0.08880615234375,0.615631103515625,0.642669677734375
1739920580278565600,5.840565673828125,0.16094970703125,0.6036224365234375,0.5948333740234375
1739920580288547600,5.850547607421875,0.2463226318359375,0.5931854248046875,0.5494232177734375
1739920580298529500,5.860529541015625,0.3179779052734375,0.5995941162109375,0.5301055908203125
1739920580308511500,5.870511474609375,0.368133544921875,0.6182098388671875,0.53790283203125
1739920580318494500,5.880494384765625,0.377197265625,0.632049560546875,0.522613525390625
1739920580328476700,5.8904765625,0.3402862548828125,0.617828369140625,0.469024658203125
1739920580338458600,5.900458740234375,0.2613067626953125,0.5825042724609375,0.428314208984375
1739920580348440600,5.910440673828125,0.16943359375,0.567657470703125,0.4268035888671875
1739920580358423600,5.920423583984375,0.0919952392578125,0.5695343017578125,0.42425537109375
1739920580368405500,5.930405517578125,0.0120086669921875,0.5458526611328125,0.4213409423828125
1739920580378387700,5.9403876953125,-0.049591064453125,0.5049285888671875,0.425567626953125
1739920580388369700,5.95036962890625,-0.0777435302734375,0.4785308837890625,0.4595794677734375
1739920580398352600,5.9603525390625,-0.0733489990234375,0.4824676513671875,0.5116119384765625
1739920580408334600,5.97033447265625,-0.062896728515625,0.4962310791015625,0.547210693359375
1739920580418316500,5.980316650390625,-0.057159423828125,0.4896392822265625,0.5714111328125
1739920580428298500,5.990298583984375,-0.065155029296875,0.4850616455078125,0.5918731689453125
1739920580438280700,6.00028076171875,-0.0740509033203125,0.5074920654296875,0.646942138671875
1739920580448263700,6.010263671875,-0.0767059326171875,0.534698486328125,0.753326416015625
1739920580458245600,6.02024560546875,-0.076324462890625,0.5675201416015625,0.8780059814453125
1739920580468227600,6.0302275390625,-0.07452392578125,0.6047821044921875,1.0054779052734375
1739920580478209500,6.04020947265625,-0.0666046142578125,0.6400146484375,1.1339874267578125
1739920580488192500,6.050192626953125,-0.051300048828125,0.678009033203125,1.2738800048828125
1739920580498174700,6.0601748046875,-0.0256805419921875,0.713226318359375,1.4149627685546875
1739920580508156400,6.070156494140625,-0.0012359619140625,0.740020751953125,1.542816162109375
1739920580518138600,6.080138671875,0.0231170654296875,0.75665283203125,1.6497344970703125
1739920580528121300,6.090121337890625,0.03570556640625,0.7681884765625,1.72845458984375
1739920580538103600,6.100103515625,0.029815673828125,0.7592620849609375,1.7736968994140625
1739920580548085800,6.110085693359375,0.01177978515625,0.7227020263671875,1.7795562744140625
1739920580558067500,6.1200673828125,-0.0064697265625,0.6877899169921875,1.7478790283203125
1739920580568050700,6.13005078125,-0.0283966064453125,0.66290283203125,1.7022552490234375
1739920580578032400,6.140032470703125,-0.051849365234375,0.645263671875,1.658294677734375
1739920580588014600,6.1500146484375,-0.0714874267578125,0.6287078857421875,1.6226348876953125
1739920580597996500,6.15999658203125,-0.0821533203125,0.602142333984375,1.6101531982421875
1739920580607979500,6.1699794921875,-0.0580291748046875,0.5709228515625,1.6207733154296875
1739920580617961200,6.179961181640625,0.0159912109375,0.5619964599609375,1.7100830078125
1739920580627943000,6.18994287109375,0.1090240478515625,0.507659912109375,1.8263092041015625
1739920580637925000,6.199925048828125,0.1814117431640625,0.3763885498046875,1.817840576171875
1739920580647907000,6.209906982421875,0.2234039306640625,0.3055572509765625,1.808013916015625
1739920580657890000,6.21989013671875,0.2808837890625,0.2546234130859375,1.7755279541015625
1739920580667872300,6.229872314453125,0.3446197509765625,0.204071044921875,1.730133056640625
1739920580677854000,6.23985400390625,0.3990631103515625,0.1652374267578125,1.6597747802734375
1739920580687836200,6.249836181640625,0.4520416259765625,0.13555908203125,1.5861358642578125
1739920580697819000,6.25981884765625,0.491790771484375,0.1150665283203125,1.4996795654296875
1739920580707801000,6.269801025390625,0.50274658203125,0.1103515625,1.39971923828125
1739920580717783000,6.279782958984375,0.49285888671875,0.0965423583984375,1.2987823486328125
1739920580727765000,6.289764892578125,0.4750213623046875,0.1053009033203125,1.2157440185546875
1739920580737748200,6.299748291015625,0.4218292236328125,0.117218017578125,1.16400146484375
1739920580747730000,6.30972998046875,0.383636474609375,0.1183013916015625,1.1309661865234375
1739920580757712100,6.319712158203125,0.34918212890625,0.13446044921875,1.109283447265625
1739920580767694000,6.329694091796875,0.3029022216796875,0.1405487060546875,1.0987548828125
1739920580777677000,6.339677001953125,0.247406005859375,0.14471435546875,1.1070709228515625
1739920580787659300,6.3496591796875,0.1938629150390625,0.153839111328125,1.1338653564453125
1739920580797641000,6.359640869140625,0.1417083740234375,0.17041015625,1.1616668701171875
1739920580807623200,6.369623046875,0.0877838134765625,0.1898345947265625,1.224456787109375
1739920580817606000,6.37960595703125,0.0303955078125,0.198150634765625,1.3034210205078125
1739920580827588000,6.389588134765625,-0.0192108154296875,0.18536376953125,1.354461669921875
1739920580837570300,6.3995703125,-0.0610809326171875,0.153106689453125,1.394134521484375
1739920580847552000,6.409552001953125,-0.0782470703125,0.11846923828125,1.4467010498046875
1739920580857535200,6.41953515625,-0.09063720703125,0.0942840576171875,1.52838134765625
1739920580867517000,6.429516845703125,-0.09417724609375,0.0848541259765625,1.6260528564453125
1739920580877499100,6.4394990234375,-0.0909576416015625,0.092987060546875,1.743377685546875
1739920580887481000,6.449481201171875,-0.0968475341796875,0.088592529296875,1.8502349853515625
1739920580897464000,6.459464111328125,-0.109588623046875,0.060150146484375,1.915740966796875
1739920580907446300,6.4694462890625,-0.1162567138671875,0.023956298828125,1.9322509765625
1739920580917428000,6.479427978515625,-0.1040496826171875,0.004852294921875,1.9090118408203125
1739920580927410200,6.48941015625,-0.0796966552734375,-0.005401611328125,1.8642578125
1739920580937393200,6.49939306640625,-0.0542755126953125,-0.0067901611328125,1.7890167236328125
1739920580947375000,6.509375,-0.0268707275390625,-0.00933837890625,1.68194580078125
1739920580957357000,6.519357177734375,0.00628662109375,0.0128936767578125,1.58441162109375
1739920580967339000,6.529339111328125,0.0382080078125,0.0601654052734375,1.5234832763671875
1739920580977322000,6.539322021484375,0.0671234130859375,0.1398468017578125,1.491180419921875
1739920580987304000,6.549303955078125,0.087799072265625,0.2443695068359375,1.4873046875
1739920580997286100,6.5592861328125,0.1006011962890625,0.3583831787109375,1.514007568359375
1739920581007268000,6.56926806640625,0.10198974609375,0.4759521484375,1.548248291015625
1739920581017250000,6.57925,0.0941162109375,0.582427978515625,1.5744781494140625
1739920581027233000,6.58923291015625,0.0879058837890625,0.678558349609375,1.595123291015625
1739920581037215000,6.599215087890625,0.073211669921875,0.754119873046875,1.5998992919921875
1739920581047197200,6.609197265625,0.05322265625,0.8069610595703125,1.5944976806640625
1739920581057179000,6.619178955078125,0.0371856689453125,0.8258056640625,1.5768280029296875
1739920581067162000,6.629162109375,0.0279083251953125,0.8231658935546875,1.564727783203125
1739920581077144000,6.63914404296875,0.0363616943359375,0.817352294921875,1.547210693359375
1739920581087126000,6.6491259765625,0.0589141845703125,0.798797607421875,1.519012451171875
1739920581097108200,6.659108154296875,0.0806732177734375,0.773406982421875,1.4801177978515625
1739920581107091200,6.66909130859375,0.084014892578125,0.75323486328125,1.443634033203125
1739920581117073200,6.6790732421875,0.0682525634765625,0.7168731689453125,1.4096832275390625
1739920581127055000,6.68905517578125,0.0479278564453125,0.6739654541015625,1.396240234375
1739920581137037000,6.699037109375,0.0353240966796875,0.6508941650390625,1.405548095703125
1739920581147020000,6.70902001953125,0.0120849609375,0.655975341796875,1.4373931884765625
1739920581157002000,6.719001953125,-0.022705078125,0.65240478515625,1.456207275390625
1739920581166984200,6.728984130859375,-0.0458984375,0.6417388916015625,1.4583282470703125
1739920581176966100,6.738966064453125,-0.049957275390625,0.6453094482421875,1.4501953125
1739920581186949000,6.74894921875,-0.0427093505859375,0.6520233154296875,1.4319610595703125
1739920581196931000,6.75893115234375,-0.0390472412109375,0.65966796875,1.4012298583984375
1739920581206913000,6.7689130859375,-0.0386199951171875,0.678680419921875,1.3646087646484375
1739920581216895000,6.77889501953125,-0.0373687744140625,0.7046356201171875,1.330963134765625
1739920581226878200,6.788878173828125,-0.0456695556640625,0.73321533203125,1.2954254150390625
1739920581236860200,6.798860107421875,-0.0556182861328125,0.756011962890625,1.2507781982421875
1739920581246842000,6.808842041015625,-0.05853271484375,0.7718658447265625,1.2100067138671875
1739920581256824000,6.818823974609375,-0.0644073486328125,0.7823333740234375,1.168304443359375
1739920581266807000,6.82880712890625,-0.075714111328125,0.7791290283203125,1.1134033203125
1739920581276789200,6.838789306640625,-0.0839385986328125,0.76495361328125,1.0564727783203125
1739920581286771000,6.84877099609375,-0.0789031982421875,0.756011962890625,1.0084686279296875
1739920581296753200,6.858753173828125,-0.0595855712890625,0.7501678466796875,0.980682373046875
1739920581306735900,6.86873583984375,-0.0413665771484375,0.757293701171875,0.9430389404296875
1739920581316718000,6.878718017578125,-0.022979736328125,0.773590087890625,0.8347930908203125
1739920581326700000,6.888699951171875,-0.0007476806640625,0.7862701416015625,0.678619384765625
1739920581336682000,6.898681884765625,0.0227508544921875,0.8067779541015625,0.5068511962890625
1739920581346665200,6.908665283203125,0.069732666015625,0.810455322265625,0.3792266845703125
1739920581356647000,6.91864697265625,0.143951416015625,0.8025970458984375,0.3363189697265625
1739920581366629000,6.928629150390625,0.2265625,0.8180389404296875,0.34869384765625
1739920581376611000,6.938611083984375,0.303741455078125,0.822021484375,0.3558502197265625
1739920581386594000,6.948593994140625,0.3683929443359375,0.7883148193359375,0.3184661865234375
1739920581396576300,6.958576171875,0.42315673828125,0.7234954833984375,0.25372314453125
1739920581406558000,6.968557861328125,0.459197998046875,0.6665496826171875,0.2044677734375
1739920581416540200,6.9785400390625,0.490203857421875,0.6247100830078125,0.194305419921875
1739920581426523000,6.98852294921875,0.496307373046875,0.6093597412109375,0.224334716796875
1739920581436505000,6.998505126953125,0.4747772216796875,0.6109771728515625,0.2669525146484375
1739920581446487300,7.0084873046875,0.4074249267578125,0.5972900390625,0.30450439453125
1739920581456469000,7.018468994140625,0.304046630859375,0.594146728515625,0.356781005859375
1739920581466452200,7.0284521484375,0.205902099609375,0.6161651611328125,0.423583984375
1739920581476434000,7.038433837890625,0.1169891357421875,0.633941650390625,0.47772216796875
1739920581486416100,7.048416015625,0.032745361328125,0.610931396484375,0.5145263671875
1739920581496398000,7.058398193359375,-0.0288848876953125,0.5769805908203125,0.5589599609375
1739920581506381000,7.068381103515625,-0.0675048828125,0.55230712890625,0.6624908447265625
1739920581516363300,7.07836328125,-0.082489013671875,0.5462188720703125,0.7864227294921875
1739920581526345000,7.088344970703125,-0.097137451171875,0.559173583984375,0.8841400146484375
1739920581536327200,7.0983271484375,-0.104766845703125,0.5713348388671875,0.9350128173828125
1739920581546310100,7.10831005859375,-0.1082000732421875,0.5972442626953125,0.9576263427734375
1739920581556292000,7.1182919921875,-0.1100311279296875,0.640625,1.0034637451171875
1739920581566274000,7.128274169921875,-0.1102752685546875,0.68292236328125,1.0735015869140625
1739920581576256000,7.138256103515625,-0.10125732421875,0.7189788818359375,1.1788330078125
1739920581586238200,7.14823828125,-0.0750732421875,0.7593994140625,1.3038330078125
1739920581596221000,7.158220947265625,-0.0389556884765625,0.7876129150390625,1.425384521484375
1739920581606203100,7.168203125,-0.0018463134765625,0.79351806640625,1.537139892578125
1739920581616184800,7.178184814453125,0.0336151123046875,0.784515380859375,1.6249542236328125
1739920581626167800,7.188167724609375,0.043426513671875,0.7540130615234375,1.670166015625
1739920581636149800,7.198149658203125,0.03106689453125,0.698028564453125,1.6785125732421875
1739920581646131700,7.208131591796875,0.01666259765625,0.632476806640625,1.6644134521484375
1739920581656113700,7.21811376953125,0.0081787109375,0.57073974609375,1.6424560546875
1739920581666096600,7.2280966796875,0.0129852294921875,0.50537109375,1.6092376708984375
1739920581676078800,7.238078857421875,0.03546142578125,0.44293212890625,1.5618438720703125
1739920581686060500,7.248060546875,0.0652618408203125,0.398529052734375,1.521759033203125
1739920581696042800,7.258042724609375,0.089447021484375,0.35369873046875,1.48785400390625
1739920581706025700,7.268025634765625,0.10906982421875,0.30670166015625,1.4593048095703125
1739920581716007700,7.278007568359375,0.1253204345703125,0.26812744140625,1.42578125
1739920581725990000,7.287989990234375,0.1360626220703125,0.235382080078125,1.3780059814453125
1739920581735971600,7.2979716796875,0.1506195068359375,0.216033935546875,1.335540771484375
1739920581745954800,7.307954833984375,0.1581573486328125,0.20989990234375,1.3106842041015625
1739920581755936500,7.3179365234375,0.162872314453125,0.201446533203125,1.29644775390625
1739920581765918700,7.327918701171875,0.1605224609375,0.19140625,1.2969970703125
1739920581775900700,7.337900634765625,0.1662139892578125,0.1823883056640625,1.291351318359375
1739920581785883600,7.347883544921875,0.1851348876953125,0.18182373046875,1.2697296142578125
1739920581795865900,7.357865966796875,0.1932220458984375,0.1766510009765625,1.2410736083984375
1739920581805847600,7.36784765625,0.1809234619140625,0.1499786376953125,1.2252197265625
1739920581815829800,7.377829833984375,0.1650543212890625,0.119873046875,1.22637939453125
1739920581825812700,7.387812744140625,0.157958984375,0.100250244140625,1.2413330078125
1739920581835794700,7.397794677734375,0.1758880615234375,0.086273193359375,1.2608489990234375
1739920581845777000,7.40777685546875,0.2078704833984375,0.07220458984375,1.29736328125
1739920581855758600,7.417758544921875,0.226593017578125,0.050048828125,1.3348541259765625
1739920581865741800,7.427741943359375,0.2100677490234375,0.02783203125,1.359375
1739920581875723500,7.4377236328125,0.1622161865234375,0.0050048828125,1.3860321044921875
1739920581885705700,7.447705810546875,0.1031646728515625,-0.014495849609375,1.439453125
1739920581895688000,7.45768798828125,0.0529937744140625,-0.0256500244140625,1.522369384765625
1739920581905670700,7.467670654296875,0.0167388916015625,-0.0171356201171875,1.5977783203125
1739920581915652900,7.47765283203125,-0.0137939453125,-0.0057525634765625,1.6248626708984375
1739920581925634600,7.487634521484375,-0.014556884765625,0.0006866455078125,1.62811279296875
1739920581935616800,7.49761669921875,0.021575927734375,0.0128631591796875,1.6228485107421875
1739920581945599700,7.507599853515625,0.0921783447265625,0.0415191650390625,1.6208648681640625
1739920581955581700,7.517581787109375,0.188446044921875,0.0911407470703125,1.6196441650390625
1739920581965563600,7.527563720703125,0.282135009765625,0.1289520263671875,1.59991455078125
1739920581975545600,7.537545654296875,0.361419677734375,0.16363525390625,1.5924072265625
1739920581985528800,7.54752880859375,0.4244842529296875,0.210723876953125,1.571807861328125
1739920581995510800,7.5575107421875,0.4368438720703125,0.23223876953125,1.5138092041015625
1739920582005492700,7.56749267578125,0.4097137451171875,0.202178955078125,1.424774169921875
1739920582015474700,7.577474609375,0.3622283935546875,0.1487884521484375,1.33392333984375
1739920582025457700,7.587457763671875,0.309326171875,0.09600830078125,1.2841339111328125
1739920582035439600,7.597439697265625,0.2557830810546875,0.0655517578125,1.2709197998046875
1739920582045421600,7.607421630859375,0.1836090087890625,0.0413665771484375,1.2691802978515625
1739920582055403800,7.61740380859375,0.11004638671875,0.0321197509765625,1.262451171875
1739920582065386800,7.62738671875,0.0590057373046875,0.04547119140625,1.25823974609375
1739920582075368700,7.63736865234375,0.0309600830078125,0.1042938232421875,1.262969970703125
1739920582085350700,7.6473505859375,0.0310211181640625,0.19635009765625,1.2871246337890625
1739920582095332600,7.65733251953125,0.027679443359375,0.2991943359375,1.336761474609375
1739920582105315600,7.667315673828125,0.0168304443359375,0.4002838134765625,1.4024810791015625
1739920582115297800,7.6772978515625,0.0081939697265625,0.4949493408203125,1.4778900146484375
1739920582125279700,7.68727978515625,0.000457763671875,0.5714263916015625,1.5449066162109375
1739920582135261700,7.69726171875,-0.0073394775390625,0.6190032958984375,1.591644287109375
1739920582145244700,7.70724462890625,-0.009429931640625,0.65325927734375,1.64117431640625
1739920582155226600,7.7172265625,-0.0028839111328125,0.670928955078125,1.6823272705078125
1739920582165208800,7.727208740234375,-0.0005340576171875,0.6737518310546875,1.7095184326171875
1739920582175190800,7.737190673828125,-0.0087432861328125,0.6595306396484375,1.7136077880859375
1739920582185173800,7.747173828125,-0.0236663818359375,0.63482666015625,1.7057952880859375
1739920582195155700,7.75715576171875,-0.0220184326171875,0.5945587158203125,1.692352294921875
1739920582205137700,7.7671376953125,0.0142364501953125,0.56353759765625,1.679168701171875
1739920582215119600,7.77711962890625,0.0794219970703125,0.5601043701171875,1.654022216796875
1739920582225102600,7.7871025390625,0.147613525390625,0.549652099609375,1.616729736328125
1739920582235084800,7.797084716796875,0.198333740234375,0.5420684814453125,1.5770263671875
1739920582245066800,7.807066650390625,0.210235595703125,0.5500030517578125,1.55804443359375
1739920582255048700,7.817048583984375,0.1842041015625,0.5555877685546875,1.55975341796875
1739920582265032000,7.827031982421875,0.141143798828125,0.5679473876953125,1.57415771484375
1739920582275013600,7.837013671875,0.1107177734375,0.59637451171875,1.5731353759765625
1739920582284995800,7.846995849609375,0.095733642578125,0.626708984375,1.5565948486328125
1739920582294977800,7.856977783203125,0.1033782958984375,0.6572723388671875,1.5351409912109375
1739920582304960800,7.866960693359375,0.12152099609375,0.6954498291015625,1.499298095703125
1739920582314942700,7.876942626953125,0.1551361083984375,0.732421875,1.47760009765625
1739920582324925700,7.88692578125,0.206451416015625,0.7675018310546875,1.468231201171875
1739920582334907600,7.89690771484375,0.26300048828125,0.8061370849609375,1.4569854736328125
1739920582344889600,7.9068896484375,0.3044586181640625,0.840911865234375,1.44122314453125
1739920582354871800,7.916871826171875,0.3224029541015625,0.866119384765625,1.41754150390625
1739920582364854800,7.926854736328125,0.3244171142578125,0.8878631591796875,1.375946044921875
1739920582374836700,7.936836669921875,0.30499267578125,0.8928985595703125,1.3162689208984375
1739920582384818700,7.946818603515625,0.255126953125,0.8905181884765625,1.26275634765625
1739920582394800600,7.956800537109375,0.1973724365234375,0.8849945068359375,1.214935302734375
1739920582404783600,7.96678369140625,0.1629180908203125,0.891143798828125,1.152801513671875
1739920582414765600,7.976765625,0.1368560791015625,0.887176513671875,1.061767578125
1739920582424747800,7.986747802734375,0.11029052734375,0.86517333984375,0.957305908203125
1739920582434729700,7.996729736328125,0.077423095703125,0.8417205810546875,0.8542938232421875
1739920582444712700,8.006712646484376,0.049835205078125,0.8177947998046875,0.760894775390625
1739920582454694700,8.016694580078125,0.027740478515625,0.786407470703125,0.672607421875
1739920582464676600,8.026676513671875,0.0003509521484375,0.7552947998046875,0.5943603515625
1739920582474658800,8.036658935546875,-0.022064208984375,0.722747802734375,0.518768310546875
1739920582484641800,8.046641845703125,-0.03387451171875,0.6828155517578125,0.4457244873046875
1739920582494623700,8.056623779296874,-0.0386810302734375,0.6548919677734375,0.39056396484375
1739920582504605700,8.066605712890626,-0.027008056640625,0.63385009765625,0.3363800048828125
1739920582514587600,8.076587646484375,-0.0225830078125,0.625762939453125,0.2985992431640625
1739920582524570600,8.086570556640625,0.0012969970703125,0.6270599365234375,0.261749267578125
1739920582534552800,8.096552734375,0.0445556640625,0.6249542236328125,0.2183074951171875
1739920582544534800,8.10653466796875,0.086883544921875,0.61932373046875,0.189544677734375
1739920582554516700,8.116516845703124,0.12060546875,0.625,0.1818084716796875
1739920582564499700,8.126499755859374,0.133148193359375,0.616729736328125,0.1897125244140625
1739920582574481700,8.136481689453126,0.1101226806640625,0.5736541748046875,0.215362548828125
1739920582584463600,8.146463623046875,0.0665435791015625,0.51824951171875,0.278900146484375
1739920582594445800,8.15644580078125,0.0292205810546875,0.46002197265625,0.384124755859375
1739920582604428800,8.1664287109375,0.01971435546875,0.4220733642578125,0.4822998046875
1739920582614410800,8.17641064453125,0.034210205078125,0.4174957275390625,0.5545196533203125
1739920582624393200,8.186393310546874,0.0642852783203125,0.4305572509765625,0.600616455078125
1739920582634376000,8.1963759765625,0.1002044677734375,0.4510498046875,0.63739013671875
1739920582644358100,8.206358154296876,0.1437225341796875,0.48272705078125,0.686065673828125
1739920582654340000,8.216340087890625,0.1894073486328125,0.5440216064453125,0.74066162109375
1739920582664322000,8.226322021484375,0.2293243408203125,0.6107177734375,0.81207275390625
1739920582674304000,8.236303955078125,0.2626953125,0.66729736328125,0.89739990234375
1739920582684286200,8.2462861328125,0.2805938720703125,0.7218780517578125,0.9992218017578125
1739920582694268200,8.25626806640625,0.285552978515625,0.773529052734375,1.139007568359375
1739920582704251100,8.266251220703126,0.2671356201171875,0.8165130615234375,1.30059814453125
1739920582714233000,8.276233154296875,0.243011474609375,0.856597900390625,1.462615966796875
1739920582724215000,8.286215087890625,0.2184295654296875,0.8720245361328125,1.612396240234375
1739920582734197200,8.296197265625,0.1878662109375,0.8654937744140625,1.725982666015625
1739920582744180200,8.30618017578125,0.155303955078125,0.85528564453125,1.7876739501953125
1739920582754162200,8.316162109375,0.1237945556640625,0.8383026123046875,1.8242645263671875
1739920582764144000,8.32614404296875,0.0848846435546875,0.8259735107421875,1.84710693359375
1739920582774126000,8.3361259765625,0.0371856689453125,0.8304901123046875,1.85662841796875
1739920582784109000,8.346109130859375,-0.0151214599609375,0.8326568603515625,1.858062744140625
1739920582794091300,8.35609130859375,-0.069610595703125,0.8300628662109375,1.8599395751953125
1739920582804073200,8.3660732421875,-0.133544921875,0.8112335205078125,1.8764495849609375
1739920582814056200,8.37605615234375,-0.2000885009765625,0.7696533203125,1.911224365234375
1739920582824038100,8.3860380859375,-0.25286865234375,0.7147064208984375,1.935760498046875
1739920582834020000,8.39602001953125,-0.2852325439453125,0.642669677734375,1.9599456787109375
1739920582844002000,8.406001953125,-0.281707763671875,0.5511016845703125,1.981475830078125
1739920582853985000,8.415985107421875,-0.24285888671875,0.4595184326171875,1.951416015625
1739920582863967200,8.42596728515625,-0.186676025390625,0.3813018798828125,1.88616943359375
1739920582873949000,8.435948974609374,-0.1274261474609375,0.3112945556640625,1.8162841796875
1739920582883931100,8.44593115234375,-0.0685272216796875,0.2390289306640625,1.757659912109375
1739920582893914000,8.4559140625,-0.0316009521484375,0.1851654052734375,1.7394561767578125
1739920582903896000,8.46589599609375,0.000335693359375,0.1294403076171875,1.814849853515625
1739920582913878300,8.475878173828125,0.033935546875,0.0937957763671875,1.8741302490234375
1739920582923860000,8.48585986328125,0.0379180908203125,0.0846710205078125,1.847625732421875
1739920582933843200,8.49584326171875,0.0276641845703125,0.0810699462890625,1.7310943603515625
1739920582943825000,8.505824951171874,-0.012542724609375,0.06256103515625,1.5659027099609375
1739920582953807000,8.51580712890625,-0.0775146484375,0.046051025390625,1.4332427978515625
1739920582963789300,8.525789306640625,-0.1407470703125,0.04718017578125,1.3724822998046875
1739920582973772000,8.53577197265625,-0.177032470703125,0.047149658203125,1.3843231201171875
1739920582983754200,8.545754150390625,-0.2003021240234375,0.0552978515625,1.4099578857421875
1739920582993736000,8.55573583984375,-0.23504638671875,0.053070068359375,1.425994873046875
1739920583003718100,8.56571826171875,-0.2491455078125,0.0554962158203125,1.431915283203125
1739920583013701000,8.575701171875,-0.2820587158203125,0.0740966796875,1.4138641357421875
1739920583023683000,8.58568310546875,-0.364410400390625,0.017974853515625,1.385772705078125
1739920583033665300,8.595665283203125,-0.4462738037109375,-0.0822601318359375,1.3791351318359375
1739920583043647000,8.60564697265625,-0.50244140625,-0.17083740234375,1.444671630859375
1739920583053630200,8.615630126953125,-0.5048370361328125,-0.231292724609375,1.5893402099609375
1739920583063612200,8.625612060546874,-0.4912261962890625,-0.2968292236328125,1.8498382568359375
1739920583073594000,8.635593994140624,-0.4665069580078125,-0.356231689453125,2.1662139892578125
1739920583083577000,8.6455771484375,-0.4234466552734375,-0.393707275390625,2.3853759765625
1739920583093559000,8.65555908203125,-0.360107421875,-0.407989501953125,2.4396820068359375
1739920583103541200,8.665541259765625,-0.2642669677734375,-0.365875244140625,2.3308563232421875
1739920583113523000,8.67552294921875,-0.1554718017578125,-0.2589111328125,2.1008148193359375
1739920583123506200,8.685506103515625,-0.055999755859375,-0.1117706298828125,1.8292694091796875
1739920583133488000,8.695488037109374,-0.0058746337890625,0.0138092041015625,1.59112548828125
1739920583143470000,8.705469970703126,-0.016571044921875,0.111328125,1.4478912353515625
1739920583153452000,8.7154521484375,-0.0498809814453125,0.1793670654296875,1.4326171875
1739920583163435300,8.725435302734375,-0.0489044189453125,0.2665252685546875,1.563812255859375
1739920583173417200,8.735417236328125,0.0149383544921875,0.3991851806640625,1.7244873046875
1739920583183399200,8.745399169921875,0.1049346923828125,0.5457611083984375,1.8168792724609375
1739920583193381000,8.755381103515624,0.185028076171875,0.6659698486328125,1.8068084716796875
1739920583203364000,8.765364013671874,0.2211151123046875,0.7460784912109375,1.72698974609375
1739920583213346300,8.77534619140625,0.199493408203125,0.7834930419921875,1.64404296875
1739920583223328000,8.785327880859375,0.1261138916015625,0.786865234375,1.5898895263671875
1739920583233310200,8.795310302734375,0.0248260498046875,0.7954559326171875,1.6125335693359375
1739920583243293000,8.80529296875,-0.07159423828125,0.7998504638671875,1.70123291015625
1739920583253275100,8.815275146484375,-0.137603759765625,0.8105926513671875,1.8747100830078125
1739920583263257000,8.825257080078124,-0.126068115234375,0.852020263671875,1.9590301513671875
1739920583273239000,8.835239013671876,-0.055328369140625,0.8675689697265625,1.9208831787109375
1739920583283222300,8.84522216796875,0.0347747802734375,0.82696533203125,1.7817535400390625
1739920583293204000,8.855203857421875,0.0947418212890625,0.748016357421875,1.605987548828125
1739920583303186200,8.865186279296875,0.14715576171875,0.669219970703125,1.4743194580078125
1739920583313169200,8.875169189453125,0.193756103515625,0.606719970703125,1.3990936279296875
1739920583323151000,8.885151123046874,0.171234130859375,0.5654449462890625,1.3816986083984375
1739920583333133300,8.89513330078125,0.0880889892578125,0.53668212890625,1.3997039794921875
1739920583343115000,8.905114990234376,-0.0047760009765625,0.514190673828125,1.4177093505859375
1739920583353098200,8.91509814453125,-0.103729248046875,0.5103302001953125,1.4670562744140625
1739920583363080000,8.925079833984375,-0.1698760986328125,0.5201873779296875,1.53155517578125
1739920583373062100,8.935062255859375,-0.2004547119140625,0.542633056640625,1.5452117919921875
1739920583383044400,8.94504443359375,-0.1930389404296875,0.5601348876953125,1.5086669921875
1739920583393027000,8.955027099609374,-0.142578125,0.5570068359375,1.44293212890625
1739920583403009300,8.96500927734375,-0.10089111328125,0.5579986572265625,1.387420654296875
1739920583412991000,8.974990966796875,-0.08642578125,0.5891265869140625,1.343170166015625
1739920583422973200,8.98497314453125,-0.105682373046875,0.6350250244140625,1.2580413818359375
1739920583432956200,8.9949560546875,-0.14202880859375,0.6344146728515625,1.2240142822265625
1739920583442938000,9.004938232421875,-0.2239990234375,0.6361083984375,1.3800506591796875
1739920583452920300,9.01492041015625,-0.33935546875,0.7423858642578125,1.565277099609375
1739920583462902000,9.024902099609376,-0.0650787353515625,0.6911163330078125,1.300445556640625
1739920583472885200,9.03488525390625,0.032012939453125,0.6831207275390625,1.12200927734375
1739920583482867200,9.0448671875,0.01153564453125,0.775482177734375,0.9852752685546875
1739920583492849200,9.05484912109375,0.0747222900390625,0.7846527099609375,0.79974365234375
1739920583502831000,9.0648310546875,0.1463623046875,0.741058349609375,0.5809783935546875
1739920583512814000,9.07481396484375,0.2041015625,0.724517822265625,0.40106201171875
1739920583522796000,9.084796142578124,0.2414703369140625,0.7241363525390625,0.275115966796875
1739920583532778000,9.094778076171876,0.27337646484375,0.7181243896484375,0.23516845703125
1739920583542761000,9.104760986328126,0.2900848388671875,0.6917724609375,0.244842529296875
1739920583552743200,9.1147431640625,0.2621612548828125,0.6395263671875,0.2221221923828125
1739920583562725000,9.12472509765625,0.1912078857421875,0.555511474609375,0.2067108154296875
1739920583572707000,9.13470703125,0.122528076171875,0.4991302490234375,0.209381103515625
1739920583582690300,9.144690185546875,0.0496063232421875,0.4640350341796875,0.206298828125
1739920583592672000,9.154672119140624,-0.030487060546875,0.440673828125,0.208709716796875
1739920583602654200,9.164654296875,-0.0998687744140625,0.432586669921875,0.2581634521484375
1739920583612636200,9.17463623046875,-0.1334075927734375,0.4539794921875,0.31927490234375
1739920583622619400,9.184619384765625,-0.152862548828125,0.4862518310546875,0.3892822265625
1739920583632601600,9.1946015625,-0.1131744384765625,0.502593994140625,0.426666259765625
1739920583642583600,9.20458349609375,-0.1313629150390625,0.4730987548828125,0.483062744140625
1739920583652565500,9.2145654296875,-0.183197021484375,0.4241943359375,0.592620849609375
1739920583662548500,9.224548583984374,-0.182525634765625,0.3968505859375,0.73876953125
1739920583672530400,9.234530517578126,-0.152801513671875,0.3306121826171875,0.8513031005859375
1739920583682512600,9.2445126953125,-0.09613037109375,0.223876953125,0.916656494140625
1739920583692495600,9.25449560546875,-0.0317840576171875,0.1631622314453125,1.0185546875
1739920583702477600,9.2644775390625,0.096588134765625,0.111175537109375,1.0910186767578125
1739920583712459500,9.27445947265625,0.1963958740234375,0.0678558349609375,1.1403045654296875
1739920583722441500,9.28444140625,0.256072998046875,0.023040771484375,1.139129638671875
1739920583732424400,9.294424560546876,0.2789764404296875,0.0348663330078125,1.1604766845703125
1739920583742406700,9.30440673828125,0.27978515625,0.0162506103515625,1.2439117431640625
1739920583752388400,9.314388427734375,0.270904541015625,-0.023193359375,1.320281982421875
1739920583762370600,9.32437060546875,0.2218780517578125,-0.0442657470703125,1.342315673828125
1739920583772353500,9.334353515625,0.1633148193359375,-0.0576324462890625,1.3473663330078125
1739920583782335500,9.34433544921875,0.074249267578125,-0.0513916015625,1.3882904052734375
1739920583792317400,9.3543173828125,-0.0428924560546875,-0.0482330322265625,1.45086669921875
1739920583802299400,9.36429931640625,-0.1676025390625,-0.0645599365234375,1.4964599609375
1739920583812282600,9.37428271484375,-0.19854736328125,-0.0460357666015625,1.5312347412109375
1739920583822264300,9.384264404296875,-0.13214111328125,0.0065460205078125,1.4966888427734375
1739920583832246500,9.39424658203125,-0.1559295654296875,0.0115814208984375,1.46795654296875
1739920583842228500,9.404228515625,-0.233154296875,-0.00164794921875,1.386932373046875
1739920583852211500,9.41421142578125,-0.2983245849609375,0.0122528076171875,1.2795257568359375
1739920583862193700,9.424193603515626,-0.3319244384765625,0.0231475830078125,1.1862640380859375
1739920583872175400,9.43417529296875,-0.3384246826171875,0.0366973876953125,1.0958404541015625
1739920583882158600,9.44415869140625,-0.35955810546875,0.0260467529296875,1.03411865234375
1739920583892140300,9.454140380859375,-0.383880615234375,0.0071563720703125,0.9930877685546875
1739920583902122500,9.46412255859375,-0.3852081298828125,0.0272369384765625,0.9675445556640625
1739920583912104700,9.474104736328124,-0.3566741943359375,0.12652587890625,0.86474609375
1739920583922087400,9.48408740234375,-0.3319091796875,0.021514892578125,0.93426513671875
1739920583932069600,9.494069580078126,-0.3460693359375,-0.0625762939453125,0.9592437744140625
1739920583942051300,9.50405126953125,-0.4111480712890625,-0.011688232421875,0.8949737548828125
1739920583952033500,9.514033447265625,-0.421142578125,0.0037078857421875,0.8960113525390625
1739920583962016500,9.5240166015625,-0.4103851318359375,0.0124359130859375,0.893524169921875
1739920583971998500,9.53399853515625,-0.4165191650390625,0.0467681884765625,0.89764404296875
1739920583981980700,9.543980712890624,-0.4443511962890625,0.07452392578125,0.927520751953125
1739920583991962400,9.55396240234375,-0.4925994873046875,0.0889129638671875,0.9188232421875
1739920584001945600,9.563945556640626,-0.53863525390625,0.0809478759765625,0.879730224609375
1739920584011927600,9.573927490234375,-0.5740203857421875,0.042327880859375,0.89532470703125
1739920584021909500,9.583909423828125,-0.7144622802734375,0.000732421875,1.0460357666015625
1739920584031891700,9.5938916015625,-0.823760986328125,-0.0133819580078125,1.2106170654296875
1739920584041874400,9.60387451171875,-0.8189697265625,-0.0240020751953125,1.2574310302734375
1739920584051856600,9.613856689453126,-0.8298187255859375,-0.017578125,1.190521240234375
1739920584061838300,9.62383837890625,-0.79510498046875,-0.062286376953125,1.1311798095703125
1739920584071821600,9.633821533203125,-0.78399658203125,-0.097930908203125,1.10369873046875
1739920584081803500,9.643803466796875,-0.815338134765625,-0.0941162109375,1.0707550048828125
1739920584091785500,9.653785400390625,-0.8376922607421875,-0.0831756591796875,1.0706329345703125
1739920584101767400,9.663767333984374,-0.88848876953125,-0.0715789794921875,1.1427154541015625
1739920584111750700,9.673750732421874,-1.009124755859375,-0.071929931640625,1.2122650146484375
1739920584121732400,9.683732421875,-1.0811920166015625,-0.0970458984375,1.2483978271484375
1739920584131714600,9.693714599609375,-1.113494873046875,-0.124237060546875,1.2547454833984375
1739920584141696500,9.703696533203125,-1.1599884033203125,-0.1425628662109375,1.2593841552734375
1739920584151679500,9.713679443359375,-1.1966552734375,-0.1596221923828125,1.2438507080078125
1739920584161661400,9.723661376953125,-1.2436370849609375,-0.2110137939453125,1.2186126708984375
1739920584171643400,9.733643310546874,-1.257476806640625,-0.2353973388671875,1.22955322265625
1739920584181625600,9.74362548828125,-1.2185821533203125,-0.1982269287109375,1.2480621337890625
1739920584191608300,9.7536083984375,-1.1970062255859375,-0.202850341796875,1.2623748779296875
1739920584201590500,9.763590576171875,-1.1932525634765625,-0.2812652587890625,1.2161712646484375
1739920584211572500,9.773572509765625,-1.1840057373046875,-0.3501434326171875,1.175048828125
1739920584221555500,9.783555419921875,-1.16253662109375,-0.38690185546875,1.1465911865234375
1739920584231537700,9.79353759765625,-1.173797607421875,-0.418243408203125,1.1670379638671875
1739920584241519400,9.803519287109374,-1.194976806640625,-0.408355712890625,1.2388763427734375
1739920584251501600,9.81350146484375,-1.199066162109375,-0.3309173583984375,1.295501708984375
1739920584261484300,9.823484375,-1.1623077392578125,-0.21160888671875,1.380828857421875
1739920584271466500,9.833466552734375,-1.1450347900390625,-0.093780517578125,1.4866943359375
1739920584281448700,9.84344873046875,-1.1298370361328125,0.0232696533203125,1.6550750732421875
1739920584291430400,9.853430419921875,-1.1111907958984375,0.1405181884765625,1.844207763671875
1739920584301413600,9.86341357421875,-1.0370635986328125,0.3837127685546875,1.855621337890625
1739920584311395300,9.873395263671876,-0.9391937255859375,0.486907958984375,1.8917999267578125
1739920584321377500,9.88337744140625,-0.8976287841796875,0.51507568359375,1.7942047119140625
1739920584331359500,9.893359375,-0.838104248046875,0.613983154296875,1.7211761474609375
1739920584341342500,9.903342529296875,-0.786651611328125,0.6249542236328125,1.73614501953125
1739920584351324700,9.91332470703125,-0.773345947265625,0.61395263671875,1.74493408203125
1739920584361306400,9.923306396484374,-0.7345123291015625,0.5864105224609375,1.7469940185546875
1739920584371289600,9.93328955078125,-0.65350341796875,0.542388916015625,1.727996826171875
1739920584381271600,9.943271484375,-0.5025787353515625,0.5072479248046875,1.64404296875
1739920584391253500,9.95325341796875,-0.3357696533203125,0.46533203125,1.5273895263671875
1739920584401235500,9.9632353515625,-0.2070770263671875,0.421844482421875,1.4175262451171875
1739920584411218400,9.973218505859375,-0.179168701171875,0.3824920654296875,1.3569793701171875
1739920584421200600,9.98320068359375,-0.2250823974609375,0.366607666015625,1.3714447021484375
1739920584431182300,9.993182373046874,-0.2840423583984375,0.36370849609375,1.43426513671875
1739920584441164500,10.00316455078125,-0.32220458984375,0.372467041015625,1.4728240966796875
1739920584451147500,10.0131474609375,-0.34063720703125,0.37884521484375,1.45159912109375
1739920584461129500,10.02312939453125,-0.32598876953125,0.3832855224609375,1.3775634765625
1739920584471111400,10.033111328125,-0.26654052734375,0.4094696044921875,1.3070068359375
1739920584481094700,10.0430947265625,-0.2221221923828125,0.432403564453125,1.2491912841796875
1739920584491076400,10.053076416015625,-0.2213592529296875,0.4399871826171875,1.2050323486328125
1739920584501058600,10.06305859375,-0.2480010986328125,0.4297332763671875,1.182342529296875
1739920584511040500,10.07304052734375,-0.2837371826171875,0.42559814453125,1.2049560546875
1739920584521023500,10.0830234375,-0.303558349609375,0.4386138916015625,1.2115020751953125
1739920584531005400,10.09300537109375,-0.283843994140625,0.429168701171875,1.1784515380859375
1739920584540987400,10.1029873046875,-0.2244873046875,0.4263763427734375,1.1374664306640625
1739920584550969600,10.112969482421875,-0.15814208984375,0.429962158203125,1.07550048828125
1739920584560952300,10.122952392578124,-0.1124420166015625,0.421051025390625,0.9935150146484375
1739920584570934500,10.1329345703125,-0.1178741455078125,0.389984130859375,0.9398651123046875
1739920584580916500,10.14291650390625,-0.1441192626953125,0.3744964599609375,0.963653564453125
1739920584590898400,10.1528984375,-0.1678009033203125,0.391204833984375,0.98602294921875
1739920584600881700,10.162881591796875,-0.1693115234375,0.4140472412109375,0.939788818359375
1739920584610863400,10.17286328125,-0.1591796875,0.425811767578125,0.8725433349609375
1739920584620845600,10.182845458984374,-0.1374969482421875,0.433502197265625,0.7850189208984375
1739920584630828500,10.19282861328125,-0.1066131591796875,0.4481048583984375,0.710845947265625
1739920584640810500,10.202810546875,-0.063934326171875,0.4743194580078125,0.64849853515625
1739920584650792700,10.212792724609375,-0.0255584716796875,0.496307373046875,0.5806884765625
1739920584660774400,10.2227744140625,0.0131072998046875,0.511627197265625,0.520599365234375
1739920584670757600,10.232757568359375,0.0530853271484375,0.522857666015625,0.479095458984375
1739920584680739600,10.242739501953125,0.0739288330078125,0.52764892578125,0.45477294921875
1739920584690721500,10.252721435546874,0.0798187255859375,0.525665283203125,0.449462890625
1739920584700703700,10.262703857421876,0.07421875,0.523956298828125,0.44024658203125
1739920584710686700,10.272686767578126,0.08428955078125,0.52618408203125,0.4246673583984375
1739920584720668700,10.282668701171875,0.100738525390625,0.513916015625,0.4021759033203125
1739920584730650600,10.292650634765625,0.1051483154296875,0.489532470703125,0.394500732421875
1739920584740633600,10.302633544921875,0.0991058349609375,0.4604034423828125,0.407379150390625
1739920584750615600,10.312615478515625,0.0699920654296875,0.4187164306640625,0.433837890625
1739920584760597500,10.322597412109374,0.025421142578125,0.3743438720703125,0.4682769775390625
1739920584770579500,10.332579345703126,-0.0142059326171875,0.3228759765625,0.51092529296875
1739920584780562700,10.342562744140626,-0.0265960693359375,0.2914581298828125,0.574127197265625
1739920584790544400,10.35254443359375,-0.0110321044921875,0.3008270263671875,0.654693603515625
1739920584800526600,10.362526611328125,0.0258026123046875,0.3121185302734375,0.7085113525390625
1739920584810508500,10.372508544921875,0.0740509033203125,0.321136474609375,0.77191162109375
1739920584820491500,10.382491455078124,0.12158203125,0.3415374755859375,0.8498382568359375
1739920584830473700,10.3924736328125,0.1482086181640625,0.3716278076171875,0.9393157958984375
1739920584840455400,10.402455322265626,0.146820068359375,0.4041900634765625,1.047821044921875
1739920584850438700,10.412438720703125,0.1297454833984375,0.4332275390625,1.14898681640625
1739920584860420400,10.42242041015625,0.0970458984375,0.453369140625,1.2367095947265625
1739920584870402600,10.432402587890625,0.048065185546875,0.48236083984375,1.3452911376953125
1739920584880384800,10.442384765625,-0.0201873779296875,0.5117950439453125,1.4668731689453125
1739920584890367500,10.452367431640624,-0.106781005859375,0.51251220703125,1.5645751953125
1739920584900349700,10.462349609375,-0.1861572265625,0.5089263916015625,1.6274261474609375
1739920584910331400,10.472331298828125,-0.2327728271484375,0.502960205078125,1.6510009765625
1739920584920313600,10.482313720703125,-0.26123046875,0.4841766357421875,1.6474761962890625
1739920584930296600,10.492296630859375,-0.2748870849609375,0.4676666259765625,1.6548004150390625
1739920584940278500,10.502278564453125,-0.278228759765625,0.460296630859375,1.65802001953125
1739920584950260700,10.5122607421875,-0.2794952392578125,0.4535980224609375,1.6483612060546875
1739920584960243700,10.52224365234375,-0.28253173828125,0.4569549560546875,1.6453857421875
1739920584970225700,10.5322255859375,-0.2960205078125,0.4577484130859375,1.631866455078125
1739920584980207600,10.54220751953125,-0.323760986328125,0.4468231201171875,1.6303558349609375
1739920584990189600,10.552189453125,-0.3543548583984375,0.43292236328125,1.66851806640625
1739920585000172500,10.562172607421875,-0.363525390625,0.412567138671875,1.699920654296875
1739920585010154500,10.572154541015625,-0.34710693359375,0.37347412109375,1.7202911376953125
1739920585020136700,10.58213671875,-0.3186798095703125,0.3436279296875,1.7316131591796875
1739920585030118400,10.592118408203126,-0.3036956787109375,0.307525634765625,1.7257843017578125
1739920585040101600,10.6021015625,-0.3066558837890625,0.2583770751953125,1.70770263671875
1739920585050083600,10.61208349609375,-0.319793701171875,0.2097625732421875,1.694091796875
1739920585060065500,10.6220654296875,-0.3300933837890625,0.1565093994140625,1.695770263671875
1739920585070048500,10.632048583984375,-0.3255462646484375,0.0790863037109375,1.7376251220703125
1739920585080030700,10.64203076171875,-0.2974090576171875,0.005828857421875,1.7652587890625
1739920585090012700,10.6520126953125,-0.2570343017578125,-0.0479583740234375,1.747528076171875
1739920585099994600,10.66199462890625,-0.214385986328125,-0.10089111328125,1.7096710205078125
1739920585109977600,10.6719775390625,-0.1865997314453125,-0.15185546875,1.6852264404296875
1739920585119959600,10.68195947265625,-0.18115234375,-0.17987060546875,1.678863525390625
1739920585129941800,10.691941650390625,-0.1915435791015625,-0.212432861328125,1.69012451171875
1739920585139923500,10.70192333984375,-0.1920928955078125,-0.2491912841796875,1.721160888671875
1739920585149906700,10.71190673828125,-0.193572998046875,-0.2596893310546875,1.74432373046875
1739920585159888400,10.721888427734376,-0.212677001953125,-0.2650146484375,1.738983154296875
1739920585169870600,10.73187060546875,-0.249664306640625,-0.2699127197265625,1.7067413330078125
1739920585179852500,10.7418525390625,-0.2880096435546875,-0.282318115234375,1.659271240234375
1739920585189835500,10.75183544921875,-0.3087921142578125,-0.2933807373046875,1.617584228515625
1739920585199817700,10.761817626953125,-0.3284912109375,-0.3094024658203125,1.6154632568359375
1739920585209799400,10.77179931640625,-0.2921600341796875,-0.3106231689453125,1.651031494140625
1739920585219782700,10.78178271484375,-0.249114990234375,-0.31158447265625,1.6773834228515625
1739920585229764600,10.7917646484375,-0.287078857421875,-0.3124847412109375,1.682281494140625
1739920585239746600,10.80174658203125,-0.3768157958984375,-0.3531494140625,1.661285400390625
1739920585249728800,10.811728759765625,-0.4263458251953125,-0.4550323486328125,1.60528564453125
1739920585259711500,10.82171142578125,-0.4305419921875,-0.5751953125,1.625457763671875
1739920585269693700,10.831693603515625,-0.389068603515625,-0.690887451171875,1.717864990234375
1739920585279675400,10.84167529296875,-0.3173675537109375,-0.785858154296875,1.8365936279296875
1739920585289658600,10.85165869140625,-0.24542236328125,-0.8275909423828125,1.9447021484375
1739920585299640600,10.861640625,-0.17108154296875,-0.808319091796875,1.9934844970703125
1739920585309622500,10.87162255859375,-0.124237060546875,-0.72119140625,1.9656829833984375
1739920585319604700,10.881604736328125,-0.1148681640625,-0.5525970458984375,1.9421844482421875
1739920585329587700,10.891587646484375,-0.1345977783203125,-0.3730926513671875,1.9353485107421875
1739920585339569700,10.901569580078124,-0.1503753662109375,-0.206298828125,1.9232177734375
1739920585349551600,10.911551513671874,-0.1751708984375,-0.0661163330078125,1.9147491455078125
1739920585359533600,10.921533447265626,-0.226715087890625,0.0572662353515625,1.9290618896484375
1739920585369516500,10.9315166015625,-0.2630157470703125,0.1865386962890625,2.01373291015625
1739920585379498500,10.94149853515625,-0.276702880859375,0.3284454345703125,2.109405517578125
1739920585389480700,10.951480712890625,-0.2877349853515625,0.4560699462890625,2.164947509765625
1739920585399463700,10.961463623046875,-0.3104248046875,0.554351806640625,2.149566650390625
1739920585409445600,10.971445556640624,-0.3222198486328125,0.607330322265625,2.06622314453125
1739920585419427600,10.981427490234376,-0.3253631591796875,0.6344757080078125,1.981903076171875
1739920585429409500,10.991409423828125,-0.335723876953125,0.6437530517578125,1.8980865478515625
1739920585439392500,11.001392578125,-0.31671142578125,0.6282501220703125,1.80291748046875
1739920585449374700,11.011374755859375,-0.2460479736328125,0.6043701171875,1.7239990234375
1739920585459356700,11.021356689453125,-0.157196044921875,0.573699951171875,1.651458740234375
1739920585469338600,11.031338623046874,-0.081390380859375,0.547454833984375,1.5929412841796875
1739920585479321600,11.041321533203124,-0.0369873046875,0.5269012451171875,1.5510406494140625
1739920585489303600,11.051303466796876,-0.02490234375,0.500457763671875,1.5255889892578125
1739920585499285800,11.06128564453125,-0.0437774658203125,0.4860992431640625,1.5211639404296875
1739920585509268500,11.0712685546875,-0.0652008056640625,0.4910736083984375,1.532623291015625
1739920585519250700,11.081250732421875,-0.0772857666015625,0.49871826171875,1.5364990234375
1739920585529232400,11.091232421875,-0.083892822265625,0.519805908203125,1.532867431640625
1739920585539214600,11.101214599609374,-0.079315185546875,0.5369720458984375,1.521209716796875
1739920585549197600,11.111197509765624,-0.0725860595703125,0.554840087890625,1.4984588623046875
1739920585559179500,11.121179443359376,-0.063934326171875,0.58135986328125,1.4788970947265625
1739920585569161700,11.13116162109375,-0.0648956298828125,0.6012725830078125,1.45733642578125
1739920585579143400,11.141143310546875,-0.0728607177734375,0.6229095458984375,1.4283905029296875
1739920585589126700,11.151126708984375,-0.094085693359375,0.6401214599609375,1.3990478515625
1739920585599108600,11.161108642578125,-0.122772216796875,0.65313720703125,1.3726654052734375
1739920585609090600,11.171090576171874,-0.1550750732421875,0.6591339111328125,1.3427581787109375
1739920585619073000,11.181072998046876,-0.1841583251953125,0.6629791259765625,1.3408660888671875
1739920585629055000,11.191054931640625,-0.1744842529296875,0.6696014404296875,1.3609466552734375
1739920585639037000,11.201036865234375,-0.1515960693359375,0.6630401611328125,1.3535919189453125
1739920585649019000,11.211018798828125,-0.12225341796875,0.6677703857421875,1.3163299560546875
1739920585659002000,11.221002197265625,-0.0953521728515625,0.67120361328125,1.266326904296875
1739920585668984000,11.230984130859374,-0.0833892822265625,0.6795806884765625,1.1983489990234375
1739920585678966000,11.240966064453126,-0.0813751220703125,0.6875762939453125,1.1157684326171875
1739920585688949000,11.250948974609376,-0.077972412109375,0.68829345703125,1.0402984619140625
1739920585698931000,11.260930908203125,-0.0589752197265625,0.6945953369140625,0.9546051025390625
1739920585708913000,11.270912841796875,-0.0316619873046875,0.708984375,0.8504180908203125
1739920585718894800,11.280894775390625,0.00640869140625,0.71978759765625,0.7397308349609375
1739920585728878000,11.290878173828125,0.0560455322265625,0.736785888671875,0.6214141845703125
1739920585738859800,11.30085986328125,0.1060943603515625,0.7573699951171875,0.4994354248046875
1739920585748842000,11.310842041015626,0.1643829345703125,0.755462646484375,0.3767547607421875
1739920585758824000,11.320823974609375,0.22406005859375,0.7415008544921875,0.270782470703125
1739920585768807000,11.330806884765625,0.275726318359375,0.7214508056640625,0.196014404296875
1739920585778789000,11.3407890625,0.3019256591796875,0.6756591796875,0.146087646484375
1739920585788770800,11.350770751953124,0.3048095703125,0.6370849609375,0.1519012451171875
1739920585798754000,11.360754150390624,0.2755126953125,0.5989532470703125,0.1806793212890625
1739920585808735700,11.37073583984375,0.23419189453125,0.55657958984375,0.2062225341796875
1739920585818718000,11.380718017578126,0.20538330078125,0.523406982421875,0.2470245361328125
1739920585828700200,11.3907001953125,0.1865692138671875,0.4953155517578125,0.303436279296875
1739920585838683000,11.400682861328125,0.1712493896484375,0.4804534912109375,0.3734283447265625
1739920585848665000,11.4106650390625,0.160980224609375,0.4760284423828125,0.45819091796875
1739920585858646800,11.420646728515624,0.1546478271484375,0.47607421875,0.544921875
1739920585868629000,11.43062890625,0.1534881591796875,0.487701416015625,0.6356964111328125
1739920585878612000,11.440612060546876,0.1539764404296875,0.508880615234375,0.74407958984375
1739920585888594000,11.450593994140625,0.1515960693359375,0.528900146484375,0.861358642578125
1739920585898576100,11.460576171875,0.149688720703125,0.551727294921875,0.9814300537109375
1739920585908558800,11.470558837890625,0.1522064208984375,0.5694732666015625,1.096771240234375
1739920585918541000,11.480541015625,0.15771484375,0.5811004638671875,1.2034912109375
1739920585928523000,11.49052294921875,0.1713714599609375,0.5910797119140625,1.3040008544921875
1739920585938505000,11.5005048828125,0.1829833984375,0.59747314453125,1.39349365234375
1739920585948488000,11.510488037109376,0.1969451904296875,0.602325439453125,1.458465576171875
1739920585958470000,11.520469970703125,0.2051239013671875,0.6082305908203125,1.4937896728515625
1739920585968452000,11.5304521484375,0.1980133056640625,0.6169586181640625,1.5072479248046875
1739920585978433800,11.540433837890625,0.175872802734375,0.630401611328125,1.5167236328125
1739920585988417000,11.5504169921875,0.137054443359375,0.6462554931640625,1.5319976806640625
1739920585998399000,11.56039892578125,0.081634521484375,0.6611328125,1.5445098876953125
1739920586008381000,11.570380859375,0.019775390625,0.671295166015625,1.5581207275390625
1739920586018364000,11.580364013671876,-0.0417633056640625,0.670257568359375,1.5751800537109375
1739920586028346000,11.59034619140625,-0.097198486328125,0.6642913818359375,1.5916748046875
1739920586038327800,11.600327880859375,-0.14190673828125,0.6529998779296875,1.618682861328125
1739920586048310000,11.61031005859375,-0.17303466796875,0.635833740234375,1.6683349609375
1739920586058293000,11.62029296875,-0.1824188232421875,0.5995330810546875,1.7251434326171875
1739920586068275000,11.63027490234375,-0.16412353515625,0.5551300048828125,1.779693603515625
1739920586078257000,11.6402568359375,-0.130157470703125,0.509857177734375,1.8151397705078125
1739920586088239900,11.650239990234375,-0.1031951904296875,0.4645233154296875,1.8122406005859375
1739920586098222000,11.66022216796875,-0.0771331787109375,0.4105377197265625,1.79205322265625
1739920586108203800,11.670203857421875,-0.0406494140625,0.3690643310546875,1.7766876220703125
1739920586118186000,11.68018603515625,-0.002471923828125,0.3424072265625,1.754608154296875
1739920586128169000,11.6901689453125,0.0321502685546875,0.310302734375,1.7259063720703125
1739920586138151000,11.70015087890625,0.0618896484375,0.2836761474609375,1.6821136474609375
1739920586148133000,11.710133056640625,0.0648040771484375,0.263763427734375,1.6674652099609375
1739920586158115800,11.72011572265625,0.0565338134765625,0.2358551025390625,1.67230224609375
1739920586168098000,11.73009814453125,0.0341339111328125,0.206085205078125,1.673828125
1739920586178079700,11.740079833984375,-0.025970458984375,0.1770782470703125,1.6566162109375
1739920586188062000,11.75006201171875,-0.0677490234375,0.15594482421875,1.6656951904296875
1739920586198045000,11.760044921875,-0.0694580078125,0.12615966796875,1.6900482177734375
1739920586208027000,11.77002685546875,-0.025665283203125,0.1005706787109375,1.6972198486328125
1739920586218009000,11.780009033203125,-0.0003814697265625,0.0927734375,1.6866607666015625
1739920586227990800,11.78999072265625,-0.010772705078125,0.0760955810546875,1.67474365234375
1739920586237974000,11.79997412109375,-0.0518798828125,0.041046142578125,1.64990234375
1739920586247956000,11.8099560546875,-0.113525390625,-0.00811767578125,1.647064208984375
1739920586257938000,11.81993798828125,-0.1509246826171875,-0.0532684326171875,1.68133544921875
1739920586267921000,11.8299208984375,-0.1524658203125,-0.103912353515625,1.7263336181640625
1739920586277902800,11.83990283203125,-0.136749267578125,-0.1540679931640625,1.770599365234375
1739920586287885000,11.849885009765625,-0.1039581298828125,-0.1678314208984375,1.85699462890625
1739920586297867000,11.859866943359375,-0.0396728515625,-0.171630859375,1.946014404296875
1739920586307850000,11.86985009765625,-0.032684326171875,-0.2066650390625,1.981781005859375
1739920586317833000,11.8798330078125,-0.092987060546875,-0.2780609130859375,1.9394989013671875
1739920586327815200,11.889815185546874,-0.135955810546875,-0.359527587890625,1.8768310546875
1739920586337796900,11.899796875,-0.12969970703125,-0.4002685546875,1.8548126220703125
1739920586347779000,11.909779052734375,-0.1369781494140625,-0.4319305419921875,1.8390960693359375
1739920586357761800,11.91976171875,-0.139678955078125,-0.471771240234375,1.7655487060546875
1739920586367744000,11.929743896484375,-0.113494873046875,-0.43023681640625,1.7165679931640625
1739920586377726000,11.939725830078125,-0.0627288818359375,-0.3557891845703125,1.664520263671875
1739920586387709000,11.949708984375,-0.026519775390625,-0.2760162353515625,1.5941314697265625
1739920586397691100,11.959691162109374,0.0107574462890625,-0.1846466064453125,1.5377197265625
1739920586407672800,11.9696728515625,0.0416412353515625,-0.0726776123046875,1.52001953125
1739920586417655000,11.979655029296875,0.065673828125,0.0583648681640625,1.572662353515625
1739920586427638000,11.989637939453125,0.0805206298828125,0.1961517333984375,1.6532745361328125
1739920586437620000,11.999619873046875,0.085174560546875,0.3199615478515625,1.72393798828125
1739920586447602000,12.009601806640624,0.07366943359375,0.41656494140625,1.760223388671875
1739920586457583900,12.019583984375,0.0449981689453125,0.489898681640625,1.791717529296875
1739920586467566800,12.02956689453125,0.008331298828125,0.5447235107421875,1.8368377685546875
1739920586477549000,12.039549072265626,-0.01251220703125,0.580657958984375,1.8715972900390625
1739920586487531000,12.049531005859375,-0.018280029296875,0.5929107666015625,1.8803863525390625
1739920586497514000,12.059513916015625,-0.0007781982421875,0.5802459716796875,1.8779449462890625
1739920586507496000,12.069495849609375,0.0768585205078125,0.578826904296875,1.8533935546875
1739920586517478000,12.079477783203124,0.16497802734375,0.57904052734375,1.7794647216796875
1739920586527459800,12.0894599609375,0.252777099609375,0.5563507080078125,1.6720733642578125
1739920586537442800,12.09944287109375,0.3169708251953125,0.529083251953125,1.5604400634765625
1739920586547425000,12.109425048828125,0.3158111572265625,0.5067138671875,1.4607391357421875
1739920586557407000,12.119406982421875,0.2729339599609375,0.484893798828125,1.398956298828125
1739920586567390000,12.129389892578125,0.215606689453125,0.4697723388671875,1.386322021484375
1739920586577372200,12.1393720703125,0.142578125,0.4686279296875,1.4093780517578125
1739920586587353900,12.149353759765624,0.0775299072265625,0.473785400390625,1.42498779296875
1739920586597336000,12.159336181640626,0.036895751953125,0.4885406494140625,1.4255218505859375
1739920586607318800,12.16931884765625,0.01312255859375,0.5041656494140625,1.4198760986328125
1739920586617301000,12.179301025390625,0.003326416015625,0.5299530029296875,1.418060302734375
1739920586627283000,12.189282958984375,0.010101318359375,0.5581207275390625,1.405120849609375
1739920586637265000,12.199264892578125,0.0187530517578125,0.58526611328125,1.3964385986328125
1739920586647248100,12.209248046875,0.0265350341796875,0.61151123046875,1.411163330078125
1739920586657229800,12.219229736328124,0.035064697265625,0.6414337158203125,1.4122467041015625
1739920586667212000,12.2292119140625,0.0364837646484375,0.6502838134765625,1.3952484130859375
1739920586677194000,12.239194091796875,0.0391998291015625,0.659515380859375,1.3710479736328125
1739920586687176000,12.249176025390625,0.0311126708984375,0.6720123291015625,1.3542938232421875
1739920586697159200,12.2591591796875,0.0064697265625,0.6777496337890625,1.3283843994140625
1739920586707140900,12.269140869140625,-0.023590087890625,0.671844482421875,1.2974700927734375
1739920586717123000,12.279123046875,-0.044830322265625,0.66839599609375,1.2667999267578125
1739920586727105000,12.28910498046875,-0.0652618408203125,0.65899658203125,1.2351531982421875
1739920586737088000,12.299087890625,-0.078155517578125,0.6580810546875,1.2140655517578125
1739920586747070000,12.309070068359375,-0.0789337158203125,0.66363525390625,1.1894378662109375
1739920586757052000,12.319052001953125,-0.0684356689453125,0.6712493896484375,1.1436309814453125
1739920586767035000,12.329034912109375,-0.0598297119140625,0.6840972900390625,1.0920257568359375
1739920586777016800,12.339016845703124,-0.0607452392578125,0.6929473876953125,1.027313232421875
1739920586786999000,12.3489990234375,-0.0512542724609375,0.6954803466796875,0.942840576171875
1739920586796980700,12.358980712890625,-0.0353851318359375,0.6890869140625,0.850341796875
1739920586806964000,12.3689638671875,-0.0203704833984375,0.6796417236328125,0.7495880126953125
1739920586816946000,12.37894580078125,-0.004974365234375,0.6618194580078125,0.6453399658203125
1739920586826927900,12.388927978515625,0.0247039794921875,0.6555328369140625,0.5492095947265625
1739920586836910800,12.398910888671875,0.0652008056640625,0.664581298828125,0.4745330810546875
1739920586846893000,12.40889306640625,0.10162353515625,0.6721954345703125,0.4017181396484375
1739920586856875000,12.418875,0.121063232421875,0.6654052734375,0.3223876953125
1739920586866857000,12.42885693359375,0.1248321533203125,0.6511993408203125,0.2479095458984375
1739920586876840000,12.43883984375,0.1245269775390625,0.6330413818359375,0.199493408203125
1739920586886822000,12.44882177734375,0.1227264404296875,0.624114990234375,0.1809234619140625
1739920586896803800,12.458803955078125,0.11163330078125,0.63116455078125,0.1714630126953125
1739920586906786000,12.4687861328125,0.1231842041015625,0.6310272216796875,0.135589599609375
1739920586916769000,12.47876904296875,0.1079254150390625,0.6290740966796875,0.10400390625
1739920586926751000,12.4887509765625,0.0948028564453125,0.6133575439453125,0.130157470703125
1739920586936733000,12.49873291015625,0.082916259765625,0.60052490234375,0.2111663818359375
1739920586946716200,12.508716064453125,0.0849151611328125,0.589141845703125,0.345733642578125
1739920586956697900,12.51869775390625,0.06396484375,0.574249267578125,0.542327880859375
1739920586966680000,12.52868017578125,0.0337982177734375,0.55657958984375,0.777557373046875
1739920586976662000,12.538662109375,0.032379150390625,0.550323486328125,1.00909423828125
1739920586986645000,12.54864501953125,0.01055908203125,0.5693359375,1.2230987548828125
1739920586996627000,12.558626953125,0.017578125,0.581207275390625,1.383392333984375
1739920587006609000,12.56860888671875,0.04327392578125,0.582366943359375,1.4944915771484375
1739920587016592100,12.578592041015625,0.078948974609375,0.578094482421875,1.5621185302734375
1739920587026573800,12.58857373046875,0.103515625,0.5842132568359375,1.6139678955078125
1739920587036556000,12.59855615234375,0.106597900390625,0.601898193359375,1.674041748046875
1739920587046538000,12.6085380859375,0.095458984375,0.620391845703125,1.7439117431640625
1739920587056521000,12.61852099609375,0.079559326171875,0.6448822021484375,1.83416748046875
1739920587066503200,12.628503173828125,0.0559234619140625,0.6625823974609375,1.927947998046875
1739920587076484900,12.63848486328125,0.011444091796875,0.65216064453125,1.9850311279296875
1739920587086468000,12.648468017578125,-0.0343017578125,0.613006591796875,1.9962921142578125
1739920587096449800,12.65844970703125,-0.0836029052734375,0.5727691650390625,1.9928741455078125
1739920587106432000,12.668431884765624,-0.1137237548828125,0.514739990234375,1.956939697265625
1739920587116414000,12.6784140625,-0.1138153076171875,0.4404296875,1.8919677734375
1739920587126397000,12.68839697265625,-0.1013946533203125,0.3764801025390625,1.836090087890625
1739920587136379000,12.69837890625,-0.086395263671875,0.3246307373046875,1.7891845703125
1739920587146360800,12.70836083984375,-0.0840606689453125,0.267120361328125,1.7493133544921875
1739920587156344000,12.718343994140625,-0.08984375,0.21026611328125,1.6864166259765625
1739920587166326000,12.728325927734375,-0.090087890625,0.1616058349609375,1.6287078857421875
1739920587176308000,12.738307861328124,-0.0624237060546875,0.1148834228515625,1.591278076171875
1739920587186290000,12.7482900390625,-0.0373687744140625,0.0858917236328125,1.5510406494140625
1739920587196273000,12.75827294921875,-0.039520263671875,0.056915283203125,1.5035552978515625
1739920587206254800,12.7682548828125,-0.04656982421875,0.012786865234375,1.4592132568359375
1739920587216237000,12.778237060546875,-0.047027587890625,-0.0242156982421875,1.41571044921875
1739920587226219800,12.7882197265625,-0.0249481201171875,-0.056915283203125,1.4024810791015625
1739920587236202000,12.798201904296874,0.0341644287109375,-0.0850067138671875,1.3880157470703125
1739920587246184000,12.808183837890626,0.0943145751953125,-0.1016998291015625,1.3386688232421875
1739920587256166000,12.818165771484376,0.1392822265625,-0.1123046875,1.286224365234375
1739920587266149000,12.828149169921875,0.19732666015625,-0.108612060546875,1.2518463134765625
1739920587276130800,12.838130859375,0.25762939453125,-0.1093292236328125,1.2155914306640625
1739920587286113000,12.848113037109375,0.29595947265625,-0.131683349609375,1.1852264404296875
1739920587296095700,12.858095703125,0.3331451416015625,-0.1297607421875,1.173370361328125
1739920587306078000,12.868077880859374,0.3394927978515625,-0.104888916015625,1.1470489501953125
1739920587316060200,12.87806005859375,0.3064727783203125,-0.10369873046875,1.1246337890625
1739920587326041900,12.888041748046875,0.269683837890625,-0.0927581787109375,1.1535797119140625
1739920587336025000,12.898025146484375,0.217926025390625,-0.0479888916015625,1.250152587890625
1739920587346006800,12.9080068359375,0.148681640625,-0.0220947265625,1.3300323486328125
1739920587355989000,12.917989013671875,0.063385009765625,-0.0410919189453125,1.380096435546875
1739920587365971000,12.927970947265624,0.0055999755859375,-0.0683441162109375,1.4413604736328125
1739920587375954000,12.937953857421874,-0.0062255859375,-0.08990478515625,1.5193634033203125
1739920587385936100,12.94793603515625,-0.0033721923828125,-0.1070556640625,1.6150054931640625
1739920587395917800,12.957917724609375,0.0112762451171875,-0.1041107177734375,1.711883544921875
1739920587405901000,12.967901123046875,0.019622802734375,-0.10113525390625,1.8000946044921875
1739920587415883000,12.977883056640625,0.0048675537109375,-0.1236114501953125,1.8493194580078125
1739920587425865000,12.987864990234375,-0.0265960693359375,-0.156524658203125,1.883026123046875
1739920587435847200,12.99784716796875,-0.0587158203125,-0.187225341796875,1.907257080078125
1739920587445830000,13.007829833984376,-0.083709716796875,-0.210784912109375,1.9213104248046875
