time,seconds_elapsed,z,y,x
1739920574473912800,0.035912841796875,-0.7979147434234619,0.8522543907165527,1.3893141746520996
1739920574483894800,0.045894775390625,-0.7730435132980347,0.783856987953186,1.7863390445709229
1739920574493877000,0.055876953125,-0.7015032768249512,0.6449877619743347,2.1190989017486572
1739920574503858700,0.065858642578125,-0.6121166348457336,0.6556007266044617,2.3731257915496826
1739920574513841000,0.0758408203125,-0.48172828555107117,0.8737727403640747,2.3841817378997803
1739920574523822800,0.08582275390625,-0.3948855400085449,1.6350866556167603,1.682719349861145
1739920574533805800,0.095805908203125,-0.5068522691726685,2.1707684993743896,1.1039226055145264
1739920574543788000,0.1057880859375,-0.6635076999664307,1.913204312324524,1.1183955669403076
1739920574553769700,0.115769775390625,-0.767650842666626,1.333924412727356,1.3630270957946777
1739920574563752000,0.125751953125,-0.7507531046867371,0.7556139230728149,1.4980754852294922
1739920574573734000,0.13573388671875,-0.7058876156806946,0.2616497278213501,1.535659670829773
1739920574583715800,0.1457158203125,-0.6273089051246643,0.08388850837945938,1.5151889324188232
1739920574593699000,0.155698974609375,-0.4705938696861267,0.21383452415466309,1.448778748512268
1739920574603680300,0.16568017578125,-0.24033910036087036,0.23526684939861298,1.2190539836883545
1739920574613662200,0.175662109375,-0.09754493087530136,0.2424355447292328,0.8289291262626648
1739920574623644400,0.18564453125,-0.0677604079246521,0.11263760179281235,0.48168566823005676
1739920574633626000,0.195626220703125,-0.07783674448728561,-0.1982494443655014,0.21465212106704712
1739920574643608300,0.2056083984375,-0.08012545853853226,-0.5003496408462524,-0.06277070939540863
1739920574653591300,0.21559130859375,-0.09725624322891235,-0.641823947429657,-0.41951045393943787
1739920574663573200,0.2255732421875,-0.193482905626297,-0.5831094980239868,-0.8325648903846741
1739920574673555500,0.235555419921875,-0.3511015772819519,-0.36872556805610657,-1.1857995986938477
1739920574683537200,0.245537109375,-0.4798787236213684,-0.0033342777751386166,-1.4143733978271484
1739920574693519400,0.255519287109375,-0.46487340331077576,0.866204559803009,-1.485093116760254
1739920574703501300,0.265501220703125,-0.2119780331850052,1.5162100791931152,-1.6435818672180176
1739920574713484300,0.275484375,0.05169728398323059,-0.06151129677891731,-2.109205961227417
1739920574723466500,0.285466552734375,0.01841815561056137,-2.0602264404296875,-2.1052017211914062
1739920574733448200,0.2954482421875,-0.32980161905288696,-3.1608059406280518,-1.8788617849349976
1739920574743430400,0.305430419921875,-0.6235600113868713,-3.5749340057373047,-1.4877691268920898
1739920574753412400,0.315412353515625,-0.6858758330345154,-3.101745843887329,-1.1351910829544067
1739920574763395300,0.325395263671875,-0.5967906713485718,-2.0907044410705566,-0.9091389775276184
1739920574773377500,0.33537744140625,-0.5348631143569946,-1.0135778188705444,-0.7386237382888794
1739920574783359200,0.345359130859375,-0.6190549731254578,-0.06365567445755005,-0.5477520227432251
1739920574793341400,0.355341552734375,-0.7635578513145447,1.013176441192627,-0.2755471467971802
1739920574803323400,0.365323486328125,-0.8292215466499329,2.098081350326538,-0.06247642636299133
1739920574813305300,0.375305419921875,-0.6600434184074402,2.9823498725891113,-0.02870781160891056
1739920574823288300,0.385288330078125,-0.16694504022598267,3.2814810276031494,-0.08015981316566467
1739920574833270300,0.395270263671875,0.36979907751083374,3.243386745452881,-0.08438704907894135
1739920574843252500,0.40525244140625,0.6974427103996277,3.237823247909546,-0.20909756422042847
1739920574853234200,0.415234130859375,0.9443801045417786,2.9663963317871094,-0.5401263236999512
1739920574863216400,0.42521630859375,0.9948640465736389,2.8648033142089844,-1.0359320640563965
1739920574873198300,0.4351982421875,0.852300226688385,1.3398836851119995,-1.0200802087783813
1739920574883181300,0.445181396484375,0.6735329031944275,1.0658644437789917,-0.9246436357498169
1739920574893163500,0.45516357421875,0.7016007304191589,1.6065466403961182,-0.8573607802391052
1739920574903145200,0.465145263671875,0.9865829348564148,2.405344247817993,-0.6568452715873718
1739920574913127400,0.47512744140625,1.356811285018921,3.156806468963623,-0.35108453035354614
1739920574923109400,0.485109375,1.5601950883865356,3.727652072906494,-0.17430655658245087
1739920574933092400,0.49509228515625,1.5981619358062744,4.000887870788574,-0.33443737030029297
1739920574943074300,0.50507421875,1.6487022638320923,3.9416842460632324,-0.6636685132980347
1739920574953056300,0.51505615234375,1.7848840951919556,3.9138100147247314,-1.0209150314331055
1739920574963038500,0.52503857421875,1.9307843446731567,3.9055087566375732,-1.3119714260101318
1739920574973020400,0.5350205078125,2.0411126613616943,3.88952898979187,-1.4968267679214478
1739920574983002400,0.54500244140625,2.118058443069458,3.7185792922973633,-1.5234348773956299
1739920574992985300,0.5549853515625,2.1551742553710938,3.4895896911621094,-1.377875804901123
1739920575002967300,0.56496728515625,2.187570810317993,3.2159299850463867,-1.0953781604766846
1739920575012949200,0.57494921875,2.239029884338379,2.671736240386963,-0.7602768540382385
1739920575022931500,0.584931396484375,2.2508552074432373,1.9726039171218872,-0.6216912269592285
1739920575032913400,0.594913330078125,2.056997060775757,1.3689161539077759,-1.0644463300704956
1739920575042895400,0.604895263671875,1.724244236946106,1.2043339014053345,-1.5894973278045654
1739920575052878300,0.61487841796875,1.3156883716583252,0.9171484708786011,-1.946151852607727
1739920575062860300,0.6248603515625,0.8249988555908203,0.5823885798454285,-2.120021343231201
1739920575072842200,0.63484228515625,0.1835021823644638,0.22499822080135345,-2.046891212463379
1739920575082824200,0.64482421875,-0.5320956110954285,0.07231467962265015,-1.7303617000579834
1739920575092806400,0.654806396484375,-1.0752172470092773,0.11417371034622192,-1.3494197130203247
1739920575102789400,0.664789306640625,-1.366226077079773,0.02088850364089012,-0.945996105670929
1739920575112771300,0.674771240234375,-1.4198070764541626,-0.052076783031225204,-0.6228252053260803
1739920575122753300,0.684753173828125,-1.3048229217529297,-0.03146285191178322,-0.4323650002479553
1739920575132735200,0.6947353515625,-1.0709964036941528,0.05258704349398613,-0.36891838908195496
1739920575142717400,0.704717529296875,-0.7824732065200806,0.18239085376262665,-0.3916143774986267
1739920575152699100,0.71469921875,-0.4940624535083771,0.3490711748600006,-0.39926669001579285
1739920575162682400,0.724682373046875,-0.18148191273212433,0.7728275060653687,-0.4009445011615753
1739920575172664300,0.734664306640625,0.14217738807201385,1.4650110006332397,-0.3889719843864441
1739920575182646300,0.744646240234375,0.3148793876171112,2.6251349449157715,-0.4213608205318451
1739920575192628500,0.75462841796875,0.1803455352783203,3.738997459411621,-0.47799426317214966
1739920575202610200,0.764610107421875,-0.23516590893268585,4.609748363494873,-0.5281215906143188
1739920575212593400,0.774593505859375,-0.8865604400634766,4.930729866027832,-0.6049474477767944
1739920575222575400,0.784575439453125,-1.4502406120300293,4.492294788360596,-0.8578659892082214
1739920575232557300,0.794557373046875,-1.8489986658096313,3.602661371231079,-1.357994794845581
1739920575242539500,0.80453955078125,-2.1378014087677,2.6060948371887207,-1.9009207487106323
1739920575252521200,0.814521240234375,-2.340344190597534,1.7488791942596436,-2.3464574813842773
1739920575262503400,0.82450341796875,-2.49953293800354,1.3017033338546753,-2.59954571723938
1739920575272486400,0.834486328125,-2.5822439193725586,1.2078239917755127,-2.7009518146514893
1739920575282468400,0.84446826171875,-2.643684148788452,1.0592323541641235,-2.6957335472106934
1739920575292450300,0.8544501953125,-2.6623337268829346,0.9592264294624329,-2.6648025512695312
1739920575302432300,0.864432373046875,-2.595323085784912,0.9894514083862305,-2.662569046020508
1739920575312414500,0.87441455078125,-2.4870798587799072,1.0893702507019043,-2.7896411418914795
1739920575322397200,0.884397216796875,-2.35732364654541,1.2336361408233643,-3.0378873348236084
1739920575332379400,0.89437939453125,-2.2945668697357178,1.2899107933044434,-3.3051719665527344
1739920575342361300,0.904361328125,-2.3099308013916016,1.271988034248352,-3.5232834815979004
1739920575352343300,0.91434326171875,-2.3101449012756348,1.1863932609558105,-3.7007269859313965
1739920575362325500,0.924325439453125,-2.2563443183898926,1.05307936668396,-3.860556125640869
1739920575372308200,0.93430810546875,-2.127267360687256,0.8422084450721741,-3.993501901626587
1739920575382290400,0.94429052734375,-2.0292232036590576,0.5833745002746582,-4.095479965209961
1739920575392272100,0.954272216796875,-1.9467259645462036,0.3142833709716797,-4.201096057891846
1739920575402254300,0.96425439453125,-1.799574613571167,0.13179610669612885,-4.3113627433776855
1739920575412236500,0.974236572265625,-1.6253939867019653,0.16175907850265503,-4.397322654724121
1739920575422218200,0.98421826171875,-1.4770573377609253,0.324839323759079,-4.419004917144775
1739920575432201500,0.994201416015625,-1.3683891296386719,0.47558915615081787,-4.31880521774292
1739920575442183200,1.00418310546875,-1.3339779376983643,0.5025760531425476,-4.085549354553223
1739920575452165400,1.014165283203125,-1.3125118017196655,0.3593754768371582,-3.759291887283325
1739920575462147300,1.024147216796875,-1.2699024677276611,0.2056194692850113,-3.4111557006835938
1739920575472129300,1.03412939453125,-1.1857341527938843,0.17166149616241455,-3.0889458656311035
1739920575482112500,1.044112548828125,-1.061283826828003,0.2300395965576172,-2.757793664932251
1739920575492094200,1.05409423828125,-0.934123158454895,0.2139413207769394,-2.3738720417022705
1739920575502076400,1.064076416015625,-0.7802361249923706,0.09339652955532074,-1.9790031909942627
1739920575512058400,1.074058349609375,-0.5917336344718933,-0.017490576952695847,-1.6142233610153198
1739920575522040300,1.084040283203125,-0.35959145426750183,-0.12700748443603516,-1.2852224111557007
1739920575532022300,1.094022216796875,-0.08276305347681046,-0.23065611720085144,-0.9418660402297974
1739920575542005200,1.104005126953125,0.1750115007162094,-0.36865711212158203,-0.5625357627868652
1739920575551987500,1.113987548828125,0.4141300618648529,-0.17693082988262177,-0.1560865342617035
1739920575561969400,1.123969482421875,0.6340067982673645,-0.0377335287630558,0.34297627210617065
1739920575571951400,1.133951416015625,0.8213063478469849,0.10297884792089462,0.8319065570831299
1739920575581933300,1.143933349609375,0.993292510509491,0.3736439049243927,1.2046681642532349
1739920575591916300,1.153916259765625,1.1626375913619995,0.6800339221954346,1.470808982849121
1739920575601898500,1.1638984375,1.2946834564208984,0.8089373111724854,1.6392179727554321
1739920575611880400,1.17388037109375,1.3339440822601318,0.7195972800254822,1.6771094799041748
1739920575621862700,1.183862548828125,1.3085469007492065,0.6087954044342041,1.572439432144165
1739920575631844600,1.1938447265625,1.2044020891189575,0.2508452832698822,1.350217580795288
1739920575641827600,1.20382763671875,1.1061559915542603,-0.31515875458717346,1.047318935394287
1739920575651809800,1.213809814453125,1.0030090808868408,-0.6899256706237793,0.7098996639251709
1739920575661791500,1.22379150390625,0.9024491310119629,-1.0248461961746216,0.5279437303543091
1739920575671773700,1.233773681640625,0.8864880204200745,-1.4048899412155151,0.5531087517738342
1739920575681755600,1.243755615234375,0.973121166229248,-1.6413620710372925,0.7697044014930725
1739920575691737600,1.253737548828125,1.1505262851715088,-1.7472387552261353,1.1975300312042236
1739920575701720800,1.263720947265625,1.3283655643463135,-1.6688834428787231,1.7765636444091797
1739920575711702500,1.27370263671875,1.4431520700454712,-1.4375014305114746,2.430713653564453
1739920575721684700,1.283684814453125,1.5055227279663086,-1.1913728713989258,3.05167293548584
1739920575731666700,1.293666748046875,1.5625849962234497,-0.9931239485740662,3.5089173316955566
1739920575741648600,1.303648681640625,1.616512656211853,-0.9354220032691956,3.795515537261963
1739920575751631600,1.313631591796875,1.6183571815490723,-1.023102045059204,3.993852138519287
1739920575761613600,1.323613525390625,1.6049891710281372,-1.1268510818481445,4.131196975708008
1739920575771595800,1.333595703125,1.5662343502044678,-1.1460700035095215,4.200549602508545
1739920575781577500,1.343577392578125,1.467809796333313,-1.1089540719985962,4.203301906585693
1739920575791559700,1.3535595703125,1.422014594078064,-0.9919664859771729,4.151733875274658
1739920575801542400,1.36354248046875,1.406251072883606,-0.87397301197052,4.09515905380249
1739920575811524600,1.373524658203125,1.3889812231063843,-0.7557324171066284,4.027459144592285
1739920575821506800,1.3835068359375,1.3730987310409546,-0.7880163192749023,3.957994222640991
1739920575831488500,1.393488525390625,1.3937169313430786,-0.9839216470718384,3.859041213989258
1739920575841470700,1.403470703125,1.490987777709961,-1.2342803478240967,3.7352631092071533
1739920575851453400,1.413453369140625,1.6481976509094238,-1.3863564729690552,3.6042160987854004
1739920575861435600,1.423435546875,1.8665834665298462,-1.3151259422302246,3.4679269790649414
1739920575871417600,1.43341748046875,2.12343168258667,-1.109944224357605,3.3223633766174316
1739920575881399600,1.443399658203125,2.307098150253296,-1.0125542879104614,3.1252636909484863
1739920575891381800,1.4533818359375,2.370023250579834,-0.8312676548957825,2.9047811031341553
1739920575901363700,1.46336376953125,2.3707196712493896,-0.5306503176689148,2.70867919921875
1739920575911346700,1.4733466796875,2.3576619625091553,-0.2501416504383087,2.5612053871154785
1739920575921328600,1.48332861328125,2.315669059753418,-0.04915636032819748,2.4586169719696045
1739920575931310600,1.493310546875,2.262415885925293,0.10562549531459808,2.37709379196167
1739920575941292500,1.50329248046875,2.209155559539795,0.29141026735305786,2.3485586643218994
1739920575951274800,1.513274658203125,2.135263442993164,0.5785024762153625,2.3825302124023438
1739920575961257700,1.5232578125,2.0364255905151367,0.9677813053131104,2.4584481716156006
1739920575971239700,1.53323974609375,1.9040884971618652,1.3808828592300415,2.5256948471069336
1739920575981221600,1.5432216796875,1.7931076288223267,1.7064987421035767,2.526365041732788
1739920575991203600,1.55320361328125,1.749589443206787,1.8591899871826172,2.4420201778411865
1739920576001185500,1.563185546875,1.7588543891906738,1.7827203273773193,2.2942724227905273
1739920576011168800,1.573168701171875,1.7517919540405273,1.6355491876602173,2.1565229892730713
1739920576021150500,1.583150390625,1.6804375648498535,1.4762612581253052,2.0948071479797363
1739920576031132700,1.593132568359375,1.5555260181427002,1.3364166021347046,2.110523223876953
1739920576041114600,1.603114501953125,1.3816285133361816,1.3201441764831543,2.1834158897399902
1739920576051096600,1.6130966796875,1.173205018043518,1.4167872667312622,2.2989094257354736
1739920576061078500,1.62307861328125,0.974090576171875,1.5935002565383911,2.4242899417877197
1739920576071061500,1.6330615234375,0.8508522510528564,1.8076080083847046,2.5167746543884277
1739920576081043700,1.643043701171875,0.8602747917175293,2.056884765625,2.5632519721984863
1739920576091025700,1.653025634765625,0.859408974647522,2.2361180782318115,2.5657761096954346
1739920576101007600,1.663007568359375,0.7954071164131165,2.333188533782959,2.4555838108062744
1739920576110990600,1.672990478515625,0.6738282442092896,2.3951807022094727,2.210024118423462
1739920576120972500,1.68297265625,0.47958365082740784,2.3670196533203125,1.8251471519470215
1739920576130954800,1.692954833984375,0.2143181562423706,2.2765021324157715,1.3251700401306152
1739920576140936700,1.702936767578125,-0.13324247300624847,2.106632947921753,0.807332456111908
1739920576150918700,1.712918701171875,-0.4818499982357025,1.766107201576233,0.3344171345233917
1739920576160900600,1.722900634765625,-0.8120172619819641,1.3267165422439575,-0.07861198484897614
1739920576170883600,1.732883544921875,-1.0800942182540894,0.986118733882904,-0.4033653140068054
1739920576180865500,1.742865478515625,-1.2851152420043945,0.6559783816337585,-0.6315316557884216
1739920576190847700,1.75284765625,-1.4342880249023438,0.3759091794490814,-0.8040131330490112
1739920576200829700,1.76282958984375,-1.5433319807052612,0.14426423609256744,-0.9196302890777588
1739920576210811600,1.772811767578125,-1.628989815711975,-0.03494653105735779,-0.9868202209472656
1739920576220794600,1.782794677734375,-1.7157855033874512,-0.11460061371326447,-1.0309640169143677
1739920576230776600,1.792776611328125,-1.803236722946167,-0.13275671005249023,-1.0398775339126587
1739920576240758800,1.8027587890625,-1.869940161705017,-0.11343415081501007,-1.0160430669784546
1739920576250740500,1.812740478515625,-1.8211957216262817,0.10833313316106796,-1.017565369606018
1739920576260722700,1.82272265625,-1.8918728828430176,0.07612752169370651,-0.9515637159347534
1739920576270705700,1.83270556640625,-2.0379631519317627,0.12841975688934326,-0.8587682247161865
1739920576280687600,1.8426875,-2.1584622859954834,0.32459378242492676,-0.7437180876731873
1739920576290669600,1.852669677734375,-2.2532451152801514,0.29784128069877625,-0.5678445100784302
1739920576300651500,1.862651611328125,-2.3519866466522217,0.18041372299194336,-0.3832200765609741
1739920576310633700,1.8726337890625,-2.46439266204834,0.13419827818870544,-0.23910072445869446
1739920576320616700,1.88261669921875,-2.582836627960205,0.08664887398481369,-0.11926540732383728
1739920576330598700,1.8925986328125,-2.7087841033935547,0.044503018260002136,-0.03639742359519005
1739920576340580600,1.90258056640625,-2.8554117679595947,0.03157656639814377,-0.027105653658509254
1739920576350562600,1.9125625,-2.992276668548584,0.03169374540448189,-0.10544333606958389
1739920576360544800,1.922544677734375,-3.1133885383605957,0.052672531455755234,-0.25257498025894165
1739920576370526500,1.9325263671875,-3.2282965183258057,0.09223432093858719,-0.4187738299369812
1739920576380509700,1.942509765625,-3.331562042236328,0.13583560287952423,-0.5675079226493835
1739920576390491600,1.95249169921875,-3.416799783706665,0.18414214253425598,-0.7010811567306519
1739920576400473600,1.9624736328125,-3.4855740070343018,0.24070902168750763,-0.7989296913146973
1739920576410455800,1.972455810546875,-3.542490005493164,0.2786124646663666,-0.8455587029457092
1739920576420437500,1.9824375,-3.6239871978759766,0.28891515731811523,-0.8627419471740723
1739920576430420700,1.992420654296875,-3.741964817047119,0.29425907135009766,-0.8725282549858093
1739920576440402400,2.00240234375,-3.925445318222046,0.2532801926136017,-0.9059730172157288
1739920576450384600,2.012384521484375,-4.146923065185547,0.1904357224702835,-0.9963018894195557
1739920576460366800,2.022366943359375,-4.358108043670654,0.16786277294158936,-1.15118408203125
1739920576470348500,2.0323486328125,-4.502739429473877,0.19582116603851318,-1.3233386278152466
1739920576480331800,2.042331787109375,-4.557828426361084,0.15885382890701294,-1.4550106525421143
1739920576490313500,2.0523134765625,-4.518824100494385,0.018620822578668594,-1.517153024673462
1739920576500295700,2.062295654296875,-4.347768306732178,-0.26934999227523804,-1.5288057327270508
1739920576510277600,2.072277587890625,-4.133313179016113,-0.6990773677825928,-1.5386117696762085
1739920576520259600,2.082259521484375,-3.9724361896514893,-1.129870057106018,-1.5620038509368896
1739920576530242600,2.09224267578125,-3.895524263381958,-1.4345929622650146,-1.5547409057617188
1739920576540224500,2.102224609375,-3.857649087905884,-1.605897307395935,-1.4468573331832886
1739920576550206700,2.112206787109375,-3.8504302501678467,-1.651787281036377,-1.2214138507843018
1739920576560188400,2.1221884765625,-3.8193416595458984,-1.6464016437530518,-0.9497607350349426
1739920576570170600,2.132170654296875,-3.7655115127563477,-1.586826205253601,-0.5941387414932251
1739920576580153600,2.142153564453125,-3.621701955795288,-1.556736707687378,-0.16213271021842957
1739920576590135600,2.152135498046875,-3.281973123550415,-1.6782692670822144,0.3171854019165039
1739920576600117800,2.16211767578125,-2.763477087020874,-1.8109023571014404,0.8028927445411682
1739920576610099200,2.17209912109375,-2.1497645378112793,-1.7947173118591309,1.2703100442886353
1739920576620081400,2.182081298828125,-1.5419121980667114,-1.4778951406478882,1.705346703529358
1739920576630064000,2.192064208984375,-0.998816967010498,-0.8546025156974792,2.100666046142578
1739920576640046300,2.20204638671875,-0.5223287343978882,-0.08241311460733414,2.4441146850585938
1739920576650028300,2.2120283203125,-0.11785206943750381,0.6051964163780212,2.7187092304229736
1739920576660010200,2.22201025390625,0.2512245178222656,1.1502221822738647,2.903402805328369
1739920576669992400,2.231992431640625,0.6355817914009094,1.6571767330169678,2.9835965633392334
1739920576679975200,2.24197509765625,0.9945974349975586,1.944835901260376,2.9331369400024414
1739920576689957400,2.251957275390625,1.289481520652771,2.0548434257507324,2.7502808570861816
1739920576699939300,2.261939208984375,1.4981682300567627,2.2015771865844727,2.433886766433716
1739920576709921300,2.27192138671875,1.5740575790405273,2.50993013381958,1.9008700847625732
1739920576719903200,2.2819033203125,1.5527774095535278,2.965881109237671,1.2002131938934326
1739920576729886200,2.29188623046875,1.5232902765274048,3.289724349975586,0.49810779094696045
1739920576739868400,2.301868408203125,1.6057803630828857,3.2504615783691406,-0.03622192144393921
1739920576749850400,2.311850341796875,1.8340274095535278,2.8503546714782715,-0.3711610436439514
1739920576759832300,2.321832275390625,2.1655030250549316,2.2970333099365234,-0.5189464688301086
1739920576769814300,2.331814208984375,2.518881320953369,1.7296570539474487,-0.5203198790550232
1739920576779797200,2.34179736328125,2.8707547187805176,1.3033092021942139,-0.41291993856430054
1739920576789779500,2.351779541015625,3.1946310997009277,1.0453290939331055,-0.22571834921836853
1739920576799761400,2.361761474609375,3.464810848236084,0.9170339703559875,0.005558283533900976
1739920576809743400,2.371743408203125,3.671816110610962,0.8392994999885559,0.2513062655925751
1739920576819725300,2.381725341796875,3.7996304035186768,0.7743667960166931,0.49678605794906616
1739920576829708300,2.391708251953125,3.8678629398345947,0.689561128616333,0.7037035822868347
1739920576839690500,2.4016904296875,3.9037344455718994,0.5718510150909424,0.8261567950248718
1739920576849672200,2.411672119140625,3.921542167663574,0.4774635136127472,0.8425520062446594
1739920576859654400,2.421654296875,3.932166814804077,0.400372177362442,0.7996098399162292
1739920576869636400,2.43163623046875,3.9364218711853027,0.3248603641986847,0.7464374303817749
1739920576879619300,2.441619384765625,3.935410737991333,0.2501373887062073,0.7252216339111328
1739920576889601300,2.451601318359375,3.930542230606079,0.1747710108757019,0.715351939201355
1739920576899583200,2.461583251953125,3.9334425926208496,0.11498676985502243,0.6907347440719604
1739920576909565400,2.4715654296875,3.9285011291503906,0.05548562854528427,0.6287773847579956
1739920576919547400,2.48154736328125,3.8961946964263916,-0.020052537322044373,0.5190130472183228
1739920576929530400,2.4915302734375,3.8394412994384766,-0.11989950388669968,0.39384981989860535
1739920576939512300,2.50151220703125,3.7665979862213135,-0.2503203749656677,0.27745771408081055
1739920576949494300,2.511494384765625,3.6954410076141357,-0.41192975640296936,0.1537083387374878
1739920576959476200,2.521476318359375,3.6328558921813965,-0.5774348378181458,0.006472280248999596
1739920576969458400,2.53145849609375,3.5721805095672607,-0.718489408493042,-0.18732035160064697
1739920576979441400,2.54144140625,3.5181870460510254,-0.8545458316802979,-0.4036902189254761
1739920576989423400,2.55142333984375,3.489715814590454,-0.9503610134124756,-0.6234270930290222
1739920576999405300,2.5614052734375,3.5120155811309814,-1.0499578714370728,-0.8387197256088257
1739920577009387300,2.57138720703125,3.5756654739379883,-1.1594144105911255,-1.0525907278060913
1739920577019369500,2.581369384765625,3.6369831562042236,-1.1856555938720703,-1.255082607269287
1739920577029352400,2.5913525390625,3.6132376194000244,-1.1636186838150024,-1.4093139171600342
1739920577039334400,2.60133447265625,3.488658905029297,-1.1232225894927979,-1.5064353942871094
1739920577049316400,2.61131640625,3.293936014175415,-1.1007875204086304,-1.5456398725509644
1739920577059298300,2.62129833984375,3.0599050521850586,-1.1096606254577637,-1.5358213186264038
1739920577069280500,2.631280517578125,2.8000328540802,-1.1180109977722168,-1.4886447191238403
1739920577079263500,2.641263427734375,2.5405728816986084,-1.1059024333953857,-1.4335402250289917
1739920577089245400,2.651245361328125,2.273085355758667,-1.0875643491744995,-1.3707932233810425
1739920577099227400,2.661227294921875,1.9700672626495361,-1.0521824359893799,-1.285497784614563
1739920577109209300,2.671209228515625,1.6381380558013916,-1.002625584602356,-1.1739437580108643
1739920577119191300,2.68119140625,1.315550446510315,-0.9820576906204224,-1.053228497505188
1739920577129174300,2.69117431640625,1.0465011596679688,-0.975803017616272,-0.896457850933075
1739920577139156200,2.70115625,0.8352493643760681,-0.9464746713638306,-0.7028161883354187
1739920577149138400,2.711138427734375,0.6541256308555603,-0.8410241603851318,-0.4653674364089966
1739920577159120400,2.721120361328125,0.4876921772956848,-0.6921781897544861,-0.17621125280857086
1739920577169102300,2.731102294921875,0.31965842843055725,-0.4986729025840759,0.15445321798324585
1739920577179085300,2.741085205078125,0.1499980241060257,-0.2479216605424881,0.5043190717697144
1739920577189067300,2.7510673828125,0.025620941072702408,0.058447062969207764,0.8479486107826233
1739920577199049200,2.76104931640625,-0.05672666057944298,0.3445848226547241,1.162063717842102
1739920577209031400,2.771031494140625,-0.14288285374641418,0.5036980509757996,1.4249517917633057
1739920577219014400,2.781014404296875,-0.24721591174602509,0.5993452072143555,1.6077386140823364
1739920577228996400,2.790996337890625,-0.40737202763557434,0.7681584358215332,1.7040408849716187
1739920577238978300,2.800978271484375,-0.6400180459022522,0.992620587348938,1.7382782697677612
1739920577248960300,2.810960205078125,-0.9024747014045715,1.1747808456420898,1.7419332265853882
1739920577258942500,2.8209423828125,-1.1171270608901978,1.232093095779419,1.723305106163025
1739920577268925400,2.830925537109375,-1.2489426136016846,1.2094231843948364,1.6503251791000366
1739920577278907400,2.840907470703125,-1.3051276206970215,1.1474703550338745,1.5179808139801025
1739920577288889300,2.850889404296875,-1.3307960033416748,1.016847848892212,1.3270633220672607
1739920577298871300,2.860871337890625,-1.380853533744812,0.8486080169677734,1.073099136352539
1739920577308853500,2.870853515625,-1.4820529222488403,0.6838893890380859,0.7697526216506958
1739920577318836500,2.88083642578125,-1.6314332485198975,0.5172860026359558,0.4483676552772522
1739920577328818400,2.890818359375,-1.8176265954971313,0.3684443533420563,0.13635438680648804
1739920577338800400,2.90080029296875,-1.9863471984863281,0.21402627229690552,-0.1512366533279419
1739920577348782300,2.9107822265625,-2.102163076400757,0.06102713569998741,-0.41169247031211853
1739920577358764300,2.920764404296875,-2.1768643856048584,-0.08723077923059464,-0.6385823488235474
1739920577368747300,2.930747314453125,-2.2613906860351562,-0.20938624441623688,-0.8420206904411316
1739920577378729200,2.940729248046875,-2.3897933959960938,-0.3282569646835327,-1.0193499326705933
1739920577388711400,2.95071142578125,-2.53999662399292,-0.40595948696136475,-1.1454352140426636
1739920577398693400,2.960693359375,-2.6844418048858643,-0.3639092445373535,-1.1968024969100952
1739920577408675300,2.97067529296875,-2.866706371307373,-0.38845744729042053,-1.1910237073898315
1739920577418658300,2.980658203125,-3.0685880184173584,-0.5170170068740845,-1.2053639888763428
1739920577428640300,2.99064013671875,-3.1575145721435547,-0.5261468887329102,-1.2691121101379395
1739920577438622200,3.000622314453125,-3.1427223682403564,-0.4516449570655823,-1.4004639387130737
1739920577448604400,3.0106044921875,-3.1186060905456543,-0.49512213468551636,-1.5883753299713135
1739920577458586000,3.020586181640625,-3.0830509662628174,-0.43140918016433716,-1.8503071069717407
1739920577468569300,3.0305693359375,-3.0108628273010254,-0.5465789437294006,-2.11419677734375
1739920577478551300,3.04055126953125,-2.9657185077667236,-0.7347182035446167,-2.4028518199920654
1739920577488533200,3.050533203125,-2.9924771785736084,-0.8813510537147522,-2.7461535930633545
1739920577498515500,3.060515380859375,-3.02993106842041,-0.963261604309082,-3.1010868549346924
1739920577508497200,3.0704970703125,-3.0181467533111572,-0.988811194896698,-3.4359097480773926
1739920577518480400,3.08048046875,-2.9402458667755127,-0.9619334936141968,-3.710982322692871
1739920577528462300,3.09046240234375,-2.7876462936401367,-0.9508803486824036,-3.8957901000976562
1739920577538444300,3.1004443359375,-2.580087423324585,-1.0813426971435547,-4.003611087799072
1739920577548426500,3.110426513671875,-2.4193954467773438,-1.251057505607605,-4.057351112365723
1739920577558409500,3.120409423828125,-2.330432176589966,-1.3922145366668701,-4.015035629272461
1739920577568391400,3.130391357421875,-2.287057399749756,-1.513391375541687,-3.8698079586029053
1739920577578373400,3.140373291015625,-2.2472238540649414,-1.6551979780197144,-3.6418826580047607
1739920577588355300,3.150355224609375,-2.140899896621704,-1.7413723468780518,-3.3844199180603027
1739920577598337500,3.160337646484375,-1.9196621179580688,-1.6192512512207031,-3.156475067138672
1739920577608320000,3.170320068359375,-1.6177464723587036,-1.503308653831482,-2.9855926036834717
1739920577618302000,3.180302001953125,-1.3501698970794678,-1.4884324073791504,-2.857367753982544
1739920577628284000,3.190283935546875,-1.1272047758102417,-1.2145532369613647,-2.791203737258911
1739920577638265900,3.200265869140625,-0.8902731537818909,-0.6854209899902344,-2.7066457271575928
1739920577648248000,3.210248046875,-0.6447163820266724,-0.23545220494270325,-2.440430164337158
1739920577658231000,3.22023095703125,-0.42251211404800415,-0.04428357630968094,-1.9859623908996582
1739920577668213000,3.230212890625,-0.22746005654335022,-0.1111219972372055,-1.4934024810791016
1739920577678195000,3.24019482421875,-0.09553690999746323,-0.3227714002132416,-1.1108207702636719
1739920577688177000,3.250177001953125,-0.039742618799209595,-0.5328559279441833,-0.8502488136291504
1739920577698159000,3.2601591796875,-0.021940985694527626,-0.6136890053749084,-0.6464333534240723
1739920577708142000,3.27014208984375,0.00020666129421442747,-0.5014961361885071,-0.41277584433555603
1739920577718124000,3.2801240234375,0.10702311992645264,-0.32202091813087463,-0.08221258223056793
1739920577728106000,3.29010595703125,0.2395651936531067,-0.2227577120065689,0.3356533646583557
1739920577738088000,3.300087890625,0.303019255399704,0.03374198451638222,0.7875683903694153
1739920577748070000,3.31006982421875,0.33864009380340576,0.4034814238548279,1.2312837839126587
1739920577758053000,3.32005322265625,0.40628013014793396,0.6185412406921387,1.6385287046432495
1739920577768034800,3.330034912109375,0.5500351786613464,0.7449213266372681,1.9776208400726318
1739920577778017000,3.34001708984375,0.7689693570137024,0.9150403141975403,2.194519281387329
1739920577787999000,3.3499990234375,1.0283501148223877,1.0189014673233032,2.295437812805176
1739920577797982000,3.35998193359375,1.2379374504089355,0.9108389019966125,2.2970235347747803
1739920577807964000,3.3699638671875,1.3621314764022827,0.7764243483543396,2.207864761352539
1739920577817945900,3.37994580078125,1.444827675819397,0.7357211709022522,2.0788464546203613
1739920577827928000,3.389927978515625,1.4348129034042358,0.8076435327529907,1.9968024492263794
1739920577837910000,3.399909912109375,1.3023592233657837,1.0233790874481201,1.9528722763061523
1739920577847893000,3.40989306640625,1.136509895324707,1.4113839864730835,1.9701391458511353
1739920577857875000,3.419875,1.2222540378570557,1.8731327056884766,2.082848072052002
1739920577867857000,3.42985693359375,1.541041612625122,2.093963384628296,2.339930295944214
1739920577877838800,3.4398388671875,1.9364781379699707,1.9241602420806885,2.672593116760254
1739920577887821000,3.449821044921875,2.4516546726226807,1.466559886932373,3.0638959407806396
1739920577897804000,3.459803955078125,2.9779388904571533,1.1407407522201538,3.4165947437286377
1739920577907786000,3.469785888671875,3.2488949298858643,1.1367300748825073,3.571135997772217
1739920577917768000,3.479767822265625,3.2797014713287354,1.1517807245254517,3.5251996517181396
1739920577927750000,3.48975,3.239957809448242,1.0842719078063965,3.272226333618164
1739920577937732000,3.499732177734375,3.345167398452759,0.863726794719696,2.8008811473846436
1739920577947715000,3.509715087890625,3.641859292984009,0.4511546790599823,2.2730603218078613
1739920577957697000,3.519697021484375,3.9975550174713135,-0.03514307364821434,1.8486065864562988
1739920577967679000,3.529678955078125,4.255058765411377,-0.4715920388698578,1.5934488773345947
1739920577977661000,3.539660888671875,4.306697368621826,-0.8464913368225098,1.4621989727020264
1739920577987644000,3.549643798828125,4.153207302093506,-1.1777452230453491,1.3785583972930908
1739920577997626000,3.559626220703125,3.9017515182495117,-1.4235913753509521,1.3633637428283691
1739920578007608000,3.569608154296875,3.6569294929504395,-1.5284537076950073,1.4363842010498047
1739920578017590000,3.579590087890625,3.4748826026916504,-1.525647759437561,1.5626842975616455
1739920578027572000,3.589572021484375,3.3529813289642334,-1.3953895568847656,1.6959861516952515
1739920578037555000,3.599554931640625,3.255150079727173,-1.1870359182357788,1.8016010522842407
1739920578047537000,3.609536865234375,3.178415298461914,-0.9955255389213562,1.8678274154663086
1739920578057518800,3.619518798828125,3.1093320846557617,-0.8195779919624329,1.9055322408676147
1739920578067501000,3.6295009765625,2.950515031814575,-0.6459484100341797,1.8890377283096313
1739920578077483000,3.63948291015625,2.7372725009918213,-0.49938955903053284,1.8261082172393799
1739920578087466000,3.649466064453125,2.52347993850708,-0.39924246072769165,1.7554513216018677
1739920578097448000,3.659447998046875,2.327455997467041,-0.2664942741394043,1.7031126022338867
1739920578107430000,3.669429931640625,2.159932851791382,-0.1629638820886612,1.6498836278915405
1739920578117411800,3.679411865234375,1.9788389205932617,-0.15715233981609344,1.5839097499847412
1739920578127394800,3.689394775390625,1.7944464683532715,-0.14964967966079712,1.4830163717269897
1739920578137377000,3.699376953125,1.6243927478790283,-0.12560613453388214,1.3709475994110107
1739920578147359000,3.70935888671875,1.4519051313400269,-0.12190885841846466,1.2360098361968994
1739920578157341000,3.7193408203125,1.221252202987671,-0.11355345696210861,1.0363824367523193
1739920578167323000,3.729322998046875,0.8968442678451538,-0.06585704535245895,0.8010450005531311
1739920578177305900,3.739305908203125,0.5149304270744324,-0.00657694274559617,0.5637259483337402
1739920578187288000,3.7492880859375,0.11642301827669144,0.018822690472006798,0.30219900608062744
1739920578197270000,3.75927001953125,-0.2730405926704407,-0.030234068632125854,0.011565576307475567
1739920578207252000,3.769251953125,-0.6615707278251648,-0.16522197425365448,-0.2945496141910553
1739920578217234000,3.77923388671875,-1.062243103981018,-0.27215108275413513,-0.5359859466552734
1739920578227217000,3.789216796875,-1.4709898233413696,-0.2847129702568054,-0.6310693025588989
1739920578237199000,3.79919921875,-1.801364541053772,-0.17314967513084412,-0.5575458407402039
1739920578247181000,3.80918115234375,-2.011305570602417,-0.004611529875546694,-0.36386582255363464
1739920578257163000,3.8191630859375,-2.1501688957214355,0.2249913066625595,-0.12418666481971741
1739920578267146000,3.82914599609375,-2.239058494567871,0.5034729838371277,0.08837593346834183
1739920578277128000,3.8391279296875,-2.302661657333374,0.7412970066070557,0.19395455718040466
1739920578287110000,3.84910986328125,-2.4020259380340576,0.8892497420310974,0.13766518235206604
1739920578297092900,3.8590927734375,-2.5621495246887207,0.951832115650177,-0.09437283873558044
1739920578307075000,3.869074951171875,-2.7535955905914307,0.9270290732383728,-0.4412328004837036
1739920578317056800,3.879056884765625,-2.9585120677948,0.8623520731925964,-0.8440771698951721
1739920578327040000,3.8890400390625,-3.1951029300689697,0.812856137752533,-1.245086431503296
1739920578337022000,3.89902197265625,-3.4139628410339355,0.7834116816520691,-1.5799775123596191
1739920578347004000,3.90900390625,-3.540299892425537,0.7308398485183716,-1.8172571659088135
1739920578356986000,3.918986083984375,-3.5483953952789307,0.6239538788795471,-1.9385993480682373
1739920578366967800,3.9289677734375,-3.4657938480377197,0.49205681681632996,-1.9453259706497192
1739920578376951000,3.938950927734375,-3.364448070526123,0.31322768330574036,-1.8630715608596802
1739920578386932700,3.9489326171875,-3.3022427558898926,0.14510738849639893,-1.7736018896102905
1739920578396915000,3.9589150390625,-3.321014881134033,0.009789513424038887,-1.7081059217453003
1739920578406897200,3.968897216796875,-3.4503629207611084,-0.1134549230337143,-1.6707892417907715
1739920578416879900,3.9788798828125,-3.610491991043091,-0.17928001284599304,-1.6495283842086792
1739920578426862000,3.988862060546875,-3.7107317447662354,-0.17490816116333008,-1.6388806104660034
1739920578436843800,3.99884375,-3.7380740642547607,-0.10199028253555298,-1.6228448152542114
1739920578446826000,4.008825927734375,-3.7209601402282715,0.02406672015786171,-1.6170399188995361
1739920578456808000,4.018807861328125,-3.6912403106689453,0.14974582195281982,-1.627503752708435
1739920578466791000,4.028791015625,-3.646697759628296,0.21513734757900238,-1.6621911525726318
1739920578476773000,4.038773193359375,-3.562191963195801,0.23143668472766876,-1.706084132194519
1739920578486754800,4.0487548828125,-3.4579317569732666,0.19490423798561096,-1.7368518114089966
1739920578496737000,4.058737060546875,-3.3759257793426514,0.13019874691963196,-1.7582557201385498
1739920578506719000,4.068718994140625,-3.343299627304077,0.06055255979299545,-1.7815090417861938
1739920578516702000,4.078701904296875,-3.342912435531616,0.02563026174902916,-1.8001868724822998
1739920578526684200,4.08868408203125,-3.3228859901428223,0.03738971799612045,-1.8020771741867065
1739920578536665900,4.098665771484375,-3.2691402435302734,0.07448381930589676,-1.7598503828048706
1739920578546648000,4.10864794921875,-3.159353733062744,0.11703980714082718,-1.661329984664917
1739920578556630800,4.118630859375,-2.997426986694336,0.1996457278728485,-1.5457607507705688
1739920578566613000,4.128613037109375,-2.8311777114868164,0.29082438349723816,-1.433911919593811
1739920578576595000,4.138594970703125,-2.7109644412994385,0.3501816987991333,-1.3469501733779907
1739920578586577000,4.148576904296875,-2.654294013977051,0.38960662484169006,-1.2952699661254883
1739920578596559000,4.15855908203125,-2.609729290008545,0.42940542101860046,-1.2696058750152588
1739920578606541800,4.168541748046875,-2.50981068611145,0.44861161708831787,-1.2556726932525635
1739920578616524000,4.17852392578125,-2.3793156147003174,0.47275155782699585,-1.2243142127990723
1739920578626506000,4.188506103515625,-2.2232303619384766,0.47199735045433044,-1.1877591609954834
1739920578636488000,4.198488037109375,-2.041126012802124,0.43545958399772644,-1.1770495176315308
1739920578646471000,4.208470947265625,-1.8460454940795898,0.32719355821609497,-1.2172480821609497
1739920578656452900,4.218452880859375,-1.6431080102920532,0.16606859862804413,-1.2947149276733398
1739920578666435000,4.22843505859375,-1.4488667249679565,-0.021032314747571945,-1.364489197731018
1739920578676417000,4.2384169921875,-1.2904869318008423,-0.1271321177482605,-1.395122766494751
1739920578686399000,4.24839892578125,-1.1255730390548706,-0.13530509173870087,-1.3702800273895264
1739920578696381200,4.258381103515625,-0.9431115984916687,-0.08320407569408417,-1.3112070560455322
1739920578706363000,4.26836279296875,-0.7271692156791687,-0.04032158851623535,-1.227828025817871
1739920578716346000,4.27834619140625,-0.5031033754348755,-0.04192294925451279,-1.1182270050048828
1739920578726327800,4.288327880859375,-0.2937173843383789,-0.08676445484161377,-0.980806827545166
1739920578736310000,4.29831005859375,-0.09384579956531525,-0.18595601618289948,-0.7938007116317749
1739920578746292200,4.308292236328125,0.13105975091457367,-0.33940309286117554,-0.5702394843101501
1739920578756275000,4.31827490234375,0.39692285656929016,-0.5103788375854492,-0.3224155902862549
1739920578766257200,4.328257080078125,0.72177654504776,-0.6307161450386047,-0.04588945955038071
1739920578776238800,4.33823876953125,1.0675544738769531,-0.6545661091804504,0.24442945420742035
1739920578786221000,4.348220947265625,1.4045692682266235,-0.59041827917099,0.5486921668052673
1739920578796203000,4.358203125,1.705040693283081,-0.43942371010780334,0.8711801767349243
1739920578806186000,4.36818603515625,1.968727469444275,-0.2164129912853241,1.2015844583511353
1739920578816168200,4.378168212890625,2.222416639328003,0.03659742698073387,1.5313727855682373
1739920578826150000,4.38814990234375,2.4799091815948486,0.24631443619728088,1.8312684297561646
1739920578836132000,4.398132080078125,2.710205554962158,0.36885419487953186,2.0770485401153564
1739920578846115000,4.408114990234375,2.879546642303467,0.4073416590690613,2.240687608718872
1739920578856097000,4.418096923828125,2.978444814682007,0.4082697927951813,2.3330962657928467
1739920578866079000,4.428078857421875,3.0159988403320312,0.4147908091545105,2.3347885608673096
1739920578876061000,4.43806103515625,3.0021941661834717,0.4406580924987793,2.277151346206665
1739920578886043100,4.448043212890625,2.986963987350464,0.49235641956329346,2.191897392272949
1739920578896025900,4.45802587890625,3.0003626346588135,0.5491060018539429,2.1077961921691895
1739920578906008000,4.468008056640625,3.0440070629119873,0.5916023254394531,2.0396008491516113
1739920578915990000,4.477989990234375,3.1212680339813232,0.5908329486846924,1.9915030002593994
1739920578925972000,4.487971923828125,3.203425884246826,0.5256677865982056,1.9346169233322144
1739920578935955000,4.497954833984375,3.256521701812744,0.42223086953163147,1.8519717454910278
1739920578945937000,4.50793701171875,3.3027498722076416,0.33501607179641724,1.7363016605377197
1739920578955919000,4.517919189453125,3.3520209789276123,0.24979199469089508,1.556715965270996
1739920578965900800,4.52790087890625,3.386911153793335,0.13991156220436096,1.2962132692337036
1739920578975883000,4.537883056640625,3.4200868606567383,-0.015565910376608372,1.0050290822982788
1739920578985866000,4.547865966796875,3.4420416355133057,-0.16838234663009644,0.7466960549354553
1739920578995848000,4.557847900390625,3.46410870552063,-0.26203906536102295,0.5616883635520935
1739920579005830100,4.567830078125,3.5162549018859863,-0.301111102104187,0.4642515480518341
1739920579015811800,4.577811767578125,3.6059682369232178,-0.3768572509288788,0.4397571384906769
1739920579025795000,4.587795166015625,3.7081716060638428,-0.45942166447639465,0.4615606963634491
1739920579035777000,4.597777099609375,3.785978317260742,-0.5247340798377991,0.4976377487182617
1739920579045759000,4.607759033203125,3.806464433670044,-0.5554547309875488,0.5177991986274719
1739920579055741200,4.6177412109375,3.773432493209839,-0.5696898102760315,0.5391319394111633
1739920579065723000,4.627722900390625,3.7124552726745605,-0.5523137450218201,0.5870110392570496
1739920579075706000,4.6377060546875,3.6377384662628174,-0.5090131759643555,0.6928503513336182
1739920579085688000,4.64768798828125,3.5541298389434814,-0.46571123600006104,0.8613355159759521
1739920579095670000,4.657669921875,3.4648149013519287,-0.45002707839012146,1.026480793952942
1739920579105652000,4.66765185546875,3.3930628299713135,-0.4453047513961792,1.1287903785705566
1739920579115635000,4.677635009765625,3.333709716796875,-0.43023473024368286,1.1867527961730957
1739920579125617200,4.6876171875,3.2611100673675537,-0.40904608368873596,1.2126309871673584
1739920579135598800,4.697598876953125,3.181792736053467,-0.37156662344932556,1.2238330841064453
1739920579145581000,4.7075810546875,3.1008341312408447,-0.29593685269355774,1.2111455202102661
1739920579155564000,4.71756396484375,3.023507595062256,-0.14692287147045135,1.1577775478363037
1739920579165546000,4.7275458984375,2.982487678527832,0.053163085132837296,1.070324182510376
1739920579175528000,4.73752783203125,2.9527933597564697,0.25524136424064636,0.9440900683403015
1739920579185510000,4.747510009765625,2.8821640014648438,0.38685768842697144,0.785796046257019
1739920579195492000,4.7574921875,2.739427089691162,0.4337248206138611,0.6093595027923584
1739920579205475000,4.76747509765625,2.537212610244751,0.39229586720466614,0.4090453088283539
1739920579215457000,4.77745703125,2.23886775970459,0.2769775390625,0.17688874900341034
1739920579225439000,4.78743896484375,1.8549854755401611,0.1192808523774147,-0.0623006597161293
1739920579235421000,4.7974208984375,1.4133281707763672,-0.05567897483706474,-0.30883002281188965
1739920579245404000,4.80740380859375,0.9375061988830566,-0.22007963061332703,-0.5787336826324463
1739920579255386000,4.81738623046875,0.4473748505115509,-0.33697643876075745,-0.8535814881324768
1739920579265368000,4.8273681640625,-0.034084733575582504,-0.37224307656288147,-1.1020655632019043
1739920579275350000,4.83735009765625,-0.4711962938308716,-0.32038334012031555,-1.2871934175491333
1739920579285333000,4.8473330078125,-0.8533638715744019,-0.25507837533950806,-1.3923226594924927
1739920579295315000,4.85731494140625,-1.1805039644241333,-0.24929185211658478,-1.40879225730896
1739920579305297000,4.867296875,-1.4734162092208862,-0.32140040397644043,-1.3363484144210815
1739920579315279000,4.877279052734375,-1.8040930032730103,-0.4308485984802246,-1.1940854787826538
1739920579325261000,4.887260986328125,-2.1714956760406494,-0.4936872124671936,-0.9996705055236816
1739920579335244000,4.897244140625,-2.522545576095581,-0.49422118067741394,-0.7911335229873657
1739920579345226000,4.90722607421875,-2.781357526779175,-0.478755921125412,-0.5934678912162781
1739920579355208000,4.9172080078125,-3.010840892791748,-0.4072977304458618,-0.43863222002983093
1739920579365190100,4.927190185546875,-3.281757116317749,-0.204838365316391,-0.35520416498184204
1739920579375173000,4.937173095703125,-3.595860004425049,0.15764501690864563,-0.3561061918735504
1739920579385155000,4.947155029296875,-3.9082319736480713,0.5998767614364624,-0.4029937982559204
1739920579395137000,4.957136962890625,-4.166422367095947,1.0358599424362183,-0.4616627097129822
1739920579405119000,4.967118896484375,-4.372422695159912,1.412618637084961,-0.5159294009208679
1739920579415101000,4.977100830078125,-4.54797887802124,1.67081880569458,-0.5684035420417786
1739920579425084200,4.987084228515625,-4.7003397941589355,1.7898160219192505,-0.6450767517089844
1739920579435066000,4.997066162109375,-4.817768096923828,1.748967170715332,-0.7586357593536377
1739920579445048000,5.007048095703125,-4.918340682983398,1.570556402206421,-0.9074095487594604
1739920579455030000,5.017030029296875,-4.981663227081299,1.3330830335617065,-1.110351800918579
1739920579465013000,5.027012939453125,-4.954370021820068,1.0505304336547852,-1.3426814079284668
1739920579474995000,5.036994873046875,-4.85159969329834,0.7519837617874146,-1.564658284187317
1739920579484977000,5.046976806640625,-4.708698749542236,0.5124617218971252,-1.7286256551742554
1739920579494959000,5.056958984375,-4.581107139587402,0.39221784472465515,-1.7863597869873047
1739920579504941800,5.06694189453125,-4.486349105834961,0.3819659948348999,-1.7100518941879272
1739920579514924000,5.076924072265625,-4.390918731689453,0.45396217703819275,-1.5106916427612305
1739920579524906000,5.086906005859375,-4.230664253234863,0.5196168422698975,-1.2091035842895508
1739920579534888000,5.096887939453125,-4.029778480529785,0.5621946454048157,-0.8637219667434692
1739920579544870000,5.106869873046875,-3.845811605453491,0.6510776281356812,-0.527731716632843
1739920579554852900,5.116852783203125,-3.660775899887085,0.7494825124740601,-0.23426470160484314
1739920579564835000,5.1268349609375,-3.4652726650238037,0.8514858484268188,0.042520564049482346
1739920579574817000,5.136817138671875,-3.287616729736328,0.9332054853439331,0.2899940013885498
1739920579584799000,5.146799072265625,-3.124511480331421,0.9416236877441406,0.46888840198516846
1739920579594782200,5.1567822265625,-2.98205828666687,0.8901224136352539,0.5535423159599304
1739920579604764000,5.166763916015625,-2.8191776275634766,0.7756307721138,0.5643155574798584
1739920579614746600,5.17674658203125,-2.6236045360565186,0.6371591687202454,0.5183749794960022
1739920579624728600,5.186728515625,-2.44734787940979,0.5158138275146484,0.42339226603507996
1739920579634710500,5.19671044921875,-2.3207476139068604,0.4255044162273407,0.267264723777771
1739920579644693500,5.206693603515625,-2.17354416847229,0.30745208263397217,0.05314204841852188
1739920579654675500,5.216675537109375,-1.999512791633606,0.18869028985500336,-0.19328929483890533
1739920579664657700,5.22665771484375,-1.860073447227478,0.11487199366092682,-0.41315722465515137
1739920579674639600,5.2366396484375,-1.7671985626220703,0.08304721862077713,-0.5731239914894104
1739920579684622600,5.24662255859375,-1.6592843532562256,0.07414480298757553,-0.6831220984458923
1739920579694604500,5.2566044921875,-1.5068751573562622,-0.013618873432278633,-0.7751769423484802
1739920579704586500,5.26658642578125,-1.3602808713912964,-0.1426232010126114,-0.8335039019584656
1739920579714568700,5.276568603515625,-1.2683360576629639,-0.1871965229511261,-0.8477757573127747
1739920579724551700,5.2865517578125,-1.2179887294769287,-0.15140070021152496,-0.8205859661102295
1739920579734533600,5.29653369140625,-1.1655420064926147,-0.0590721070766449,-0.7560836672782898
1739920579744515600,5.306515625,-1.0870029926300049,0.07904688268899918,-0.6635766625404358
1739920579754497500,5.31649755859375,-0.9680193662643433,0.24633494019508362,-0.5425388813018799
1739920579764480500,5.32648046875,-0.8477851152420044,0.39491748809814453,-0.377096951007843
1739920579774462700,5.336462646484375,-0.6995607614517212,0.5723476409912109,-0.17648209631443024
1739920579784444700,5.346444580078125,-0.46468645334243774,0.7045466899871826,0.046598393470048904
1739920579794426600,5.356426513671875,-0.1112373098731041,0.7590123414993286,0.2877044975757599
1739920579804408600,5.36640869140625,0.2792547941207886,0.698750376701355,0.5162545442581177
1739920579814391600,5.3763916015625,0.6723387241363525,0.5313704013824463,0.6986739039421082
1739920579824373500,5.38637353515625,1.0408693552017212,0.40274956822395325,0.824962854385376
1739920579834355700,5.396355712890625,1.40549635887146,0.3334575891494751,0.8976439833641052
1739920579844337700,5.406337646484375,1.8377726078033447,0.25877296924591064,0.9452482461929321
1739920579854320600,5.416320556640625,2.3361902236938477,0.13400307297706604,1.0079524517059326
1739920579864302600,5.426302490234375,2.820556402206421,0.004150802735239267,1.1083167791366577
1739920579874284500,5.436284423828125,3.233063220977783,-0.036434706300497055,1.2334398031234741
1739920579884266500,5.4462666015625,3.5776278972625732,0.014218350872397423,1.369411587715149
1739920579894249700,5.456249755859375,3.852169990539551,0.11112545430660248,1.5099271535873413
1739920579904231400,5.4662314453125,4.038463592529297,0.23213070631027222,1.655818223953247
1739920579914213600,5.476213623046875,4.143797874450684,0.3326581120491028,1.7747385501861572
1739920579924195600,5.486195556640625,4.188918590545654,0.3852001428604126,1.8383026123046875
1739920579934177500,5.496177490234375,4.192886829376221,0.4237715005874634,1.8441787958145142
1739920579944160800,5.506160888671875,4.115895748138428,0.4751071333885193,1.8189302682876587
1739920579954142500,5.516142578125,3.9583961963653564,0.5550634860992432,1.777169942855835
1739920579964124700,5.526124755859375,3.743176221847534,0.6156077980995178,1.7360659837722778
1739920579974106600,5.536106689453125,3.523298740386963,0.6957473754882812,1.6938143968582153
1739920579984089600,5.546089599609375,3.3367056846618652,0.7624214887619019,1.6589837074279785
1739920579994071600,5.556071533203125,3.190112829208374,0.8407631516456604,1.5891870260238647
1739920580004053500,5.566053466796875,3.090507984161377,0.9271318316459656,1.4648445844650269
1739920580014035700,5.57603564453125,3.0364818572998047,0.978732705116272,1.2839086055755615
1739920580024018400,5.586018310546875,3.0454630851745605,0.9608549475669861,1.0621274709701538
1739920580034000600,5.596000732421875,3.085986614227295,0.8929035663604736,0.8302202224731445
1739920580043982600,5.605982666015625,3.1345744132995605,0.7779860496520996,0.6155769228935242
1739920580053964500,5.615964599609375,3.204080581665039,0.6524829864501953,0.4217264652252197
1739920580063947800,5.62594775390625,3.2899158000946045,0.5253612399101257,0.24315886199474335
1739920580073929500,5.635929443359375,3.38234281539917,0.3870238959789276,0.08295027911663055
1739920580083911700,5.64591162109375,3.485036611557007,0.26555097103118896,-0.0526922382414341
1739920580093893600,5.6558935546875,3.5704684257507324,0.15171974897384644,-0.17216883599758148
1739920580103875600,5.66587548828125,3.6606006622314453,0.009473396465182304,-0.2761327922344208
1739920580113858800,5.67585888671875,3.739023208618164,-0.16265788674354553,-0.3512624204158783
1739920580123840500,5.685840576171875,3.7946839332580566,-0.34646525979042053,-0.40317249298095703
1739920580133822700,5.69582275390625,3.802922487258911,-0.5149930119514465,-0.42403915524482727
1739920580143804700,5.7058046875,3.7684311866760254,-0.6569674611091614,-0.4042593240737915
1739920580153787600,5.71578759765625,3.6854116916656494,-0.8161795139312744,-0.33095183968544006
1739920580163769600,5.72576953125,3.594940185546875,-0.9803716540336609,-0.21224167943000793
1739920580173751600,5.73575146484375,3.512007236480713,-1.0977240800857544,-0.059469450265169144
1739920580183733800,5.745733642578125,3.443025827407837,-1.163432002067566,0.09578777849674225
1739920580193716500,5.755716552734375,3.364546537399292,-1.184938669204712,0.25028520822525024
1739920580203698700,5.76569873046875,3.255581855773926,-1.1492708921432495,0.38463956117630005
1739920580213680400,5.775680419921875,3.1158978939056396,-1.0537371635437012,0.49308082461357117
1739920580223662600,5.78566259765625,2.945730686187744,-0.9687602519989014,0.5996245741844177
1739920580233645600,5.7956455078125,2.758394956588745,-0.8836491107940674,0.7387866973876953
1739920580243627500,5.80562744140625,2.578927755355835,-0.7493320107460022,0.8917165994644165
1739920580253609700,5.815609619140625,2.4136366844177246,-0.5372067093849182,1.0326100587844849
1739920580263591400,5.82559130859375,2.2535433769226074,-0.3252020478248596,1.0985139608383179
1739920580273574700,5.83557470703125,2.0683023929595947,-0.20138850808143616,1.0145503282546997
1739920580283556600,5.845556640625,1.8297059535980225,-0.1575065404176712,0.7531243562698364
1739920580293538600,5.85553857421875,1.5436930656433105,-0.1438083052635193,0.3492104709148407
1739920580303520800,5.865520751953125,1.2251536846160889,-0.16967664659023285,-0.1396697461605072
1739920580313502500,5.87550244140625,0.8697633743286133,-0.24021020531654358,-0.6519215703010559
1739920580323485700,5.885485595703125,0.4608991742134094,-0.34691932797431946,-1.1238774061203003
1739920580333467400,5.89546728515625,0.031199997290968895,-0.427275687456131,-1.4902952909469604
1739920580343449600,5.90544970703125,-0.4052436351776123,-0.4722951054573059,-1.7216007709503174
1739920580353431800,5.915431884765625,-0.8302164673805237,-0.5029590129852295,-1.8214341402053833
1739920580363414500,5.92541455078125,-1.247123122215271,-0.5122779607772827,-1.7949239015579224
1739920580373396700,5.935396728515625,-1.6528549194335938,-0.46999067068099976,-1.6704357862472534
1739920580383378400,5.94537841796875,-2.0012991428375244,-0.3452455401420593,-1.506665825843811
1739920580393360600,5.955360595703125,-2.2970385551452637,-0.17381280660629272,-1.343255877494812
1739920580403343600,5.965343505859375,-2.559894561767578,0.06060049682855606,-1.2053288221359253
1739920580413325600,5.97532568359375,-2.8163211345672607,0.38117238879203796,-1.0723676681518555
1739920580423307800,5.985307861328125,-3.1053504943847656,0.7442800402641296,-0.9484656453132629
1739920580433289500,5.99528955078125,-3.4273898601531982,1.0471333265304565,-0.828843355178833
1739920580443272700,6.005272705078125,-3.7452476024627686,1.2220122814178467,-0.719892144203186
1739920580453254700,6.015254638671875,-4.0428595542907715,1.2930222749710083,-0.6147300004959106
1739920580463236600,6.025236572265625,-4.332242488861084,1.3193217515945435,-0.4921942353248596
1739920580473218600,6.035218505859375,-4.609228610992432,1.3649142980575562,-0.337424099445343
1739920580483201500,6.045201416015625,-4.85127067565918,1.4537179470062256,-0.16318279504776
1739920580493183500,6.05518359375,-5.026388645172119,1.605670690536499,0.001059139147400856
1739920580503165400,6.06516552734375,-5.141086101531982,1.778735876083374,0.14979802072048187
1739920580513147600,6.075147705078125,-5.239624500274658,1.921417474746704,0.26806366443634033
1739920580523129600,6.085129638671875,-5.323677062988281,1.9707242250442505,0.3402406573295593
1739920580533112600,6.095112548828125,-5.395882606506348,1.9294644594192505,0.3817012906074524
1739920580543094500,6.105094482421875,-5.460881233215332,1.8384125232696533,0.41968196630477905
1739920580553076500,6.115076416015625,-5.528900146484375,1.7345213890075684,0.4781354069709778
1739920580563058700,6.12505859375,-5.583924770355225,1.6680173873901367,0.5727269053459167
1739920580573041700,6.135041748046875,-5.617051601409912,1.6856595277786255,0.7146547436714172
1739920580583023600,6.145023681640625,-5.623414993286133,1.7339292764663696,0.914542555809021
1739920580593005600,6.155005615234375,-5.627626895904541,1.7585963010787964,1.1654040813446045
1739920580602987500,6.164987548828125,-5.609780788421631,1.6470685005187988,1.412153720855713
1739920580612970200,6.17497021484375,-5.44467306137085,1.375006079673767,1.6150673627853394
1739920580622952000,6.184951904296875,-5.094920635223389,0.9893046617507935,1.7586886882781982
1739920580632934100,6.19493408203125,-4.745601654052734,0.5593572854995728,1.821554183959961
1739920580642916000,6.204916015625,-4.371381759643555,0.21941544115543365,1.8266738653182983
1739920580652899000,6.214899169921875,-3.976903200149536,-0.09291822463274002,1.760693073272705
1739920580662881000,6.224881103515625,-3.5494017601013184,-0.36860573291778564,1.5938431024551392
1739920580672863000,6.234863037109375,-3.14664888381958,-0.6356619000434875,1.3336553573608398
1739920580682845200,6.24484521484375,-2.7968974113464355,-0.88810133934021,0.9804723262786865
1739920580692828200,6.254828125,-2.488006114959717,-1.109702467918396,0.5790135860443115
1739920580702810000,6.26481005859375,-2.237730026245117,-1.2502944469451904,0.16777674853801727
1739920580712792000,6.2747919921875,-2.0877909660339355,-1.338621973991394,-0.23620560765266418
1739920580722774000,6.28477392578125,-1.9838148355484009,-1.360002875328064,-0.6420969367027283
1739920580732757000,6.294757080078125,-1.921963095664978,-1.3073564767837524,-0.9936243295669556
1739920580742739200,6.3047392578125,-1.8915998935699463,-1.2345269918441772,-1.2947639226913452
1739920580752721200,6.31472119140625,-1.8650623559951782,-1.152954339981079,-1.5693718194961548
1739920580762703000,6.324703125,-1.8329185247421265,-1.0825518369674683,-1.8007652759552002
1739920580772686000,6.33468603515625,-1.7949633598327637,-1.0187009572982788,-1.9770245552062988
1739920580782668000,6.34466796875,-1.742256760597229,-0.9412397146224976,-2.0782809257507324
1739920580792650000,6.35464990234375,-1.7057075500488281,-0.8161481022834778,-2.084343671798706
1739920580802632200,6.364632080078125,-1.687270164489746,-0.6537096500396729,-1.9907962083816528
1739920580812615200,6.374615234375,-1.6559103727340698,-0.5278177261352539,-1.7993948459625244
1739920580822597000,6.38459716796875,-1.6132819652557373,-0.40688174962997437,-1.5346319675445557
1739920580832579000,6.3945791015625,-1.5577452182769775,-0.23734624683856964,-1.2305763959884644
1739920580842561000,6.40456103515625,-1.4892295598983765,-0.03411243110895157,-0.928064227104187
1739920580852543200,6.414543212890625,-1.3619786500930786,0.18955715000629425,-0.6310727596282959
1739920580862526200,6.424526123046875,-1.161635398864746,0.43424704670906067,-0.38137078285217285
1739920580872508200,6.434508056640625,-0.91962730884552,0.6541932821273804,-0.16320116817951202
1739920580882490000,6.444489990234375,-0.6018885374069214,0.7573156356811523,0.05275562405586243
1739920580892472000,6.45447216796875,-0.20280344784259796,0.6826930642127991,0.2974279522895813
1739920580902455000,6.464455078125,0.25915858149528503,0.5161717534065247,0.5303179025650024
1739920580912437200,6.474437255859375,0.7311493158340454,0.3673713505268097,0.7176848649978638
1739920580922419000,6.4844189453125,1.2074068784713745,0.22303707897663116,0.8677566647529602
1739920580932401200,6.494401123046875,1.690638780593872,0.0587778277695179,1.0025606155395508
1739920580942384000,6.504384033203125,2.150956630706787,-0.039810262620449066,1.1214994192123413
1739920580952366000,6.514365966796875,2.568959951400757,-0.04675445705652237,1.2201379537582397
1739920580962348000,6.52434814453125,2.963413953781128,0.03544853627681732,1.2789596319198608
1739920580972330000,6.534330078125,3.3049814701080322,0.18104702234268188,1.3057345151901245
1739920580982313200,6.544313232421875,3.59305739402771,0.37489771842956543,1.3129509687423706
1739920580992295000,6.554294921875,3.8326640129089355,0.5902137756347656,1.3059138059616089
1739920581002277000,6.564277099609375,4.027292251586914,0.7942894101142883,1.2979589700698853
1739920581012259000,6.574259033203125,4.171414852142334,0.9929340481758118,1.2799724340438843
1739920581022242000,6.584241943359375,4.255044937133789,1.1964170932769775,1.2420703172683716
1739920581032224300,6.594224365234375,4.278899192810059,1.3708562850952148,1.1959174871444702
1739920581042206000,6.6042060546875,4.239220142364502,1.4836305379867554,1.1352403163909912
1739920581052188200,6.614188232421875,4.161073207855225,1.5330239534378052,1.061298131942749
1739920581062171000,6.6241708984375,4.06903600692749,1.5037187337875366,0.9701043367385864
1739920581072153000,6.634153076171875,3.9579827785491943,1.4154160022735596,0.8531425595283508
1739920581082135300,6.64413525390625,3.8555214405059814,1.2713602781295776,0.682097315788269
1739920581092117000,6.654116943359375,3.7669832706451416,1.1200581789016724,0.45599231123924255
1739920581102100200,6.664100341796875,3.681490182876587,1.0173197984695435,0.2045355588197708
1739920581112082000,6.67408203125,3.593324661254883,0.955491304397583,-0.0392315573990345
1739920581122064100,6.684064208984375,3.503516435623169,0.8811124563217163,-0.2429218292236328
1739920581132046000,6.694046142578125,3.4505386352539062,0.7476350665092468,-0.399027019739151
1739920581142028000,6.704028076171875,3.449185609817505,0.5702973008155823,-0.4913116693496704
1739920581152011300,6.71401123046875,3.5078036785125732,0.40927326679229736,-0.5108451843261719
1739920581161993000,6.723992919921875,3.609172821044922,0.2928292155265808,-0.4805828630924225
1739920581171975200,6.73397509765625,3.7434842586517334,0.19912855327129364,-0.4397028088569641
1739920581181958100,6.743958251953125,3.9068236351013184,0.10855364054441452,-0.4150017201900482
1739920581191940000,6.753940185546875,4.069255352020264,0.0362837053835392,-0.39939001202583313
1739920581201922300,6.76392236328125,4.211775779724121,-0.017586983740329742,-0.39002472162246704
1739920581211904000,6.773904052734375,4.3179545402526855,-0.07740291208028793,-0.3906433880329132
1739920581221886200,6.78388623046875,4.391411781311035,-0.14641393721103668,-0.38209062814712524
1739920581231869000,6.793868896484375,4.42706298828125,-0.21465930342674255,-0.3712467849254608
1739920581241851100,6.80385107421875,4.437201023101807,-0.28082767128944397,-0.3550792634487152
1739920581251833000,6.8138330078125,4.413640975952148,-0.38653653860092163,-0.3141249120235443
1739920581261815000,6.82381494140625,4.348620891571045,-0.5354194641113281,-0.23705968260765076
1739920581271798000,6.833798095703125,4.247339725494385,-0.6558689475059509,-0.10821542143821716
1739920581281780000,6.843780029296875,4.118337154388428,-0.7175269722938538,0.04712729901075363
1739920581291762200,6.85376220703125,3.9955224990844727,-0.7384860515594482,0.2342444509267807
1739920581301743900,6.863743896484375,3.8836171627044678,-0.7253662347793579,0.450395405292511
1739920581311727000,6.87372705078125,3.696162700653076,-0.5936449766159058,0.7358543276786804
1739920581321709000,6.883708984375,3.388401985168457,-0.33617374300956726,1.0994378328323364
1739920581331691000,6.89369091796875,2.9219441413879395,0.0824727714061737,1.5442368984222412
1739920581341673200,6.903673095703125,2.3703577518463135,0.6205567717552185,2.015775203704834
1739920581351656200,6.91365625,1.8869737386703491,1.1636080741882324,2.404203176498413
1739920581361638100,6.92363818359375,1.5526399612426758,1.6758497953414917,2.6307711601257324
1739920581371620000,6.9336201171875,1.340125560760498,2.1612846851348877,2.6617865562438965
1739920581381602000,6.94360205078125,1.1743699312210083,2.5684969425201416,2.5059218406677246
1739920581391585000,6.9535849609375,0.9383360147476196,2.7973790168762207,2.1524906158447266
1739920581401567000,6.96356689453125,0.5659803152084351,2.776644706726074,1.6199753284454346
1739920581411549200,6.973549072265625,0.08993788063526154,2.4982919692993164,0.9634262323379517
1739920581421531100,6.98353125,-0.4101521074771881,1.9867874383926392,0.22878843545913696
1739920581431514000,6.99351416015625,-0.8754904866218567,1.2756088972091675,-0.519371509552002
1739920581441496000,7.00349609375,-1.3071085214614868,0.5237958431243896,-1.1808711290359497
1739920581451478000,7.01347802734375,-1.6877835988998413,-0.1318107545375824,-1.6771278381347656
1739920581461460200,7.023460205078125,-2.017435312271118,-0.6723893284797668,-1.9995687007904053
1739920581471443200,7.033443115234375,-2.289609909057617,-1.1170639991760254,-2.1499743461608887
1739920581481425200,7.043425048828125,-2.536083221435547,-1.3835526704788208,-2.1582939624786377
1739920581491407000,7.053406982421875,-2.7583723068237305,-1.4358845949172974,-2.0712194442749023
1739920581501389000,7.06338916015625,-2.908364772796631,-1.3429213762283325,-1.944687843322754
1739920581511372000,7.0733720703125,-2.946300983428955,-1.2192904949188232,-1.807654619216919
1739920581521354200,7.083354248046875,-2.9562201499938965,-1.0879939794540405,-1.642809271812439
1739920581531336200,7.093336181640625,-3.028722047805786,-0.958996057510376,-1.4511947631835938
1739920581541318100,7.103318115234375,-3.2122979164123535,-0.8246736526489258,-1.242469310760498
1739920581551301000,7.113301025390625,-3.476083993911743,-0.7147138714790344,-1.00346839427948
1739920581561283000,7.123282958984375,-3.7796764373779297,-0.5999545454978943,-0.7497754693031311
1739920581571265000,7.13326513671875,-4.060894012451172,-0.46230000257492065,-0.48425909876823425
1739920581581247000,7.1432470703125,-4.309309959411621,-0.3092696964740753,-0.23903389275074005
1739920581591230200,7.153230224609375,-4.4949822425842285,-0.1372651755809784,-0.032828252762556076
1739920581601212000,7.1632119140625,-4.613753795623779,0.02851180173456669,0.12449239194393158
1739920581611194000,7.173194091796875,-4.675740718841553,0.14431829750537872,0.22271031141281128
1739920581621175800,7.18317578125,-4.6971025466918945,0.19401395320892334,0.28726398944854736
1739920581631158500,7.193158447265625,-4.691030502319336,0.16089195013046265,0.3434652090072632
1739920581641140700,7.203140625,-4.67317008972168,0.06155071407556534,0.3994768261909485
1739920581651122700,7.213122802734375,-4.628249645233154,-0.07745350897312164,0.45511505007743835
1739920581661104600,7.223104736328125,-4.556574821472168,-0.24339081346988678,0.49014413356781006
1739920581671087600,7.233087646484375,-4.448338508605957,-0.3736446797847748,0.4817136526107788
1739920581681069600,7.243069580078125,-4.317298412322998,-0.464253693819046,0.4457013010978699
1739920581691051800,7.2530517578125,-4.153670310974121,-0.5171552300453186,0.4104756712913513
1739920581701033500,7.263033447265625,-3.9571361541748047,-0.5100305080413818,0.37196478247642517
1739920581711016700,7.2730166015625,-3.745898723602295,-0.46487846970558167,0.3229663372039795
1739920581720998700,7.28299853515625,-3.5456225872039795,-0.40408700704574585,0.26022785902023315
1739920581730980600,7.292980712890625,-3.3841309547424316,-0.3465832471847534,0.1593121588230133
1739920581740962800,7.302962890625,-3.273190498352051,-0.3392361104488373,0.025423334911465645
1739920581750945800,7.31294580078125,-3.190788984298706,-0.41840896010398865,-0.10077214986085892
1739920581760927700,7.322927734375,-3.1113805770874023,-0.5357169508934021,-0.21135511994361877
1739920581770909700,7.33290966796875,-3.027745008468628,-0.6814038753509521,-0.31260931491851807
1739920581780891600,7.3428916015625,-2.972214937210083,-0.8033236265182495,-0.44495055079460144
1739920581790874600,7.35287451171875,-2.94704532623291,-0.9022092223167419,-0.5816926956176758
1739920581800856600,7.362856689453125,-2.913057565689087,-0.9576053619384766,-0.6872683763504028
1739920581810838800,7.3728388671875,-2.855335235595703,-0.9617692232131958,-0.7424757480621338
1739920581820820700,7.38282080078125,-2.7889692783355713,-0.9304237961769104,-0.7480332255363464
1739920581830803700,7.3928037109375,-2.7414960861206055,-0.8718163967132568,-0.7462560534477234
1739920581840785700,7.40278564453125,-2.6769514083862305,-0.7722418904304504,-0.7840074300765991
1739920581850767600,7.412767578125,-2.5705599784851074,-0.6300229430198669,-0.8332197666168213
1739920581860749800,7.422749755859375,-2.43571138381958,-0.4317471385002136,-0.855294942855835
1739920581870732800,7.43273291015625,-2.316401958465576,-0.174166738986969,-0.7901518940925598
1739920581880714800,7.44271484375,-2.2097508907318115,0.09549882262945175,-0.623131513595581
1739920581890696700,7.45269677734375,-2.0625486373901367,0.30149275064468384,-0.36508530378341675
1739920581900678700,7.4626787109375,-1.8304589986801147,0.42012643814086914,-0.021087974309921265
1739920581910661600,7.47266162109375,-1.5444393157958984,0.49795252084732056,0.3957337439060211
1739920581920643800,7.482643798828125,-1.2140837907791138,0.6387307047843933,0.8288516402244568
1739920581930625800,7.492625732421875,-0.8657009601593018,0.8183132410049438,1.2206164598464966
1739920581940607700,7.502607666015625,-0.5196631550788879,0.9084604382514954,1.5340489149093628
1739920581950590700,7.5125908203125,-0.18358740210533142,0.9177317023277283,1.703244924545288
1739920581960572700,7.52257275390625,0.14717400074005127,0.8891663551330566,1.7067874670028687
1739920581970554600,7.5325546875,0.4538452625274658,0.8952040076255798,1.5547478199005127
1739920581980536600,7.54253662109375,0.7048468589782715,0.8657593131065369,1.2880221605300903
1739920581990519800,7.552519775390625,0.8737594485282898,0.7155317068099976,0.9900162816047668
1739920582000501800,7.562501708984375,0.9544292688369751,0.4628280997276306,0.7259747982025146
1739920582010483700,7.572483642578125,0.9864093065261841,0.20757102966308594,0.49047064781188965
1739920582020465700,7.582465576171875,1.0372493267059326,0.012463327497243881,0.28017812967300415
1739920582030448600,7.59244873046875,1.1526973247528076,-0.12949833273887634,0.1267310529947281
1739920582040430800,7.602430908203125,1.349614143371582,-0.21781301498413086,0.09041325002908707
1739920582050412500,7.61241259765625,1.6009318828582764,-0.17046254873275757,0.17853859066963196
1739920582060394800,7.622394775390625,1.8840909004211426,0.03820757195353508,0.35772910714149475
1739920582070377700,7.632377685546875,2.1683309078216553,0.4137015640735626,0.557536780834198
1739920582080359700,7.642359619140625,2.399182081222534,0.8686932921409607,0.7333053946495056
1739920582090342000,7.652341796875,2.5433290004730225,1.3370375633239746,0.8948636651039124
1739920582100323600,7.662323486328125,2.625505208969116,1.7197927236557007,1.063305139541626
1739920582110306800,7.672306884765625,2.6714978218078613,1.9976032972335815,1.2174444198608398
1739920582120288500,7.68228857421875,2.6869523525238037,2.2281177043914795,1.3254222869873047
1739920582130270700,7.692270751953125,2.688364267349243,2.4342381954193115,1.373592734336853
1739920582140252700,7.702252685546875,2.6817564964294434,2.5976004600524902,1.362024188041687
1739920582150235600,7.712235595703125,2.6784756183624268,2.674685001373291,1.2912278175354004
1739920582160217900,7.7222177734375,2.713585615158081,2.664285898208618,1.165128231048584
1739920582170199600,7.732199462890625,2.787766218185425,2.5747756958007812,1.0075297355651855
1739920582180181800,7.742181640625,2.8762803077697754,2.432779550552368,0.8441107273101807
1739920582190164700,7.752164794921875,2.972121000289917,2.2146928310394287,0.6934128403663635
1739920582200146700,7.762146728515625,3.091395854949951,1.8988876342773438,0.5204839110374451
1739920582210129000,7.77212890625,3.2274906635284424,1.5346348285675049,0.25626134872436523
1739920582220110600,7.782110595703125,3.3761463165283203,1.1866353750228882,-0.12463486939668655
1739920582230093800,7.79209375,3.5247421264648438,0.8280580043792725,-0.5800460577011108
1739920582240075800,7.80207568359375,3.690047025680542,0.44958606362342834,-1.0389819145202637
1739920582250057700,7.8120576171875,3.8945720195770264,0.05697327107191086,-1.416574478149414
1739920582260040700,7.822040771484375,4.143925666809082,-0.33143919706344604,-1.6639091968536377
1739920582270022700,7.832022705078125,4.413015365600586,-0.7038577795028687,-1.8026602268218994
1739920582280004900,7.8420048828125,4.6822896003723145,-1.033170461654663,-1.8539457321166992
1739920582289986600,7.851986572265625,4.931705474853516,-1.3260606527328491,-1.8349864482879639
1739920582299969800,7.8619697265625,5.1377692222595215,-1.5366442203521729,-1.7736610174179077
1739920582309951700,7.87195166015625,5.288799285888672,-1.6498253345489502,-1.6880760192871094
1739920582319933700,7.88193359375,5.402737617492676,-1.6802250146865845,-1.6242600679397583
1739920582329916700,7.891916748046875,5.499806880950928,-1.6507313251495361,-1.5794278383255005
1739920582339899000,7.90189892578125,5.551602363586426,-1.538515329360962,-1.5629234313964844
1739920582349880600,7.911880615234375,5.554290294647217,-1.3617043495178223,-1.5498130321502686
1739920582359862800,7.92186279296875,5.499655723571777,-1.1813603639602661,-1.5469822883605957
1739920582369845500,7.931845458984375,5.41218900680542,-1.0264209508895874,-1.554664969444275
1739920582379827700,7.94182763671875,5.292269706726074,-0.9195641875267029,-1.568708896636963
1739920582389809700,7.9518095703125,5.161225318908691,-0.9205988645553589,-1.5574301481246948
1739920582399791600,7.96179150390625,5.008229732513428,-1.0536469221115112,-1.5061073303222656
1739920582409774800,7.97177490234375,4.806275844573975,-1.2425813674926758,-1.436145305633545
1739920582419756500,7.981756591796875,4.560558795928955,-1.4192405939102173,-1.3399602174758911
1739920582429738800,7.99173876953125,4.2729644775390625,-1.5299402475357056,-1.2184572219848633
1739920582439720700,8.001720703125,3.945884943008423,-1.5730509757995605,-1.0567375421524048
1739920582449703700,8.01170361328125,3.600668430328369,-1.5502244234085083,-0.8632413148880005
1739920582459686000,8.021685791015624,3.241321325302124,-1.4711424112319946,-0.6309270858764648
1739920582469667600,8.03166748046875,2.87060284614563,-1.367832064628601,-0.35523027181625366
1739920582479650800,8.04165087890625,2.4986791610717773,-1.227307677268982,-0.07292827218770981
1739920582489632500,8.051632568359375,2.1355974674224854,-1.0620505809783936,0.20868663489818573
1739920582499614700,8.06161474609375,1.7605047225952148,-0.8918676376342773,0.4695485830307007
1739920582509597000,8.071596923828125,1.367834448814392,-0.7043014168739319,0.7003868818283081
1739920582519579600,8.08157958984375,0.943911075592041,-0.5413607358932495,0.8830069899559021
1739920582529561900,8.091561767578124,0.46879544854164124,-0.4186537265777588,0.9898895025253296
1739920582539543600,8.10154345703125,-0.06019116938114166,-0.26429450511932373,1.0149139165878296
1739920582549525800,8.11152587890625,-0.6396031379699707,-0.07432509958744049,0.9692361950874329
1739920582559508700,8.1215087890625,-1.231705904006958,0.07385957986116409,0.8852611184120178
1739920582569490700,8.13149072265625,-1.8040199279785156,0.13774321973323822,0.8132340312004089
1739920582579473000,8.141472900390625,-2.299879789352417,0.15555444359779358,0.798353910446167
1739920582589454600,8.15145458984375,-2.665635585784912,0.13883431255817413,0.8154295682907104
1739920582599437800,8.161437744140626,-2.90665602684021,0.06106042489409447,0.8427546620368958
1739920582609419800,8.171419677734375,-3.0785346031188965,-0.03351907804608345,0.8461376428604126
1739920582619402200,8.18140234375,-3.246137857437134,-0.09743068367242813,0.8146790862083435
1739920582629384000,8.191384033203125,-3.4572908878326416,-0.07230722159147263,0.7691195607185364
1739920582639367200,8.2013671875,-3.700446367263794,0.041188184171915054,0.7083004713058472
1739920582649349000,8.21134912109375,-3.9708456993103027,0.23017621040344238,0.6240372061729431
1739920582659331000,8.2213310546875,-4.270713806152344,0.46984365582466125,0.4924222230911255
1739920582669313300,8.231313232421876,-4.593456745147705,0.7552879452705383,0.2981475293636322
1739920582679295000,8.241294921875,-4.942409515380859,1.0379945039749146,0.062187474220991135
1739920582689277200,8.251277099609375,-5.306065559387207,1.2410259246826172,-0.19566750526428223
1739920582699260200,8.26126025390625,-5.634519100189209,1.3467363119125366,-0.47521552443504333
1739920582709242000,8.2712421875,-5.883700370788574,1.3378080129623413,-0.7818231582641602
1739920582719224300,8.281224365234374,-6.0573344230651855,1.2563408613204956,-1.1074382066726685
1739920582729206000,8.2912060546875,-6.161388874053955,1.1176661252975464,-1.437727689743042
1739920582739189200,8.301189208984376,-6.223621845245361,0.9353740811347961,-1.775081753730774
1739920582749171000,8.3111708984375,-6.260175704956055,0.7333917021751404,-2.114008665084839
1739920582759153200,8.321153076171875,-6.261765956878662,0.5349246859550476,-2.4288339614868164
1739920582769135400,8.33113525390625,-6.241469860076904,0.3725932836532593,-2.688995599746704
1739920582779118000,8.3411181640625,-6.225951671600342,0.2639711797237396,-2.862346887588501
1739920582789100300,8.351100341796876,-6.209217548370361,0.22278141975402832,-2.936224937438965
1739920582799082000,8.36108203125,-6.151968955993652,0.24397005140781403,-2.8999621868133545
1739920582809064200,8.371064208984375,-6.034637928009033,0.30708909034729004,-2.7331604957580566
1739920582819047200,8.381047119140625,-5.856547832489014,0.4183080494403839,-2.458040952682495
1739920582829029000,8.391029052734375,-5.6425909996032715,0.5761589407920837,-2.0972564220428467
1739920582839011000,8.401010986328124,-5.389867305755615,0.6788421273231506,-1.7047019004821777
1739920582848993000,8.410992919921876,-5.084420680999756,0.6937041878700256,-1.37801992893219
1739920582858976000,8.42097607421875,-4.779703140258789,0.7239087224006653,-1.2386908531188965
1739920582868958200,8.430958251953125,-4.549215793609619,0.7938275933265686,-1.2549134492874146
1739920582878940200,8.440940185546875,-4.3672003746032715,0.7464606165885925,-1.3372647762298584
1739920582888922000,8.450922119140625,-4.136861801147461,0.5960822701454163,-1.4610754251480103
1739920582898905000,8.460905029296875,-3.752401828765869,0.3941294550895691,-1.6645829677581787
1739920582908887000,8.470886962890624,-3.2120349407196045,0.0011230550007894635,-1.9537303447723389
1739920582918869000,8.480868896484376,-2.6604063510894775,-0.5199247002601624,-2.3011162281036377
1739920582928851200,8.490851318359375,-2.260498046875,-1.0778512954711914,-2.6255626678466797
1739920582938834200,8.500834228515625,-2.085087776184082,-1.5154942274093628,-2.8372905254364014
1739920582948816100,8.510816162109375,-2.019547939300537,-1.6937230825424194,-2.9023566246032715
1739920582958798000,8.520798095703125,-1.9478389024734497,-1.614267110824585,-2.826885938644409
1739920582968781300,8.53078125,-1.8339283466339111,-1.3416688442230225,-2.6380455493927
1739920582978763000,8.540762939453124,-1.6812243461608887,-1.0395931005477905,-2.343093156814575
1739920582988745200,8.5507451171875,-1.4700521230697632,-0.6620290875434875,-2.047839641571045
1739920582998727200,8.56072705078125,-1.2604831457138062,-0.3447938561439514,-1.7996503114700317
1739920583008710100,8.570710205078125,-1.1584391593933105,-0.15907913446426392,-1.549049735069275
1739920583018692000,8.580692138671875,-1.1964863538742065,-0.09861685335636139,-1.1859931945800781
1739920583028674000,8.590674072265625,-1.3595468997955322,-0.06782858073711395,-0.6686853766441345
1739920583038656300,8.60065625,-1.5625476837158203,0.05668751522898674,-0.08009909838438034
1739920583048639000,8.610638916015626,-1.6993860006332397,0.241469606757164,0.5213475823402405
1739920583058621200,8.62062109375,-1.5974154472351074,0.44557586312294006,1.1385351419448853
1739920583068603100,8.63060302734375,-1.114112377166748,0.606715738773346,1.7585272789001465
1739920583078585000,8.640585205078125,-0.2632971405982971,0.6772831678390503,2.3633291721343994
1739920583088568300,8.650568359375,0.8040887713432312,0.6980579495429993,2.894918203353882
1739920583098550000,8.660550048828124,1.8610239028930664,0.710625410079956,3.27377986907959
1739920583108532200,8.6705322265625,2.714376211166382,0.7615559697151184,3.4460701942443848
1739920583118514200,8.68051416015625,3.314312219619751,0.8300636410713196,3.4560470581054688
1739920583128497200,8.6904970703125,3.6661767959594727,0.9484725594520569,3.378736734390259
1739920583138479400,8.700479248046875,3.846921682357788,1.1337769031524658,3.292985677719116
1739920583148461000,8.7104609375,3.9862606525421143,1.3142433166503906,3.2704622745513916
1739920583158443300,8.720443359375,4.218918800354004,1.3959544897079468,3.268115997314453
1739920583168426000,8.730426025390624,4.557019233703613,1.290826678276062,3.180997371673584
1739920583178408200,8.740408203125,4.91246223449707,1.0617780685424805,2.970919370651245
1739920583188390100,8.75039013671875,5.156610012054443,0.8112899661064148,2.6440556049346924
1739920583198372000,8.7603720703125,5.1973981857299805,0.6181175708770752,2.265305519104004
1739920583208355000,8.77035498046875,5.049323558807373,0.5047739744186401,1.9189354181289673
1739920583218337000,8.7803369140625,4.814281463623047,0.5073489546775818,1.65641450881958
1739920583228319200,8.7903193359375,4.575029373168945,0.6132210493087769,1.498669147491455
1739920583238302200,8.80030224609375,4.394838333129883,0.6998537182807922,1.4744365215301514
1739920583248284200,8.8102841796875,4.351844310760498,0.679101824760437,1.635993480682373
1739920583258266000,8.82026611328125,4.421667098999023,0.5356085896492004,1.8672772645950317
1739920583268248000,8.830248046875,4.549992084503174,0.4410753846168518,1.939376950263977
1739920583278231000,8.84023095703125,4.602929592132568,0.41002586483955383,1.7976939678192139
1739920583288213000,8.850212890625,4.505197525024414,0.3906055688858032,1.5055749416351318
1739920583298195200,8.8601953125,4.321732521057129,0.34210699796676636,1.0802212953567505
1739920583308177200,8.87017724609375,4.104506969451904,0.22553618252277374,0.5677065849304199
1739920583318160100,8.88016015625,3.9336788654327393,0.08561210334300995,0.07646015286445618
1739920583328142000,8.89014208984375,3.84393048286438,-0.07336556166410446,-0.2726901173591614
1739920583338124000,8.9001240234375,3.8102893829345703,-0.20632919669151306,-0.45998916029930115
1739920583348106200,8.910106201171875,3.8513262271881104,-0.30776742100715637,-0.4740256369113922
1739920583358089200,8.920089111328124,3.9949731826782227,-0.49221500754356384,-0.30901509523391724
1739920583368071200,8.9300712890625,4.191629409790039,-0.639202356338501,-0.039379630237817764
1739920583378053000,8.94005322265625,4.391580581665039,-0.650859534740448,0.24205709993839264
1739920583388035000,8.95003515625,4.536137580871582,-0.5615261793136597,0.44403496384620667
1739920583398018000,8.96001806640625,4.62418270111084,-0.39323943853378296,0.5595951080322266
1739920583408000300,8.970000244140625,4.6373796463012695,-0.22183625400066376,0.6520169377326965
1739920583417982200,8.979982177734374,4.517031669616699,-0.027302727103233337,0.7779141664505005
1739920583427965200,8.989965087890624,4.375518798828125,0.20093923807144165,0.907293438911438
1739920583437947100,8.999947021484376,4.3960065841674805,0.6495460271835327,1.0510971546173096
1739920583447929000,9.00992919921875,4.505681991577148,1.26592218875885,1.2697962522506714
1739920583457911000,9.0199111328125,4.713237285614014,0.7811338901519775,1.407222867012024
1739920583467894000,9.02989404296875,4.781044006347656,0.5559409856796265,1.2776957750320435
1739920583477876200,9.039876220703125,4.558093070983887,0.6483303308486938,1.0206900835037231
1739920583487858200,9.049858154296874,4.18599271774292,0.5210146903991699,0.7762555480003357
1739920583497840000,9.059840087890626,3.737368583679199,0.1037176102399826,0.48379355669021606
1739920583507823000,9.069822998046876,3.2265915870666504,-0.38886040449142456,0.10478366911411285
1739920583517805000,9.07980517578125,2.6929879188537598,-0.8268105983734131,-0.34426045417785645
1739920583527787300,9.089787353515625,2.1716196537017822,-1.2012827396392822,-0.8187369108200073
1739920583537769000,9.09976904296875,1.7122911214828491,-1.5560200214385986,-1.2982656955718994
1739920583547752200,9.109752197265625,1.3203537464141846,-1.7610938549041748,-1.7293415069580078
1739920583557734000,9.11973388671875,0.9565755128860474,-1.79118013381958,-2.0471725463867188
1739920583567716000,9.129716064453126,0.5972828269004822,-1.6246771812438965,-2.246842384338379
1739920583577698300,9.1396982421875,0.283437043428421,-1.4110913276672363,-2.2679476737976074
1739920583587681000,9.149680908203125,0.007410245481878519,-1.1985194683074951,-2.0763113498687744
1739920583597663200,9.159663330078125,-0.2347848117351532,-1.0313951969146729,-1.6946746110916138
1739920583607645000,9.16964501953125,-0.4541246294975281,-1.0090173482894897,-1.192043423652649
1739920583617628700,9.179628662109375,-0.8021406531333923,-0.7654087543487549,-0.8255751132965088
1739920583627610400,9.1896103515625,-1.1953125,-0.6092162132263184,-0.5809187889099121
1739920583637592600,9.199592529296876,-1.5819648504257202,-0.5372099280357361,-0.3142327666282654
1739920583647574500,9.209574462890625,-1.9321292638778687,-0.47198644280433655,-0.02732563018798828
1739920583657557500,9.2195576171875,-2.165261745452881,-0.49612027406692505,0.27062857151031494
1739920583667539700,9.229539794921875,-2.334048271179199,-0.425367534160614,0.5004132986068726
1739920583677521400,9.239521484375,-2.4351515769958496,-0.3107733130455017,0.6972504258155823
1739920583687503600,9.249503662109374,-2.4726603031158447,-0.043601274490356445,0.8197862505912781
1739920583697486300,9.259486328125,-2.4298737049102783,-0.10783964395523071,0.8437355160713196
1739920583707468500,9.269468505859376,-2.3485541343688965,-0.3088092505931854,0.7953975200653076
1739920583717450500,9.279450439453125,-2.284717559814453,-0.4370548129081726,0.6772913932800293
1739920583727432400,9.289432373046875,-2.2986388206481934,-0.4483535587787628,0.48404788970947266
1739920583737415700,9.299415771484375,-2.237501859664917,-0.49376311898231506,0.20868104696273804
1739920583747397400,9.3093974609375,-2.128984212875366,-0.6092851758003235,-0.1324152946472168
1739920583757379600,9.319379638671874,-2.0374767780303955,-0.7945202589035034,-0.49827343225479126
1739920583767361300,9.329361328125,-1.9714704751968384,-1.0715854167938232,-0.8826131224632263
1739920583777344500,9.339344482421875,-1.914113998413086,-1.3357566595077515,-1.2424224615097046
1739920583787326500,9.349326416015625,-1.9588912725448608,-1.4795808792114258,-1.6732020378112793
1739920583797308400,9.359308349609375,-2.233078956604004,-1.430525779724121,-2.2556350231170654
1739920583807291400,9.36929150390625,-2.5043978691101074,-1.1350523233413696,-2.7743782997131348
1739920583817273600,9.379273681640624,-2.590649366378784,-0.9425249099731445,-3.1321582794189453
1739920583827255600,9.389255615234376,-2.443467378616333,-1.0842878818511963,-3.3176610469818115
1739920583837237500,9.399237548828125,-2.233203649520874,-1.1749211549758911,-3.380438804626465
1739920583847220500,9.409220458984375,-2.040205240249634,-1.085727572441101,-3.380190134048462
1739920583857202400,9.419202392578125,-1.8983694314956665,-0.8550243973731995,-3.39658784866333
1739920583867184400,9.429184326171875,-1.819912075996399,-0.5608894228935242,-3.434446334838867
1739920583877166600,9.43916650390625,-1.789245843887329,-0.2661549746990204,-3.434256076812744
1739920583887149600,9.449149658203124,-1.8264328241348267,0.04165636748075485,-3.37798810005188
1739920583897131500,9.459131591796876,-1.9151108264923096,0.2763160169124603,-3.2751011848449707
1739920583907113500,9.469113525390625,-2.1463253498077393,0.43141213059425354,-3.204641342163086
1739920583917095400,9.479095458984375,-2.1888489723205566,0.3402901887893677,-3.169745683670044
1739920583927078400,9.489078369140625,-2.1948647499084473,0.2943946123123169,-3.1385598182678223
1739920583937060600,9.499060546875,-2.254757881164551,0.2781376242637634,-3.1143224239349365
1739920583947042600,9.50904248046875,-2.3560714721679688,0.27323392033576965,-3.1073384284973145
1739920583957024500,9.5190244140625,-2.4963672161102295,0.056945040822029114,-3.1781654357910156
1739920583967007500,9.529007568359376,-2.621349811553955,-0.3004666268825531,-3.336183786392212
1739920583976989400,9.538989501953125,-2.6647963523864746,-0.5237281918525696,-3.5205907821655273
1739920583986971600,9.5489716796875,-2.6316640377044678,-0.6060909628868103,-3.671931266784668
1739920583996954400,9.558954345703125,-2.630222797393799,-0.6512762904167175,-3.748225212097168
1739920584006936600,9.5689365234375,-2.6774957180023193,-0.5461218953132629,-3.690426826477051
1739920584016918500,9.57891845703125,-2.5901052951812744,-0.6689801812171936,-3.3397321701049805
1739920584026900500,9.588900390625,-2.3477261066436768,-0.3849199712276459,-2.931793689727783
1739920584036883700,9.5988837890625,-1.9575003385543823,-0.11650130897760391,-2.546276569366455
1739920584046865400,9.608865478515625,-1.6465275287628174,-0.05843774229288101,-2.2600502967834473
1739920584056847600,9.61884765625,-1.4681532382965088,-0.006770288106054068,-2.10305118560791
1739920584066829600,9.62882958984375,-1.4330565929412842,0.14650501310825348,-2.061779260635376
1739920584076812500,9.6388125,-1.474474549293518,0.3042895793914795,-2.1009645462036133
1739920584086794500,9.64879443359375,-1.4794960021972656,0.3212640583515167,-2.1535420417785645
1739920584096776400,9.6587763671875,-1.4361660480499268,0.3047846555709839,-2.142920732498169
1739920584106758700,9.668758544921875,-1.3669739961624146,0.29559090733528137,-2.0004305839538574
1739920584116741400,9.678741455078125,-1.244627833366394,0.27440279722213745,-1.8557194471359253
1739920584126723600,9.6887236328125,-1.0917348861694336,0.16809552907943726,-1.6762100458145142
1739920584136705300,9.698705322265624,-0.9496608376502991,0.09691748768091202,-1.4560487270355225
1739920584146688500,9.7086884765625,-0.8283674716949463,0.13647449016571045,-1.184029459953308
1739920584156670500,9.71867041015625,-0.6951580047607422,0.305591881275177,-0.8524392247200012
1739920584166652400,9.72865234375,-0.5724475383758545,0.5097705721855164,-0.5274438261985779
1739920584176634600,9.738634521484375,-0.5406715273857117,0.5949925184249878,-0.2524399757385254
1739920584186617600,9.74861767578125,-0.5881420969963074,0.5559154152870178,-0.00833755824714899
1739920584196599600,9.758599609375,-0.6136375665664673,0.42347803711891174,0.27465951442718506
1739920584206581500,9.76858154296875,-0.5913711786270142,0.3945712745189667,0.6208523511886597
1739920584216563500,9.7785634765625,-0.5308020710945129,0.5228860974311829,0.9885706901550293
1739920584226546400,9.78854638671875,-0.41504940390586853,0.7170252203941345,1.370398998260498
1739920584236528400,9.7985283203125,-0.2223944514989853,0.8737807273864746,1.7923250198364258
1739920584246510600,9.808510498046875,0.03753912076354027,0.9564788341522217,2.2664811611175537
1739920584256492500,9.818492431640625,0.3601989150047302,1.2390905618667603,2.7003109455108643
1739920584266475500,9.8284755859375,0.7364394068717957,1.6296396255493164,3.1224915981292725
1739920584276457500,9.83845751953125,1.154447078704834,1.8744901418685913,3.5560548305511475
1739920584286439400,9.848439453125,1.6211223602294922,1.8472281694412231,3.9746639728546143
1739920584296422400,9.85842236328125,1.933621883392334,1.6446079015731812,4.22664737701416
1739920584306404600,9.868404541015625,2.1887974739074707,1.3490338325500488,4.281391620635986
1739920584316386600,9.878386474609375,2.3041648864746094,1.0057555437088013,4.251480579376221
1739920584326368500,9.888368408203124,2.2971630096435547,0.7753806710243225,4.143243312835693
1739920584336351500,9.8983515625,2.3129146099090576,0.5313591957092285,4.063116073608398
1739920584346333400,9.90833349609375,2.4230380058288574,0.3174911439418793,4.063788890838623
1739920584356315600,9.918315673828126,2.630553960800171,0.09981634467840195,4.133399963378906
1739920584366297600,9.928297607421875,2.8930482864379883,-0.12385616451501846,4.183162212371826
1739920584376280600,9.938280517578125,3.1441352367401123,-0.30875757336616516,4.112939834594727
1739920584386262500,9.948262451171875,3.3137898445129395,-0.38218677043914795,3.8483083248138428
1739920584396244500,9.958244384765624,3.4137845039367676,-0.3421083390712738,3.4459354877471924
1739920584406227700,9.968227783203124,3.482839584350586,-0.20647834241390228,3.064138412475586
1739920584416209400,9.97820947265625,3.566624641418457,-0.06365621089935303,2.8118128776550293
1739920584426191600,9.988191650390625,3.7225260734558105,-0.016455672681331635,2.671627998352051
1739920584436173300,9.99817333984375,3.9330708980560303,-0.08939113467931747,2.599280595779419
1739920584446156500,10.008156494140625,4.112267971038818,-0.2535960376262665,2.5578794479370117
1739920584456138500,10.018138427734375,4.197368144989014,-0.4340672791004181,2.490419864654541
1739920584466120400,10.028120361328124,4.230260848999023,-0.5575708746910095,2.348078727722168
1739920584476102700,10.0381025390625,4.235392093658447,-0.589443027973175,2.1629905700683594
1739920584486085400,10.04808544921875,4.208390235900879,-0.5303331017494202,2.0168800354003906
1739920584496067600,10.058067626953125,4.179018497467041,-0.4114173650741577,1.928464651107788
1739920584506049300,10.06804931640625,4.172560214996338,-0.28496596217155457,1.9276111125946045
1739920584516031500,10.078031494140625,4.171304225921631,-0.2091931700706482,1.9691972732543945
1739920584526014500,10.088014404296874,4.143892288208008,-0.206839457154274,1.9654173851013184
1739920584535996400,10.097996337890624,4.104272365570068,-0.26344576478004456,1.8626574277877808
1739920584545978600,10.107978515625,4.015441417694092,-0.35198095440864563,1.6548073291778564
1739920584555961600,10.117961669921876,3.8355870246887207,-0.4324459731578827,1.3914779424667358
1739920584565943600,10.127943603515625,3.6203501224517822,-0.5059646368026733,1.1662706136703491
1739920584575925500,10.137925537109375,3.4590795040130615,-0.5762622356414795,1.0560189485549927
1739920584585907500,10.147907470703124,3.3860456943511963,-0.6220797896385193,1.0742491483688354
1739920584595890400,10.157890380859374,3.310272216796875,-0.5843691825866699,1.1561259031295776
1739920584605872400,10.167872314453126,3.2031350135803223,-0.4741784930229187,1.271604299545288
1739920584615854600,10.1778544921875,3.042560577392578,-0.39246153831481934,1.3905620574951172
1739920584625836500,10.18783642578125,2.822899580001831,-0.3134463429450989,1.4632450342178345
1739920584635819800,10.19781982421875,2.5745034217834473,-0.27350425720214844,1.4630768299102783
1739920584645801500,10.207801513671875,2.3156518936157227,-0.25017547607421875,1.4106074571609497
1739920584655783700,10.21778369140625,2.0323476791381836,-0.24623213708400726,1.3127938508987427
1739920584665765600,10.227765625,1.720680594444275,-0.25917989015579224,1.1581701040267944
1739920584675748600,10.23774853515625,1.3853833675384521,-0.26823678612709045,0.9908812642097473
1739920584685730800,10.247730712890625,1.0371278524398804,-0.20036745071411133,0.8497012257575989
1739920584695712500,10.25771240234375,0.6968211531639099,-0.04420607537031174,0.755691647529602
1739920584705695700,10.26769580078125,0.31892791390419006,0.17204660177230835,0.6643670797348022
1739920584715677400,10.277677490234375,-0.10804950445890427,0.3882436156272888,0.5476886630058289
1739920584725659600,10.28765966796875,-0.5365004539489746,0.5513209700584412,0.4063088893890381
1739920584735641600,10.2976416015625,-0.9472382068634033,0.6252822279930115,0.2422403246164322
1739920584745624600,10.30762451171875,-1.351212501525879,0.6309254765510559,0.1099504679441452
1739920584755606500,10.3176064453125,-1.7388098239898682,0.5890288949012756,0.0504746250808239
1739920584765588500,10.32758837890625,-2.0813558101654053,0.567488968372345,0.07046271115541458
1739920584775571700,10.33757177734375,-2.3503611087799072,0.5770449638366699,0.12953536212444305
1739920584785553700,10.3475537109375,-2.5487353801727295,0.6368667483329773,0.1846630573272705
1739920584795535600,10.35753564453125,-2.736321210861206,0.7942060232162476,0.20434807240962982
1739920584805517600,10.367517578125,-2.940439462661743,1.0226002931594849,0.13408510386943817
1739920584815500500,10.37750048828125,-3.139488697052002,1.2224137783050537,-0.045636460185050964
1739920584825482500,10.387482421875,-3.3648688793182373,1.3585927486419678,-0.32774192094802856
1739920584835464400,10.39746435546875,-3.623297691345215,1.4165582656860352,-0.6576948165893555
1739920584845446700,10.40744677734375,-3.909571886062622,1.4164466857910156,-1.0359094142913818
1739920584855429600,10.4174296875,-4.211134433746338,1.396559238433838,-1.4393237829208374
1739920584865411600,10.42741162109375,-4.489684104919434,1.3569878339767456,-1.8278816938400269
1739920584875393500,10.4373935546875,-4.724300861358643,1.2663158178329468,-2.133206605911255
1739920584885375500,10.44737548828125,-4.873922348022461,1.1497231721878052,-2.335561513900757
1739920584895358500,10.4573583984375,-4.950746059417725,1.0205765962600708,-2.427525043487549
1739920584905340700,10.467340576171875,-5.005295753479004,0.9014560580253601,-2.4482221603393555
1739920584915322600,10.477322509765624,-5.051468372344971,0.8400009274482727,-2.424593925476074
1739920584925305600,10.4873056640625,-5.059123992919922,0.8402717709541321,-2.374872922897339
1739920584935287600,10.49728759765625,-5.016971588134766,0.8950285315513611,-2.317261219024658
1739920584945269500,10.50726953125,-4.970592975616455,0.9741145372390747,-2.26751971244812
1739920584955251700,10.517251708984375,-4.949338912963867,1.018255352973938,-2.2156050205230713
1739920584965234400,10.527234375,-4.9516730308532715,1.0607157945632935,-2.1588222980499268
1739920584975216600,10.537216552734375,-4.978505611419678,1.1237733364105225,-2.059572458267212
1739920584985198600,10.547198486328124,-4.985591888427734,1.1584596633911133,-1.8875164985656738
1739920584995180500,10.5571806640625,-4.968477249145508,1.176424503326416,-1.6821622848510742
1739920585005163800,10.567163818359376,-4.914544105529785,1.2152276039123535,-1.4979349374771118
1739920585015145500,10.5771455078125,-4.8282928466796875,1.2581814527511597,-1.3762614727020264
1739920585025127700,10.587127685546875,-4.735734939575195,1.3118846416473389,-1.2946795225143433
1739920585035110400,10.5971103515625,-4.657364845275879,1.3383686542510986,-1.219616174697876
1739920585045092600,10.607092529296875,-4.575953006744385,1.3054254055023193,-1.1333236694335938
1739920585055074800,10.61707470703125,-4.482059001922607,1.202493667602539,-1.0474798679351807
1739920585065056500,10.627056396484376,-4.316913604736328,1.0164116621017456,-0.9677684903144836
1739920585075039700,10.637039794921876,-4.093104362487793,0.7603881359100342,-0.922683596611023
1739920585085021400,10.647021484375,-3.862262487411499,0.5256496667861938,-0.9284317493438721
1739920585095003600,10.657003662109375,-3.653780460357666,0.3372986614704132,-0.9929404258728027
1739920585104985600,10.666985595703125,-3.454549551010132,0.16224269568920135,-1.082129955291748
1739920585114968600,10.676968505859374,-3.239525079727173,0.057916294783353806,-1.15384042263031
1739920585124950500,10.686950439453126,-2.9999120235443115,0.022159630432724953,-1.1808788776397705
1739920585134932500,10.696932373046875,-2.7381789684295654,0.014958975836634636,-1.1853899955749512
1739920585144915500,10.70691552734375,-2.4638266563415527,0.013040168210864067,-1.1914396286010742
1739920585154897700,10.716897705078125,-2.192103385925293,0.0007147924043238163,-1.1787723302841187
1739920585164879600,10.726879638671875,-1.9628623723983765,-0.05410264804959297,-1.1217423677444458
1739920585174861600,10.736861572265624,-1.7950770854949951,-0.15278048813343048,-1.015251874923706
1739920585184844500,10.746844482421874,-1.6850022077560425,-0.2748584747314453,-0.8696499466896057
1739920585194826500,10.756826416015626,-1.5520844459533691,-0.31494835019111633,-0.7222838997840881
1739920585204808400,10.766808349609375,-1.3145179748535156,-0.32410991191864014,-0.6423834562301636
1739920585214790700,10.776790771484375,-1.0832916498184204,-0.3225431740283966,-0.6094534993171692
1739920585224773600,10.786773681640625,-0.9431997537612915,-0.3567972779273987,-0.42864641547203064
1739920585234755600,10.796755615234375,-0.9343929886817932,-0.37773770093917847,-0.017175791785120964
1739920585244737500,10.806737548828124,-0.9833836555480957,-0.3200778663158417,0.5364866256713867
1739920585254720800,10.816720703125,-0.9505980610847473,-0.19126209616661072,1.119559407234192
1739920585264702500,10.826702392578126,-0.7340220808982849,-0.06505969166755676,1.6577125787734985
1739920585274684700,10.8366845703125,-0.3113720118999481,0.07343640178442001,2.1117115020751953
1739920585284666600,10.84666650390625,0.3225114643573761,0.290612131357193,2.4100098609924316
1739920585294649600,10.856649658203125,1.1123019456863403,0.5615530610084534,2.504788398742676
1739920585304631600,10.866631591796875,1.9196819067001343,0.8174261450767517,2.4308550357818604
1739920585314613500,10.876613525390624,2.619032859802246,1.0073412656784058,2.2591004371643066
1739920585324595700,10.886595703125,3.1336512565612793,1.0527139902114868,2.0827977657318115
1739920585334578400,10.896578369140625,3.4977405071258545,0.9423837661743164,1.9008296728134155
1739920585344560600,10.906560546875,3.7492029666900635,0.7680016160011292,1.7361301183700562
1739920585354542600,10.91654248046875,3.9117889404296875,0.594453752040863,1.647605299949646
1739920585364525600,10.926525634765625,4.074464321136475,0.4985666573047638,1.6064743995666504
1739920585374507800,10.9365078125,4.271087646484375,0.4571622312068939,1.5888890027999878
1739920585384489500,10.946489501953126,4.484397888183594,0.43481671810150146,1.588503360748291
1739920585394471700,10.9564716796875,4.642434120178223,0.44188392162323,1.6124186515808105
1739920585404454400,10.966454345703125,4.705564022064209,0.44485947489738464,1.6463783979415894
1739920585414436600,10.9764365234375,4.70673131942749,0.4308381974697113,1.71843421459198
1739920585424418600,10.98641845703125,4.686744689941406,0.36858469247817993,1.8310185670852661
1739920585434400500,10.996400390625,4.640316963195801,0.2993997633457184,1.9407951831817627
1739920585444383700,11.0063837890625,4.586461067199707,0.2638137936592102,1.979118824005127
1739920585454365400,11.016365478515626,4.532912731170654,0.2704258859157562,1.9128258228302002
1739920585464347600,11.02634765625,4.473790645599365,0.32514268159866333,1.7290102243423462
1739920585474330600,11.03633056640625,4.405060768127441,0.38777968287467957,1.4717680215835571
1739920585484312600,11.0463125,4.327214241027832,0.44534391164779663,1.1932878494262695
1739920585494294500,11.05629443359375,4.265645980834961,0.4984915554523468,0.9591374397277832
1739920585504276500,11.0662763671875,4.236252307891846,0.5335374474525452,0.7806790471076965
1739920585514259500,11.076259521484374,4.2332844734191895,0.5569846630096436,0.6538103222846985
1739920585524241700,11.08624169921875,4.229055881500244,0.5557751059532166,0.5508578419685364
1739920585534223600,11.0962236328125,4.220562934875488,0.5091617703437805,0.4549395442008972
1739920585544206600,11.10620654296875,4.1965484619140625,0.4485873878002167,0.3469100296497345
1739920585554188500,11.1161884765625,4.170612812042236,0.3800780773162842,0.22499050199985504
1739920585564170500,11.12617041015625,4.136467456817627,0.2972891926765442,0.0937214344739914
1739920585574152400,11.13615234375,4.089231967926025,0.16061604022979736,-0.03688904270529747
1739920585584135400,11.146135498046876,4.038668632507324,-0.053167082369327545,-0.15579386055469513
1739920585594117600,11.15611767578125,3.9765660762786865,-0.30460119247436523,-0.23827461898326874
1739920585604099600,11.166099609375,3.915494918823242,-0.5298662781715393,-0.2565345764160156
1739920585614081500,11.17608154296875,3.8770649433135986,-0.7091683745384216,-0.20144310593605042
1739920585624064000,11.18606396484375,3.873983144760132,-0.8437110185623169,-0.10628968477249146
1739920585634046000,11.1960458984375,3.898993730545044,-0.961249589920044,0.02978452667593956
1739920585644028000,11.20602783203125,3.913123607635498,-1.0372191667556763,0.1701512187719345
1739920585654011100,11.21601123046875,3.888230562210083,-1.0557923316955566,0.31820380687713623
1739920585663992800,11.225992919921875,3.8142714500427246,-1.0271998643875122,0.4987916946411133
1739920585673975000,11.23597509765625,3.687701463699341,-0.9674683809280396,0.7190945148468018
1739920585683956700,11.245956787109375,3.5375075340270996,-0.8917775750160217,0.9669727683067322
1739920585693940000,11.25593994140625,3.365887403488159,-0.8265711665153503,1.2127516269683838
1739920585703922000,11.265921875,3.1657536029815674,-0.8257594108581543,1.4443880319595337
1739920585713903900,11.27590380859375,2.946096897125244,-0.8670054078102112,1.642346978187561
1739920585723886000,11.285885986328125,2.7045929431915283,-0.9271875023841858,1.7919926643371582
1739920585733869000,11.295869140625,2.405623197555542,-0.9582679271697998,1.876454472541809
1739920585743851000,11.30585107421875,2.0325868129730225,-0.9406428933143616,1.8682693243026733
1739920585753833000,11.3158330078125,1.5724208354949951,-0.8853495121002197,1.7534494400024414
1739920585763816000,11.32581591796875,1.0564013719558716,-0.7766028046607971,1.5378029346466064
1739920585773798000,11.3357978515625,0.500234842300415,-0.5951432585716248,1.2529650926589966
1739920585783779800,11.34577978515625,-0.0674794390797615,-0.41703370213508606,0.9843570590019226
1739920585793762000,11.355761962890625,-0.608582079410553,-0.31410279870033264,0.7943540811538696
1739920585803745000,11.3657451171875,-1.1109000444412231,-0.2682921588420868,0.6676366329193115
1739920585813727000,11.37572705078125,-1.5728789567947388,-0.22072891891002655,0.5598065853118896
1739920585823709000,11.385708984375,-1.9838318824768066,-0.16976533830165863,0.4639732539653778
1739920585833691000,11.39569091796875,-2.3310441970825195,-0.1259573996067047,0.3818903863430023
1739920585843673900,11.405673828125,-2.6257739067077637,-0.06568393856287003,0.3091796934604645
1739920585853656000,11.415656005859375,-2.9105095863342285,-0.0007701861904934049,0.22171960771083832
1739920585863638000,11.425637939453125,-3.1986591815948486,0.08206158131361008,0.1360742151737213
1739920585873621000,11.43562109375,-3.4867115020751953,0.15670865774154663,0.06767012178897858
1739920585883603000,11.44560302734375,-3.773341655731201,0.19718417525291443,0.026071282103657722
1739920585893585000,11.4555849609375,-4.035449028015137,0.22062984108924866,-0.004479969386011362
1739920585903567000,11.465567138671876,-4.288147449493408,0.24071061611175537,-0.027636155486106873
1739920585913549800,11.4755498046875,-4.516387939453125,0.2852506637573242,-0.07022809237241745
1739920585923532000,11.485531982421875,-4.697137355804443,0.3647574484348297,-0.1446719616651535
1739920585933514000,11.495513916015625,-4.811830997467041,0.45762667059898376,-0.2687142789363861
1739920585943497000,11.5054970703125,-4.891931056976318,0.5461695790290833,-0.4683224558830261
1739920585953479200,11.515479248046875,-4.9746856689453125,0.5965901613235474,-0.7213126420974731
1739920585963460900,11.5254609375,-5.075557708740234,0.6024496555328369,-1.0181376934051514
1739920585973443000,11.535443115234376,-5.193984508514404,0.565081775188446,-1.3217313289642334
1739920585983425800,11.54542578125,-5.313234329223633,0.47684192657470703,-1.5916187763214111
1739920585993408000,11.555407958984375,-5.424520492553711,0.3622218668460846,-1.7847265005111694
1739920586003390000,11.565389892578125,-5.5200276374816895,0.2628907561302185,-1.8878430128097534
1739920586013372000,11.575371826171875,-5.5898356437683105,0.17292331159114838,-1.8975903987884521
1739920586023355000,11.58535498046875,-5.6432623863220215,0.1054510548710823,-1.8142929077148438
1739920586033336800,11.5953369140625,-5.660484790802002,0.07739812135696411,-1.6608338356018066
1739920586043319000,11.605319091796876,-5.62678861618042,0.08408824354410172,-1.4551302194595337
1739920586053302000,11.615302001953125,-5.520899772644043,0.13914963603019714,-1.2072428464889526
1739920586063284000,11.625283935546875,-5.3626484870910645,0.20096106827259064,-0.9596956372261047
1739920586073266000,11.635265869140625,-5.154464244842529,0.2164100706577301,-0.7454560399055481
1739920586083247900,11.645247802734374,-4.915240287780762,0.25713005661964417,-0.6141904592514038
1739920586093230800,11.65523095703125,-4.689420700073242,0.34775370359420776,-0.5682980418205261
1739920586103213000,11.665213134765626,-4.5076141357421875,0.37995612621307373,-0.5785980820655823
1739920586113195000,11.675195068359375,-4.34612512588501,0.2746123969554901,-0.6656919717788696
1739920586123178000,11.685177978515625,-4.203446388244629,0.09385885298252106,-0.8496405482292175
1739920586133160000,11.695159912109375,-4.107606410980225,-0.1401190310716629,-1.1430045366287231
1739920586143142000,11.705141845703125,-4.008020401000977,-0.4089329242706299,-1.50407075881958
1739920586153123800,11.715123779296874,-3.894155502319336,-0.7675794959068298,-1.8457807302474976
1739920586163106800,11.72510693359375,-3.779879093170166,-1.0736688375473022,-2.0822951793670654
1739920586173089000,11.735089111328126,-3.67332124710083,-1.213268756866455,-2.160989761352539
1739920586183071000,11.745071044921875,-3.539536237716675,-1.2243350744247437,-2.0915937423706055
1739920586193053000,11.755052978515625,-3.3538711071014404,-1.1451451778411865,-1.9491292238235474
1739920586203036200,11.7650361328125,-3.1708476543426514,-1.0440629720687866,-1.8327254056930542
1739920586213017900,11.775017822265625,-2.9802017211914062,-0.8999875783920288,-1.748551368713379
1739920586223000000,11.785,-2.807755708694458,-0.7019525170326233,-1.6710574626922607
1739920586232982800,11.794982666015626,-2.6765480041503906,-0.49767687916755676,-1.5522756576538086
1739920586242965000,11.804965087890626,-2.5656867027282715,-0.31723442673683167,-1.3339121341705322
1739920586252947000,11.814947021484375,-2.418855905532837,-0.21292398869991302,-1.0788614749908447
1739920586262929000,11.824928955078125,-2.238311290740967,-0.2136712670326233,-0.8521928787231445
1739920586272912100,11.834912109375,-2.0502138137817383,-0.27640336751937866,-0.6575976014137268
1739920586282893800,11.844893798828124,-1.7823079824447632,-0.2664620578289032,-0.5689257979393005
1739920586292876000,11.8548759765625,-1.4943686723709106,-0.32269468903541565,-0.566130518913269
1739920586302859000,11.86485888671875,-1.1970001459121704,-0.45185160636901855,-0.5112813711166382
1739920586312841000,11.874841064453125,-0.9032699465751648,-0.5564405918121338,-0.3355734646320343
1739920586322824000,11.884823974609375,-0.6133821606636047,-0.6201902627944946,-0.10419884324073792
1739920586332806000,11.894805908203125,-0.18145421147346497,-0.7299253344535828,0.20310863852500916
1739920586342788000,11.9047880859375,0.3180101811885834,-0.6735509634017944,0.5346434116363525
1739920586352771000,11.91477099609375,0.8484194874763489,-0.5008857250213623,0.8978040814399719
1739920586362753000,11.9247529296875,1.4224843978881836,-0.3191090226173401,1.2647954225540161
1739920586372735000,11.93473486328125,1.9824811220169067,-0.1411166489124298,1.5853265523910522
1739920586382717000,11.944717041015625,2.5054423809051514,0.0674767792224884,1.8448837995529175
1739920586392700000,11.954699951171875,2.9731597900390625,0.3105008900165558,2.0317111015319824
1739920586402682000,11.96468212890625,3.328137159347534,0.5812572836875916,2.171388864517212
1739920586412664000,11.9746640625,3.6066572666168213,0.8262694478034973,2.2664475440979004
1739920586422647000,11.98464697265625,3.818297863006592,1.0112134218215942,2.3355321884155273
1739920586432629000,11.99462890625,3.970444679260254,1.1961073875427246,2.3664932250976562
1739920586442611000,12.00461083984375,4.056514739990234,1.3938236236572266,2.3579607009887695
1739920586452593000,12.014593017578125,4.10338830947876,1.567867398262024,2.3365321159362793
1739920586462575900,12.024575927734375,4.152042388916016,1.7017141580581665,2.29019832611084
1739920586472558000,12.03455810546875,4.227523326873779,1.7623229026794434,2.2112629413604736
1739920586482539800,12.044539794921874,4.312445163726807,1.7062937021255493,2.102468252182007
1739920586492522000,12.05452197265625,4.407189846038818,1.5254501104354858,1.9590785503387451
1739920586502505000,12.0645048828125,4.483853340148926,1.2355009317398071,1.71933913230896
1739920586512487000,12.07448681640625,4.548463344573975,0.938818633556366,1.357099175453186
1739920586522469000,12.08446923828125,4.579404830932617,0.6881714463233948,0.8400387763977051
1739920586532451800,12.094451904296875,4.556143283843994,0.46541082859039307,0.22848190367221832
1739920586542434000,12.10443408203125,4.478843688964844,0.26165077090263367,-0.3703301250934601
1739920586552415700,12.114415771484374,4.3895769119262695,0.0714840367436409,-0.8795499801635742
1739920586562398000,12.12439794921875,4.338253974914551,-0.10018918663263321,-1.246738314628601
1739920586572381000,12.134380859375,4.343218803405762,-0.2551712989807129,-1.4219378232955933
1739920586582363000,12.14436279296875,4.380209922790527,-0.3822648227214813,-1.4238412380218506
1739920586592345000,12.154344970703125,4.455446243286133,-0.4552442133426666,-1.3149181604385376
1739920586602328000,12.164328125,4.55804443359375,-0.45437923073768616,-1.1324876546859741
1739920586612310000,12.17431005859375,4.667831897735596,-0.3664988875389099,-0.9193463921546936
1739920586622292000,12.1842919921875,4.745609283447266,-0.18899761140346527,-0.7378705739974976
1739920586632274000,12.19427392578125,4.785529136657715,0.009613478556275368,-0.5925594568252563
1739920586642257000,12.2042568359375,4.788379669189453,0.1523575782775879,-0.4927487075328827
1739920586652238800,12.21423876953125,4.776918411254883,0.21990306675434113,-0.4427683651447296
1739920586662221000,12.224220947265625,4.735386848449707,0.2482670694589615,-0.4517480134963989
1739920586672203000,12.234203125,4.670759677886963,0.2364937663078308,-0.497130423784256
1739920586682185000,12.24418505859375,4.5674567222595215,0.19537055492401123,-0.5459301471710205
1739920586692167200,12.254167236328126,4.433447360992432,0.09981741011142731,-0.5619842410087585
1739920586702150000,12.26414990234375,4.284358501434326,-0.01655101403594017,-0.5450524091720581
1739920586712132000,12.274132080078125,4.133014678955078,-0.14245834946632385,-0.5022817850112915
1739920586722113800,12.28411376953125,3.9750778675079346,-0.27667179703712463,-0.4248839020729065
1739920586732097000,12.294096923828125,3.820143461227417,-0.40966394543647766,-0.3069165349006653
1739920586742079000,12.304078857421874,3.6737611293792725,-0.5401532649993896,-0.16144534945487976
1739920586752061000,12.31406103515625,3.527404308319092,-0.6371362805366516,-0.003716707695275545
1739920586762043000,12.32404296875,3.3708202838897705,-0.6790629029273987,0.15779389441013336
1739920586772026000,12.334026123046876,3.200758457183838,-0.68156898021698,0.30393698811531067
1739920586782007800,12.3440078125,3.014317274093628,-0.6719639897346497,0.41952750086784363
1739920586791990000,12.353989990234375,2.8244597911834717,-0.688815712928772,0.5051867365837097
1739920586801973000,12.363972900390625,2.616739273071289,-0.7466670274734497,0.5629773139953613
1739920586811955000,12.373954833984374,2.3834822177886963,-0.8238757848739624,0.607750654220581
1739920586821937000,12.38393701171875,2.106292724609375,-0.8659723401069641,0.6193972229957581
1739920586831918800,12.3939189453125,1.7690662145614624,-0.8892942070960999,0.5692741274833679
1739920586841902000,12.403902099609375,1.3589389324188232,-0.9220407009124756,0.47983476519584656
1739920586851883800,12.4138837890625,0.8921059370040894,-0.968102216720581,0.37961897253990173
1739920586861866000,12.423865966796875,0.3883538544178009,-1.004960060119629,0.2754797637462616
1739920586871849000,12.433848876953125,-0.12307319790124893,-1.082273006439209,0.18973638117313385
1739920586881831000,12.443830810546874,-0.6220217347145081,-1.2011923789978027,0.11653327196836472
1739920586891813000,12.453813232421876,-1.1000269651412964,-1.382427453994751,0.05549708008766174
1739920586901794800,12.463794921875,-1.630771279335022,-1.5643559694290161,-0.02383689023554325
1739920586911778000,12.473778076171875,-2.213749885559082,-1.5737720727920532,-0.0872797742486
1739920586921759700,12.483759765625,-2.8141930103302,-1.4026459455490112,-0.11558571457862854
1739920586931742000,12.493741943359375,-3.421774387359619,-1.1347724199295044,-0.11591381579637527
1739920586941724200,12.50372412109375,-4.000326633453369,-0.8157832026481628,-0.0766923800110817
1739920586951707000,12.513706787109374,-4.468170642852783,-0.42665916681289673,0.030343258753418922
1739920586961689000,12.523689208984376,-4.763336181640625,-0.028261732310056686,0.21781621873378754
1739920586971670800,12.5336708984375,-4.930579662322998,0.3313204050064087,0.43894752860069275
1739920586981654000,12.543654052734375,-5.000664710998535,0.6428117156028748,0.6613446474075317
1739920586991636000,12.553635986328125,-5.031258583068848,0.8221843838691711,0.8624756336212158
1739920587001618000,12.563617919921874,-5.065972805023193,0.9354494214057922,0.9585191011428833
1739920587011600100,12.57360009765625,-5.13105583190918,1.0247255563735962,0.8963111042976379
1739920587021582800,12.583582763671876,-5.239453315734863,1.099916934967041,0.6969247460365295
