time,seconds_elapsed,z,y,x
1739920574483894800,0.045894775390625,-0.7715131640434265,0.7768498063087463,1.7860403060913086
1739920574493877000,0.055876953125,-0.699972927570343,0.637980580329895,2.118800163269043
1739920574503858700,0.065858642578125,-0.6105871796607971,0.6485932469367981,2.3728280067443848
1739920574513841000,0.0758408203125,-0.48019883036613464,0.8667652606964111,2.3838839530944824
1739920574523822800,0.08582275390625,-0.3933553397655487,1.6280794143676758,1.6824208498001099
1739920574533805800,0.095805908203125,-0.5053220391273499,2.1637613773345947,1.1036241054534912
1739920574543788000,0.1057880859375,-0.6619774699211121,1.9061970710754395,1.1180970668792725
1739920574553769700,0.115769775390625,-0.7661206126213074,1.3269171714782715,1.3627285957336426
1739920574563752000,0.125751953125,-0.7492219805717468,0.7486069798469543,1.4977760314941406
1739920574573734000,0.13573388671875,-0.7043564915657043,0.2546428143978119,1.5353602170944214
1739920574583715800,0.1457158203125,-0.6257774829864502,0.07688167691230774,1.5148892402648926
1739920574593699000,0.155698974609375,-0.469062477350235,0.20682770013809204,1.4484790563583374
1739920574603680300,0.16568017578125,-0.23880919814109802,0.22825953364372253,1.2187557220458984
1739920574613662200,0.175662109375,-0.09601502865552902,0.23542822897434235,0.8286309242248535
1739920574623644400,0.18564453125,-0.06622930616140366,0.10563067346811295,0.4813862144947052
1739920574633626000,0.195626220703125,-0.07630564272403717,-0.2052563726902008,0.21435268223285675
1739920574643608300,0.2056083984375,-0.07859540730714798,-0.5073568820953369,-0.06306909024715424
1739920574653591300,0.21559130859375,-0.09572619199752808,-0.6488311886787415,-0.41980883479118347
1739920574663573200,0.2255732421875,-0.1919519603252411,-0.5901165008544922,-0.8328641653060913
1739920574673555500,0.235555419921875,-0.349570631980896,-0.37573254108428955,-1.1860989332199097
1739920574683537200,0.245537109375,-0.47834867238998413,-0.010341545566916466,-1.414671778678894
1739920574693519400,0.255519287109375,-0.4633433520793915,0.8591973185539246,-1.4853914976119995
1739920574703501300,0.265501220703125,-0.21044842898845673,1.5092027187347412,-1.643879771232605
1739920574713484300,0.275484375,0.053226884454488754,-0.06851871311664581,-2.109503984451294
1739920574723466500,0.285466552734375,0.019948206841945648,-2.0672338008880615,-2.1054999828338623
1739920574733448200,0.2954482421875,-0.3282715678215027,-3.167813301086426,-1.8791601657867432
1739920574743430400,0.305430419921875,-0.6220282912254333,-3.5819406509399414,-1.4880691766738892
1739920574753412400,0.315412353515625,-0.6843441128730774,-3.108752489089966,-1.135491132736206
1739920574763395300,0.325395263671875,-0.5952592492103577,-2.0977113246917725,-0.9094387292861938
1739920574773377500,0.33537744140625,-0.5333316922187805,-1.0205847024917603,-0.7389234900474548
1739920574783359200,0.345359130859375,-0.6175231337547302,-0.07066235691308975,-0.5480522513389587
1739920574793341400,0.355341552734375,-0.7620260119438171,1.0061697959899902,-0.27584734559059143
1739920574803323400,0.365323486328125,-0.8276917934417725,2.091073989868164,-0.06277450174093246
1739920574813305300,0.375305419921875,-0.6585136651992798,2.9753425121307373,-0.02900588884949684
1739920574823288300,0.385288330078125,-0.16541333496570587,3.2744743824005127,-0.08045986294746399
1739920574833270300,0.395270263671875,0.37133076786994934,3.236380100250244,-0.08468709886074066
1739920574843252500,0.40525244140625,0.6989732384681702,3.230816125869751,-0.2093963921070099
1739920574853234200,0.415234130859375,0.945910632610321,2.9593892097473145,-0.540425181388855
1739920574863216400,0.42521630859375,0.9963940978050232,2.8577959537506104,-1.036230444908142
1739920574873198300,0.4351982421875,0.8538302779197693,1.332876443862915,-1.020378589630127
1739920574883181300,0.445181396484375,0.6750635504722595,1.0588573217391968,-0.9249426126480103
1739920574893163500,0.45516357421875,0.703131377696991,1.5995395183563232,-0.8576597571372986
1739920574903145200,0.465145263671875,0.9881144762039185,2.3983373641967773,-0.6571451425552368
1739920574913127400,0.47512744140625,1.3583428859710693,3.1497995853424072,-0.3513844311237335
1739920574923109400,0.485109375,1.5617258548736572,3.720644950866699,-0.17460569739341736
1739920574933092400,0.49509228515625,1.599692702293396,3.9938807487487793,-0.33473649621009827
1739920574943074300,0.50507421875,1.6502348184585571,3.934677839279175,-0.6639694571495056
1739920574953056300,0.51505615234375,1.7864166498184204,3.906803607940674,-1.0212160348892212
1739920574963038500,0.52503857421875,1.9323168992996216,3.8985023498535156,-1.3122724294662476
1739920574973020400,0.5350205078125,2.042645215988159,3.8825225830078125,-1.4971277713775635
1739920574983002400,0.54500244140625,2.1195907592773438,3.7115726470947266,-1.523735523223877
1739920574992985300,0.5549853515625,2.1567065715789795,3.4825830459594727,-1.3781764507293701
1739920575002967300,0.56496728515625,2.1891040802001953,3.208923816680908,-1.095679759979248
1739920575012949200,0.57494921875,2.240563154220581,2.6647300720214844,-0.7605783939361572
1739920575022931500,0.584931396484375,2.252387762069702,1.96559739112854,-0.6219920516014099
1739920575032913400,0.594913330078125,2.0585296154022217,1.3619096279144287,-1.0647470951080322
1739920575042895400,0.604895263671875,1.7257760763168335,1.1973272562026978,-1.5897974967956543
1739920575052878300,0.61487841796875,1.3172202110290527,0.9101417660713196,-1.946452021598816
1739920575062860300,0.6248603515625,0.8265305757522583,0.575381875038147,-2.120321273803711
1739920575072842200,0.63484228515625,0.1850338876247406,0.21799148619174957,-2.0471911430358887
1739920575082824200,0.64482421875,-0.5305629968643188,0.06530824303627014,-1.7306627035140991
1739920575092806400,0.654806396484375,-1.0736846923828125,0.10716727375984192,-1.3497207164764404
1739920575102789400,0.664789306640625,-1.36469566822052,0.01388133317232132,-0.9462947845458984
1739920575112771300,0.674771240234375,-1.4182766675949097,-0.059083953499794006,-0.6231238842010498
1739920575122753300,0.684753173828125,-1.303291916847229,-0.0384698286652565,-0.43266430497169495
1739920575132735200,0.6947353515625,-1.0694653987884521,0.04558006674051285,-0.3692176938056946
1739920575142717400,0.704717529296875,-0.7809417843818665,0.1753840297460556,-0.39191412925720215
1739920575152699100,0.71469921875,-0.49253106117248535,0.34206435084342957,-0.3995664417743683
1739920575162682400,0.724682373046875,-0.1799493134021759,0.765821099281311,-0.40124547481536865
1739920575172664300,0.734664306640625,0.14370998740196228,1.4580045938491821,-0.3892729580402374
1739920575182646300,0.744646240234375,0.31641438603401184,2.618129253387451,-0.42166420817375183
1739920575192628500,0.75462841796875,0.18188053369522095,3.731991767883301,-0.4782976508140564
1739920575202610200,0.764610107421875,-0.23363226652145386,4.6027421951293945,-0.5284236073493958
1739920575212593400,0.774593505859375,-0.8850268125534058,4.9237236976623535,-0.6052494645118713
1739920575222575400,0.784575439453125,-1.4487087726593018,4.485288143157959,-0.8581662178039551
1739920575232557300,0.794557373046875,-1.8474668264389038,3.5956547260284424,-1.35829496383667
1739920575242539500,0.80453955078125,-2.136270046234131,2.599087953567505,-1.9012203216552734
1739920575252521200,0.814521240234375,-2.338812828063965,1.7418723106384277,-2.346757173538208
1739920575262503400,0.82450341796875,-2.4980013370513916,1.294696569442749,-2.5998456478118896
1739920575272486400,0.834486328125,-2.58071231842041,1.2008172273635864,-2.701251745223999
1739920575282468400,0.84446826171875,-2.642151355743408,1.0522260665893555,-2.6960349082946777
1739920575292450300,0.8544501953125,-2.6608009338378906,0.95222008228302,-2.6651039123535156
1739920575302432300,0.864432373046875,-2.59378981590271,0.982445240020752,-2.6628708839416504
1739920575312414500,0.87441455078125,-2.485546588897705,1.0823640823364258,-2.789942979812622
1739920575322397200,0.884397216796875,-2.35578989982605,1.2266300916671753,-3.03818941116333
1739920575332379400,0.89437939453125,-2.2930331230163574,1.2829047441482544,-3.305474042892456
1739920575342361300,0.904361328125,-2.308396577835083,1.2649821043014526,-3.5235860347747803
1739920575352343300,0.91434326171875,-2.308610677719116,1.1793873310089111,-3.7010295391082764
1739920575362325500,0.924325439453125,-2.2548093795776367,1.0460736751556396,-3.8608593940734863
1739920575372308200,0.93430810546875,-2.125732421875,0.8352027535438538,-3.993805170059204
1739920575382290400,0.94429052734375,-2.027688503265381,0.5763687491416931,-4.095783233642578
1739920575392272100,0.954272216796875,-1.9451912641525269,0.307277649641037,-4.201399326324463
1739920575402254300,0.96425439453125,-1.7980427742004395,0.12478942424058914,-4.3116631507873535
1739920575412236500,0.974236572265625,-1.6238621473312378,0.15475240349769592,-4.397623062133789
1739920575422218200,0.98421826171875,-1.4755229949951172,0.31783348321914673,-4.419307708740234
1739920575432201500,0.994201416015625,-1.3668547868728638,0.4685833156108856,-4.319108009338379
1739920575442183200,1.00418310546875,-1.3324460983276367,0.4955693781375885,-4.085849761962891
1739920575452165400,1.014165283203125,-1.310979962348938,0.3523688018321991,-3.759592056274414
1739920575462147300,1.024147216796875,-1.268370270729065,0.19861288368701935,-3.4114561080932617
1739920575472129300,1.03412939453125,-1.184201955795288,0.1646549105644226,-3.0892462730407715
1739920575482112500,1.044112548828125,-1.0597501993179321,0.22303351759910583,-2.7580957412719727
1739920575492094200,1.05409423828125,-0.9325895309448242,0.20693524181842804,-2.374174118041992
1739920575502076400,1.064076416015625,-0.7787021994590759,0.08639054000377655,-1.9793055057525635
1739920575512058400,1.074058349609375,-0.5901997089385986,-0.024496562778949738,-1.6145256757736206
1739920575522040300,1.084040283203125,-0.3580583930015564,-0.13401377201080322,-1.285523772239685
1739920575532022300,1.094022216796875,-0.08122999966144562,-0.2376624047756195,-0.9421674609184265
1739920575542005200,1.104005126953125,0.17654454708099365,-0.3756633996963501,-0.5628371834754944
1739920575551987500,1.113987548828125,0.41566312313079834,-0.18393711745738983,-0.15638795495033264
1739920575561969400,1.123969482421875,0.6355413198471069,-0.044739313423633575,0.34267333149909973
1739920575571951400,1.133951416015625,0.8228408694267273,0.09597305953502655,0.8316036462783813
1739920575581933300,1.143933349609375,0.9948251247406006,0.3666374683380127,1.2043671607971191
1739920575591916300,1.153916259765625,1.1641701459884644,0.673027515411377,1.4705079793930054
1739920575601898500,1.1638984375,1.296217441558838,0.8019313216209412,1.6389156579971313
1739920575611880400,1.17388037109375,1.3354780673980713,0.712591290473938,1.676807165145874
1739920575621862700,1.183862548828125,1.310081124305725,0.6017895340919495,1.5721367597579956
1739920575631844600,1.1938447265625,1.205936312675476,0.24383939802646637,1.3499149084091187
1739920575641827600,1.20382763671875,1.1076894998550415,-0.3221648931503296,1.0470170974731445
1739920575651809800,1.213809814453125,1.004542589187622,-0.696931779384613,0.7095977663993835
1739920575661791500,1.22379150390625,0.9039832353591919,-1.031852126121521,0.527641236782074
1739920575671773700,1.233773681640625,0.8880221247673035,-1.4118958711624146,0.5528062582015991
1739920575681755600,1.243755615234375,0.9746534824371338,-1.6483685970306396,0.7694037556648254
1739920575691737600,1.253737548828125,1.1520586013793945,-1.7542452812194824,1.1972293853759766
1739920575701720800,1.263720947265625,1.3299001455307007,-1.675889253616333,1.7762607336044312
1739920575711702500,1.27370263671875,1.4446866512298584,-1.4445072412490845,2.430410623550415
1739920575721684700,1.283684814453125,1.507056713104248,-1.1983788013458252,3.051370620727539
1739920575731666700,1.293666748046875,1.5641189813613892,-1.0001299381256104,3.508615016937256
1739920575741648600,1.303648681640625,1.6180468797683716,-0.9424278736114502,3.795212984085083
1739920575751631600,1.313631591796875,1.6198914051055908,-1.0301079750061035,3.9935495853424072
1739920575761613600,1.323613525390625,1.6065233945846558,-1.133857011795044,4.130894184112549
1739920575771595800,1.333595703125,1.5677679777145386,-1.1530760526657104,4.200247764587402
1739920575781577500,1.343577392578125,1.4693433046340942,-1.1159602403640747,4.203000068664551
1739920575791559700,1.3535595703125,1.4235481023788452,-0.9989725947380066,4.151432037353516
1739920575801542400,1.36354248046875,1.407785177230835,-0.8809789419174194,4.0948567390441895
1739920575811524600,1.373524658203125,1.3905153274536133,-0.7627383470535278,4.027156829833984
1739920575821506800,1.3835068359375,1.3746318817138672,-0.7950225472450256,3.9576926231384277
1739920575831488500,1.393488525390625,1.3952500820159912,-0.9909278750419617,3.8587396144866943
1739920575841470700,1.403470703125,1.49252188205719,-1.241286277770996,3.7349605560302734
1739920575851453400,1.413453369140625,1.6497317552566528,-1.3933624029159546,3.6039135456085205
1739920575861435600,1.423435546875,1.8681164979934692,-1.3221322298049927,3.467625617980957
1739920575871417600,1.43341748046875,2.124964714050293,-1.116950511932373,3.3220620155334473
1739920575881399600,1.443399658203125,2.3086330890655518,-1.0195599794387817,3.124960422515869
1739920575891381800,1.4533818359375,2.37155818939209,-0.8382733464241028,2.904477834701538
1739920575901363700,1.46336376953125,2.372253656387329,-0.5376562476158142,2.70837664604187
1739920575911346700,1.4733466796875,2.3591959476470947,-0.25714758038520813,2.5609028339385986
1739920575921328600,1.48332861328125,2.3172037601470947,-0.05616209656000137,2.4583139419555664
1739920575931310600,1.493310546875,2.2639505863189697,0.09861975908279419,2.376790761947632
1739920575941292500,1.50329248046875,2.2106926441192627,0.28440535068511963,2.3482532501220703
1739920575951274800,1.513274658203125,2.136800527572632,0.5714975595474243,2.3822247982025146
1739920575961257700,1.5232578125,2.037959337234497,0.9607752561569214,2.458146095275879
1739920575971239700,1.53323974609375,1.9056222438812256,1.3738768100738525,2.525392770767212
1739920575981221600,1.5432216796875,1.7946419715881348,1.6994929313659668,2.526062250137329
1739920575991203600,1.55320361328125,1.7511237859725952,1.8521841764450073,2.4417173862457275
1739920576001185500,1.563185546875,1.7603895664215088,1.7757147550582886,2.293968915939331
1739920576011168800,1.573168701171875,1.7533271312713623,1.6285436153411865,2.156219482421875
1739920576021150500,1.583150390625,1.6819725036621094,1.4692555665969849,2.09450364112854
1739920576031132700,1.593132568359375,1.557060956954956,1.3294109106063843,2.110219717025757
1739920576041114600,1.603114501953125,1.3831651210784912,1.3131390810012817,2.1831107139587402
1739920576051096600,1.6130966796875,1.1747416257858276,1.4097821712493896,2.2986042499542236
1739920576061078500,1.62307861328125,0.9756261706352234,1.58649480342865,2.4239859580993652
1739920576071061500,1.6330615234375,0.8523878455162048,1.8006025552749634,2.5164706707000732
1739920576081043700,1.643043701171875,0.8618103861808777,2.049879312515259,2.562947988510132
1739920576091025700,1.653025634765625,0.8609445691108704,2.2291126251220703,2.56547212600708
1739920576101007600,1.663007568359375,0.7969430088996887,2.326183319091797,2.455279588699341
1739920576110990600,1.672990478515625,0.6753641366958618,2.3881754875183105,2.2097198963165283
1739920576120972500,1.68297265625,0.48111969232559204,2.3600144386291504,1.8248426914215088
1739920576130954800,1.692954833984375,0.2158541977405548,2.2694969177246094,1.3248655796051025
1739920576140936700,1.702936767578125,-0.1317061334848404,2.099627733230591,0.8070276975631714
1739920576150918700,1.712918701171875,-0.48031365871429443,1.7591019868850708,0.33411237597465515
1739920576160900600,1.722900634765625,-0.8104808926582336,1.3197113275527954,-0.07891674339771271
1739920576170883600,1.732883544921875,-1.0785578489303589,0.9791135787963867,-0.403670072555542
1739920576180865500,1.742865478515625,-1.2835798263549805,0.6489728689193726,-0.6318355202674866
1739920576190847700,1.75284765625,-1.4327526092529297,0.3689036965370178,-0.8043169975280762
1739920576200829700,1.76282958984375,-1.5417970418930054,0.1372586041688919,-0.9199336767196655
1739920576210811600,1.772811767578125,-1.6274548768997192,-0.041952166706323624,-0.9871236085891724
1739920576220794600,1.782794677734375,-1.7142503261566162,-0.12160620093345642,-1.031267523765564
1739920576230776600,1.792776611328125,-1.801701545715332,-0.1397622972726822,-1.040181040763855
1739920576240758800,1.8027587890625,-1.868404746055603,-0.12043963372707367,-1.0163469314575195
1739920576250740500,1.812740478515625,-1.8196603059768677,0.10132765024900436,-1.017869234085083
1739920576260722700,1.82272265625,-1.8903366327285767,0.06912229210138321,-0.9518682956695557
1739920576270705700,1.83270556640625,-2.0364270210266113,0.12141452729701996,-0.8590728044509888
1739920576280687600,1.8426875,-2.156926155090332,0.31758856773376465,-0.7440226674079895
1739920576290669600,1.852669677734375,-2.251708984375,0.29083606600761414,-0.5681490898132324
1739920576300651500,1.862651611328125,-2.3504507541656494,0.1734083890914917,-0.3835243880748749
1739920576310633700,1.8726337890625,-2.4628567695617676,0.12719294428825378,-0.23940503597259521
1739920576320616700,1.88261669921875,-2.5813026428222656,0.07964293658733368,-0.1195678859949112
1739920576330598700,1.8925986328125,-2.7072501182556152,0.037497080862522125,-0.03669990226626396
1739920576340580600,1.90258056640625,-2.8538732528686523,0.024572107940912247,-0.027412546798586845
1739920576350562600,1.9125625,-2.9907381534576416,0.024689286947250366,-0.10575022548437119
1739920576360544800,1.922544677734375,-3.111851215362549,0.04566771164536476,-0.2528808116912842
1739920576370526500,1.9325263671875,-3.226759195327759,0.08522950112819672,-0.41907966136932373
1739920576380509700,1.942509765625,-3.330026388168335,0.1288301646709442,-0.567811906337738
1739920576390491600,1.95249169921875,-3.415264129638672,0.17713670432567596,-0.7013851404190063
1739920576400473600,1.9624736328125,-3.4840381145477295,0.23370368778705597,-0.7992339730262756
1739920576410455800,1.972455810546875,-3.540954113006592,0.2716071307659149,-0.8458629846572876
1739920576420437500,1.9824375,-3.622451066970825,0.28190988302230835,-0.863046407699585
1739920576430420700,1.992420654296875,-3.7404286861419678,0.28725379705429077,-0.872832715511322
1739920576440402400,2.00240234375,-3.9239084720611572,0.24627521634101868,-0.9062783718109131
1739920576450384600,2.012384521484375,-4.145386219024658,0.1834307461977005,-0.99660724401474
1739920576460366800,2.022366943359375,-4.356569290161133,0.16085846722126007,-1.151491403579712
1739920576470348500,2.0323486328125,-4.5012006759643555,0.1888168603181839,-1.3236459493637085
1739920576480331800,2.042331787109375,-4.556293964385986,0.1518479883670807,-1.4553134441375732
1739920576490313500,2.0523134765625,-4.517289638519287,0.011614986695349216,-1.517455816268921
1739920576500295700,2.062295654296875,-4.3462324142456055,-0.2763553261756897,-1.529110074043274
1739920576510277600,2.072277587890625,-4.131777286529541,-0.7060827016830444,-1.5389161109924316
1739920576520259600,2.082259521484375,-3.970897912979126,-1.1368745565414429,-1.5623105764389038
1739920576530242600,2.09224267578125,-3.8939859867095947,-1.4415974617004395,-1.555047631263733
1739920576540224500,2.102224609375,-3.8561112880706787,-1.612902045249939,-1.447163462638855
1739920576550206700,2.112206787109375,-3.8488924503326416,-1.6587920188903809,-1.2217199802398682
1739920576560188400,2.1221884765625,-3.8178048133850098,-1.6534066200256348,-0.9500659704208374
1739920576570170600,2.132170654296875,-3.763974666595459,-1.593831181526184,-0.5944439768791199
1739920576580153600,2.142153564453125,-3.6201655864715576,-1.56374192237854,-0.16243746876716614
1739920576590135600,2.152135498046875,-3.2804367542266846,-1.6852744817733765,0.31688064336776733
1739920576600117800,2.16211767578125,-2.7619376182556152,-1.8179064989089966,0.8025847673416138
1739920576610099200,2.17209912109375,-2.1482250690460205,-1.801721453666687,1.2700021266937256
1739920576620081400,2.182081298828125,-1.5403755903244019,-1.4849002361297607,1.7050416469573975
1739920576630064000,2.192064208984375,-0.9972802996635437,-0.8616076111793518,2.100360870361328
1739920576640046300,2.20204638671875,-0.5207916498184204,-0.08941803872585297,2.4438092708587646
1739920576650028300,2.2120283203125,-0.11631497740745544,0.598191499710083,2.7184038162231445
1739920576660010200,2.22201025390625,0.2527616024017334,1.1432172060012817,2.90309739112854
1739920576669992400,2.231992431640625,0.6371188759803772,1.6501717567443848,2.9832911491394043
1739920576679975200,2.24197509765625,0.9961352944374084,1.9378312826156616,2.932830572128296
1739920576689957400,2.251957275390625,1.291019320487976,2.0478386878967285,2.749974489212036
1739920576699939300,2.261939208984375,1.4997042417526245,2.1945719718933105,2.433582305908203
1739920576709921300,2.27192138671875,1.5755935907363892,2.502924919128418,1.9005656242370605
1739920576719903200,2.2819033203125,1.5543150901794434,2.958876371383667,1.1999070644378662
1739920576729886200,2.29188623046875,1.5248279571533203,3.282719612121582,0.49780166149139404
1739920576739868400,2.301868408203125,1.6073189973831177,3.243457078933716,-0.03652896732091904
1739920576749850400,2.311850341796875,1.8355660438537598,2.8433501720428467,-0.37146809697151184
1739920576759832300,2.321832275390625,2.1670401096343994,2.2900283336639404,-0.5192520022392273
1739920576769814300,2.331814208984375,2.520418405532837,1.7226520776748657,-0.5206254124641418
1739920576779797200,2.34179736328125,2.8722922801971436,1.29630446434021,-0.413225919008255
1739920576789779500,2.351779541015625,3.1961686611175537,1.0383243560791016,-0.226024329662323
1739920576799761400,2.361761474609375,3.466348171234131,0.9100291728973389,0.005252457223832607
1739920576809743400,2.371743408203125,3.673353433609009,0.8322947025299072,0.25100043416023254
1739920576819725300,2.381725341796875,3.8011672496795654,0.7673618197441101,0.49648067355155945
1739920576829708300,2.391708251953125,3.8693997859954834,0.68255615234375,0.7033982276916504
1739920576839690500,2.4016904296875,3.9052722454071045,0.5648462772369385,0.8258506655693054
1739920576849672200,2.411672119140625,3.9230799674987793,0.4704588055610657,0.842245876789093
1739920576859654400,2.421654296875,3.9337053298950195,0.3933677077293396,0.7993029356002808
1739920576869636400,2.43163623046875,3.937960386276245,0.3178558945655823,0.7461305260658264
1739920576879619300,2.441619384765625,3.93694806098938,0.24313251674175262,0.7249159812927246
1739920576889601300,2.451601318359375,3.932079553604126,0.16776613891124725,0.7150462865829468
1739920576899583200,2.461583251953125,3.9349796772003174,0.1079818457365036,0.6904292106628418
1739920576909565400,2.4715654296875,3.9300382137298584,0.04848070442676544,0.628471851348877
1739920576919547400,2.48154736328125,3.8977320194244385,-0.027057357132434845,0.5187072157859802
1739920576929530400,2.4915302734375,3.8409786224365234,-0.12690432369709015,0.3935439884662628
1739920576939512300,2.50151220703125,3.768134593963623,-0.25732550024986267,0.27715280652046204
1739920576949494300,2.511494384765625,3.6969776153564453,-0.4189348816871643,0.15340343117713928
1739920576959476200,2.521476318359375,3.634392738342285,-0.5844398736953735,0.006167063023895025
1739920576969458400,2.53145849609375,3.5737173557281494,-0.7254944443702698,-0.18762557208538055
1739920576979441400,2.54144140625,3.5197255611419678,-0.8615502715110779,-0.40399712324142456
1739920576989423400,2.55142333984375,3.4912543296813965,-0.9573654532432556,-0.6237339973449707
1739920576999405300,2.5614052734375,3.5135533809661865,-1.0569626092910767,-0.8390258550643921
1739920577009387300,2.57138720703125,3.5772032737731934,-1.1664191484451294,-1.0528968572616577
1739920577019369500,2.581369384765625,3.638521194458008,-1.1926602125167847,-1.2553890943527222
1739920577029352400,2.5913525390625,3.6147756576538086,-1.1706233024597168,-1.4096204042434692
1739920577039334400,2.60133447265625,3.4901976585388184,-1.130226969718933,-1.5067425966262817
1739920577049316400,2.61131640625,3.2954747676849365,-1.1077919006347656,-1.5459470748901367
1739920577059298300,2.62129833984375,3.0614426136016846,-1.1166653633117676,-1.5361273288726807
1739920577069280500,2.631280517578125,2.801570415496826,-1.1250157356262207,-1.4889507293701172
1739920577079263500,2.641263427734375,2.542109727859497,-1.1129074096679688,-1.4338456392288208
1739920577089245400,2.651245361328125,2.2746222019195557,-1.0945693254470825,-1.3710986375808716
1739920577099227400,2.661227294921875,1.9716050624847412,-1.0591870546340942,-1.285804033279419
1739920577109209300,2.671209228515625,1.6396758556365967,-1.0096302032470703,-1.1742500066757202
1739920577119191300,2.68119140625,1.3170888423919678,-0.9890621304512024,-1.0535353422164917
1739920577129174300,2.69117431640625,1.0480395555496216,-0.982807457447052,-0.8967647552490234
1739920577139156200,2.70115625,0.836788535118103,-0.9534788727760315,-0.7031238675117493
1739920577149138400,2.711138427734375,0.6556648015975952,-0.8480283617973328,-0.46567508578300476
1739920577159120400,2.721120361328125,0.4892309010028839,-0.6991825699806213,-0.17651845514774323
1739920577169102300,2.731102294921875,0.32119715213775635,-0.5056772828102112,0.1541460156440735
1739920577179085300,2.741085205078125,0.1515360176563263,-0.25492626428604126,0.5040126442909241
1739920577189067300,2.7510673828125,0.027158930897712708,0.05144244804978371,0.847642183303833
1739920577199049200,2.76104931640625,-0.05518881976604462,0.337580144405365,1.161757469177246
1739920577209031400,2.771031494140625,-0.14134500920772552,0.49669337272644043,1.4246455430984497
1739920577219014400,2.781014404296875,-0.24567583203315735,0.5923413038253784,1.607430100440979
1739920577228996400,2.790996337890625,-0.4058319330215454,0.7611545324325562,1.7037323713302612
1739920577238978300,2.800978271484375,-0.6384809613227844,0.9856156706809998,1.7379727363586426
1739920577248960300,2.810960205078125,-0.9009376168251038,1.1677758693695068,1.7416276931762695
1739920577258942500,2.8209423828125,-1.115588665008545,1.2250885963439941,1.7229982614517212
1739920577268925400,2.830925537109375,-1.2474042177200317,1.2024186849594116,1.650018334388733
1739920577278907400,2.840907470703125,-1.3035905361175537,1.1404653787612915,1.5176752805709839
1739920577288889300,2.850889404296875,-1.329258918762207,1.009842872619629,1.326757788658142
1739920577298871300,2.860871337890625,-1.3793134689331055,0.8416041135787964,1.0727906227111816
1739920577308853500,2.870853515625,-1.4805128574371338,0.6768854856491089,0.7694440484046936
1739920577318836500,2.88083642578125,-1.6298948526382446,0.5102815628051758,0.4480607509613037
1739920577328818400,2.890818359375,-1.8160881996154785,0.36143988370895386,0.13604749739170074
1739920577338800400,2.90080029296875,-1.9848082065582275,0.207022026181221,-0.15154415369033813
1739920577348782300,2.9107822265625,-2.1006240844726562,0.054022885859012604,-0.41199997067451477
1739920577358764300,2.920764404296875,-2.175325393676758,-0.09423503279685974,-0.6388898491859436
1739920577368747300,2.930747314453125,-2.2598516941070557,-0.2163904905319214,-0.8423281908035278
1739920577378729200,2.940729248046875,-2.388254165649414,-0.33526110649108887,-1.0196577310562134
1739920577388711400,2.95071142578125,-2.5384573936462402,-0.4129636287689209,-1.1457430124282837
1739920577398693400,2.960693359375,-2.68290114402771,-0.37091290950775146,-1.19711172580719
1739920577408675300,2.97067529296875,-2.8651657104492188,-0.3954611122608185,-1.1913329362869263
1739920577418658300,2.980658203125,-3.067049980163574,-0.5240216255187988,-1.2056704759597778
1739920577428640300,2.99064013671875,-3.1559765338897705,-0.5331515073776245,-1.2694185972213745
1739920577438622200,3.000622314453125,-3.1411826610565186,-0.4586489498615265,-1.400772213935852
1739920577448604400,3.0106044921875,-3.1170663833618164,-0.5021260976791382,-1.5886836051940918
1739920577458586000,3.020586181640625,-3.081509828567505,-0.43841269612312317,-1.850616693496704
1739920577468569300,3.0305693359375,-3.009321689605713,-0.553582489490509,-2.114506483078003
1739920577478551300,3.04055126953125,-2.964179277420044,-0.7417224049568176,-2.4031593799591064
1739920577488533200,3.050533203125,-2.9909379482269287,-0.8883552551269531,-2.7464611530303955
1739920577498515500,3.060515380859375,-3.028390884399414,-0.9702654480934143,-3.101395606994629
1739920577508497200,3.0704970703125,-3.016606569290161,-0.9958150386810303,-3.436218500137329
1739920577518480400,3.08048046875,-2.9387073516845703,-0.9689379334449768,-3.711289167404175
1739920577528462300,3.09046240234375,-2.7861077785491943,-0.9578847885131836,-3.89609694480896
1739920577538444300,3.1004443359375,-2.5785467624664307,-1.0883463621139526,-4.003920078277588
1739920577548426500,3.110426513671875,-2.4178547859191895,-1.258061170578003,-4.057660102844238
1739920577558409500,3.120409423828125,-2.328892230987549,-1.3992184400558472,-4.015344142913818
1739920577568391400,3.130391357421875,-2.285517454147339,-1.520395278930664,-3.8701164722442627
1739920577578373400,3.140373291015625,-2.245683431625366,-1.6622017621994019,-3.6421916484832764
1739920577588355300,3.150355224609375,-2.139359474182129,-1.7483761310577393,-3.3847289085388184
1739920577598337500,3.160337646484375,-1.9181220531463623,-1.6262551546096802,-3.1567835807800293
1739920577608320000,3.170320068359375,-1.616206407546997,-1.510312557220459,-2.985901117324829
1739920577618302000,3.180302001953125,-1.3486300706863403,-1.495436429977417,-2.8576760292053223
1739920577628284000,3.190283935546875,-1.1256649494171143,-1.2215572595596313,-2.7915120124816895
1739920577638265900,3.200265869140625,-0.8887330889701843,-0.6924248933792114,-2.70695424079895
1739920577648248000,3.210248046875,-0.6431763172149658,-0.2424560934305191,-2.4407386779785156
1739920577658231000,3.22023095703125,-0.4209715723991394,-0.05128730461001396,-1.9862713813781738
1739920577668213000,3.230212890625,-0.22591952979564667,-0.11812572926282883,-1.4937114715576172
1739920577678195000,3.24019482421875,-0.0939972773194313,-0.32977545261383057,-1.1111289262771606
1739920577688177000,3.250177001953125,-0.03820298612117767,-0.53985995054245,-0.8505569100379944
1739920577698159000,3.2601591796875,-0.02039985917508602,-0.6206925511360168,-0.6467429995536804
1739920577708142000,3.27014208984375,0.001747787930071354,-0.5084996819496155,-0.4130854904651642
1739920577718124000,3.2801240234375,0.10856379568576813,-0.3290245831012726,-0.08252175897359848
1739920577728106000,3.29010595703125,0.24110586941242218,-0.22976139187812805,0.33534419536590576
1739920577738088000,3.300087890625,0.30455949902534485,0.026738150045275688,0.7872596979141235
1739920577748070000,3.31006982421875,0.34018033742904663,0.3964775800704956,1.2309750318527222
1739920577758053000,3.32005322265625,0.40781930088996887,0.6115370392799377,1.638221025466919
1739920577768034800,3.330034912109375,0.5515743494033813,0.7379171252250671,1.9773131608963013
1739920577778017000,3.34001708984375,0.7705116868019104,0.9080372452735901,2.1942083835601807
1739920577787999000,3.3499990234375,1.0298924446105957,1.011898398399353,2.2951269149780273
1739920577797982000,3.35998193359375,1.2394773960113525,0.9038349390029907,2.296715021133423
1739920577807964000,3.3699638671875,1.3636714220046997,0.7694203853607178,2.2075562477111816
1739920577817945900,3.37994580078125,1.44636869430542,0.7287176251411438,2.0785369873046875
1739920577827928000,3.389927978515625,1.4363539218902588,0.8006399869918823,1.9964929819107056
1739920577837910000,3.399909912109375,1.3038997650146484,1.0163753032684326,1.9525632858276367
1739920577847893000,3.40989306640625,1.1380504369735718,1.404380202293396,1.9698301553726196
1739920577857875000,3.419875,1.2237948179244995,1.8661290407180786,2.0825388431549072
1739920577867857000,3.42985693359375,1.542582392692566,2.0869598388671875,2.339621067047119
1739920577877838800,3.4398388671875,1.9380183219909668,1.917156457901001,2.6722843647003174
1739920577887821000,3.449821044921875,2.4531948566436768,1.4595561027526855,3.063587188720703
1739920577897804000,3.459803955078125,2.9794795513153076,1.1337370872497559,3.416285514831543
1739920577907786000,3.469785888671875,3.2504355907440186,1.1297264099121094,3.570826768875122
1739920577917768000,3.479767822265625,3.2812421321868896,1.1447770595550537,3.524890422821045
1739920577927750000,3.48975,3.2414984703063965,1.0772682428359985,3.2719171047210693
1739920577937732000,3.499732177734375,3.346708297729492,0.8567231893539429,2.800571918487549
1739920577947715000,3.509715087890625,3.643400192260742,0.44415104389190674,2.2727510929107666
1739920577957697000,3.519697021484375,3.999096393585205,-0.04214653745293617,1.8482967615127563
1739920577967679000,3.529678955078125,4.2565999031066895,-0.478595495223999,1.5931390523910522
1739920577977661000,3.539660888671875,4.3082380294799805,-0.8534950613975525,1.4618899822235107
1739920577987644000,3.549643798828125,4.15474796295166,-1.1847490072250366,1.3782494068145752
1739920577997626000,3.559626220703125,3.9032936096191406,-1.430594563484192,1.3630532026290894
1739920578007608000,3.569608154296875,3.6584715843200684,-1.535456895828247,1.436073660850525
1739920578017590000,3.579590087890625,3.4764246940612793,-1.5326509475708008,1.5623737573623657
1739920578027572000,3.589572021484375,3.3545234203338623,-1.4023927450180054,1.6956756114959717
1739920578037555000,3.599554931640625,3.256693124771118,-1.19403874874115,1.801289439201355
1739920578047537000,3.609536865234375,3.1799583435058594,-1.0025283098220825,1.8675158023834229
1739920578057518800,3.619518798828125,3.1108717918395996,-0.8265820145606995,1.905224084854126
1739920578067501000,3.6295009765625,2.952054738998413,-0.6529524326324463,1.8887295722961426
1739920578077483000,3.63948291015625,2.7388129234313965,-0.506393313407898,1.8257992267608643
1739920578087466000,3.649466064453125,2.5250203609466553,-0.4062461853027344,1.755142331123352
1739920578097448000,3.659447998046875,2.3289988040924072,-0.27349719405174255,1.70280122756958
1739920578107430000,3.669429931640625,2.161475658416748,-0.16996681690216064,1.6495722532272339
1739920578117411800,3.679411865234375,1.980380654335022,-0.16415564715862274,1.5835994482040405
1739920578127394800,3.689394775390625,1.7959882020950317,-0.15665298700332642,1.482706069946289
1739920578137377000,3.699376953125,1.6259326934814453,-0.13261006772518158,1.3706392049789429
1739920578147359000,3.70935888671875,1.4534450769424438,-0.1289127916097641,1.2357014417648315
1739920578157341000,3.7193408203125,1.2227932214736938,-0.1205570250749588,1.0360729694366455
1739920578167323000,3.729322998046875,0.898385226726532,-0.07286061346530914,0.8007355332374573
1739920578177305900,3.739305908203125,0.5164709687232971,-0.013580672442913055,0.5634168982505798
1739920578187288000,3.7492880859375,0.11796354502439499,0.0118189612403512,0.30188998579978943
1739920578197270000,3.75927001953125,-0.2715003490447998,-0.037237901240587234,0.011256854981184006
1739920578207252000,3.769251953125,-0.6600304841995239,-0.17222580313682556,-0.29485833644866943
1739920578217234000,3.77923388671875,-1.0607014894485474,-0.2791544497013092,-0.5362960696220398
1739920578227217000,3.789216796875,-1.469448208808899,-0.2917163372039795,-0.6313794255256653
1739920578237199000,3.79919921875,-1.7998225688934326,-0.18015287816524506,-0.5578563809394836
1739920578247181000,3.80918115234375,-2.009763479232788,-0.011614730581641197,-0.36417636275291443
1739920578257163000,3.8191630859375,-2.1486270427703857,0.217988058924675,-0.12449706345796585
1739920578267146000,3.82914599609375,-2.2375166416168213,0.49646973609924316,0.08806553483009338
1739920578277128000,3.8391279296875,-2.3011200428009033,0.7342936396598816,0.1936444640159607
1739920578287110000,3.84910986328125,-2.400484323501587,0.8822463750839233,0.13735508918762207
1739920578297092900,3.8590927734375,-2.56060791015625,0.9448287487030029,-0.09468293190002441
1739920578307075000,3.869074951171875,-2.752051591873169,0.9200265407562256,-0.4415453374385834
1739920578317056800,3.879056884765625,-2.956968069076538,0.8553495407104492,-0.8443896770477295
1739920578327040000,3.8890400390625,-3.1935617923736572,0.8058525919914246,-1.2453960180282593
1739920578337022000,3.89902197265625,-3.412421941757202,0.7764081358909607,-1.580286979675293
1739920578347004000,3.90900390625,-3.5387589931488037,0.7238363027572632,-1.8175666332244873
1739920578356986000,3.918986083984375,-3.5468525886535645,0.6169509887695312,-1.9389108419418335
1739920578366967800,3.9289677734375,-3.4642510414123535,0.4850539267063141,-1.9456374645233154
1739920578376951000,3.938950927734375,-3.3629043102264404,0.30622512102127075,-1.8633838891983032
1739920578386932700,3.9489326171875,-3.30069899559021,0.13810482621192932,-1.7739142179489136
1739920578396915000,3.9589150390625,-3.3194737434387207,0.0027859951369464397,-1.7084155082702637
1739920578406897200,3.968897216796875,-3.448821783065796,-0.1204584389925003,-1.6710988283157349
1739920578416879900,3.9788798828125,-3.60895037651062,-0.18628332018852234,-1.6498386859893799
1739920578426862000,3.988862060546875,-3.7091901302337646,-0.18191146850585938,-1.639190912246704
1739920578436843800,3.99884375,-3.7365307807922363,-0.1089930534362793,-1.6231565475463867
1739920578446826000,4.008825927734375,-3.719416856765747,0.017063947394490242,-1.6173516511917114
1739920578456808000,4.018807861328125,-3.6896986961364746,0.14274245500564575,-1.6278138160705566
1739920578466791000,4.028791015625,-3.645156145095825,0.2081339806318283,-1.6625012159347534
1739920578476773000,4.038773193359375,-3.5606493949890137,0.22443364560604095,-1.706395149230957
1739920578486754800,4.0487548828125,-3.4563891887664795,0.18790119886398315,-1.7371628284454346
1739920578496737000,4.058737060546875,-3.3743820190429688,0.12319618463516235,-1.7585680484771729
1739920578506719000,4.068718994140625,-3.3417558670043945,0.05355000123381615,-1.781821370124817
1739920578516702000,4.078701904296875,-3.341369867324829,0.018627220764756203,-1.8004978895187378
1739920578526684200,4.08868408203125,-3.321343421936035,0.030386677011847496,-1.8023881912231445
1739920578536665900,4.098665771484375,-3.267597198486328,0.06748099625110626,-1.7601619958877563
1739920578546648000,4.10864794921875,-3.157810688018799,0.11003698408603668,-1.6616415977478027
1739920578556630800,4.118630859375,-2.9958839416503906,0.19264289736747742,-1.5460723638534546
1739920578566613000,4.128613037109375,-2.829634666442871,0.28382155299186707,-1.4342235326766968
1739920578576595000,4.138594970703125,-2.7094223499298096,0.34317851066589355,-1.3472607135772705
1739920578586577000,4.148576904296875,-2.652751922607422,0.3826034367084503,-1.295580506324768
1739920578596559000,4.15855908203125,-2.6081864833831787,0.4224025309085846,-1.269917368888855
1739920578606541800,4.168541748046875,-2.508267879486084,0.441608726978302,-1.2559841871261597
1739920578616524000,4.17852392578125,-2.3777740001678467,0.46574825048446655,-1.224624514579773
1739920578626506000,4.188506103515625,-2.221688747406006,0.46499404311180115,-1.188069462776184
1739920578636488000,4.198488037109375,-2.039583921432495,0.4284564256668091,-1.1773601770401
1739920578646471000,4.208470947265625,-1.8445032835006714,0.3201903998851776,-1.217558741569519
1739920578656452900,4.218452880859375,-1.641565203666687,0.15906566381454468,-1.2950263023376465
1739920578666435000,4.22843505859375,-1.4473239183425903,-0.028035249561071396,-1.3648005723953247
1739920578676417000,4.2384169921875,-1.288944959640503,-0.13413532078266144,-1.3954333066940308
1739920578686399000,4.24839892578125,-1.1240310668945312,-0.1423082947731018,-1.3705905675888062
1739920578696381200,4.258381103515625,-0.9415695667266846,-0.09020727872848511,-1.311517596244812
1739920578706363000,4.26836279296875,-0.7256271839141846,-0.04732478782534599,-1.2281385660171509
1739920578716346000,4.27834619140625,-0.5015609264373779,-0.048925988376140594,-1.1185380220413208
1739920578726327800,4.288327880859375,-0.29217490553855896,-0.09376749396324158,-0.981117844581604
1739920578736310000,4.29831005859375,-0.09230243414640427,-0.1929587423801422,-0.7941126227378845
1739920578746292200,4.308292236328125,0.13260310888290405,-0.3464058041572571,-0.5705513954162598
1739920578756275000,4.31827490234375,0.39846742153167725,-0.5173811316490173,-0.3227287530899048
1739920578766257200,4.328257080078125,0.7233210802078247,-0.6377184391021729,-0.046202607452869415
1739920578776238800,4.33823876953125,1.069097638130188,-0.6615688800811768,0.24411767721176147
1739920578786221000,4.348220947265625,1.4061124324798584,-0.5974210500717163,0.5483803749084473
1739920578796203000,4.358203125,1.7065831422805786,-0.44642674922943115,0.8708691596984863
1739920578806186000,4.36818603515625,1.9702699184417725,-0.2234160304069519,1.2012734413146973
1739920578816168200,4.378168212890625,2.223961114883423,0.029595138505101204,1.5310596227645874
1739920578826150000,4.38814990234375,2.4814536571502686,0.23931214213371277,1.8309552669525146
1739920578836132000,4.398132080078125,2.711747884750366,0.3618510961532593,2.076737642288208
1739920578846115000,4.408114990234375,2.881088972091675,0.4003385603427887,2.2403767108917236
1739920578856097000,4.418096923828125,2.9799885749816895,0.40126723051071167,2.3327839374542236
1739920578866079000,4.428078857421875,3.017542600631714,0.4077882468700409,2.3344762325286865
1739920578876061000,4.43806103515625,3.0037386417388916,0.4336557388305664,2.2768383026123047
1739920578886043100,4.448043212890625,2.988508462905884,0.48535406589508057,2.191584348678589
1739920578896025900,4.45802587890625,3.001906394958496,0.5421034097671509,2.1074838638305664
1739920578906008000,4.468008056640625,3.04555082321167,0.5845997333526611,2.0392885208129883
1739920578915990000,4.477989990234375,3.122809410095215,0.5838295221328735,1.9911930561065674
1739920578925972000,4.487971923828125,3.2049672603607178,0.5186643600463867,1.9343069791793823
1739920578935955000,4.497954833984375,3.2580666542053223,0.4152286946773529,1.8516583442687988
1739920578945937000,4.50793701171875,3.3042948246002197,0.32801389694213867,1.7359882593154907
1739920578955919000,4.517919189453125,3.353564977645874,0.24278953671455383,1.5564032793045044
1739920578965900800,4.52790087890625,3.3884551525115967,0.1329091191291809,1.295900583267212
1739920578975883000,4.537883056640625,3.4216296672821045,-0.022568844258785248,1.0047177076339722
1739920578985866000,4.547865966796875,3.443584442138672,-0.1753852814435959,0.7463847398757935
1739920578995848000,4.557847900390625,3.4656527042388916,-0.2690415680408478,0.5613758563995361
1739920579005830100,4.567830078125,3.517798900604248,-0.30811360478401184,0.46393901109695435
1739920579015811800,4.577811767578125,3.607511043548584,-0.38386014103889465,0.4394456744194031
1739920579025795000,4.587795166015625,3.709714412689209,-0.4664245545864105,0.4612492322921753
1739920579035777000,4.597777099609375,3.7875208854675293,-0.5317370891571045,0.4973265826702118
1739920579045759000,4.607759033203125,3.808007001876831,-0.5624577403068542,0.5174880623817444
1739920579055741200,4.6177412109375,3.7749760150909424,-0.5766924619674683,0.5388198494911194
1739920579065723000,4.627722900390625,3.713998794555664,-0.5593163967132568,0.5866989493370056
1739920579075706000,4.6377060546875,3.639281749725342,-0.5160159468650818,0.6925385594367981
1739920579085688000,4.64768798828125,3.555673122406006,-0.47271400690078735,0.8610237240791321
1739920579095670000,4.657669921875,3.4663593769073486,-0.4570293724536896,1.026167631149292
1739920579105652000,4.66765185546875,3.3946073055267334,-0.4523070454597473,1.1284772157669067
1739920579115635000,4.677635009765625,3.335251808166504,-0.4372378885746002,1.1864421367645264
1739920579125617200,4.6876171875,3.2626521587371826,-0.4160492420196533,1.212320327758789
1739920579135598800,4.697598876953125,3.183336019515991,-0.3785693347454071,1.223521113395691
1739920579145581000,4.7075810546875,3.102377414703369,-0.3029395639896393,1.2108335494995117
1739920579155564000,4.71756396484375,3.025050401687622,-0.1539258062839508,1.157466173171997
1739920579165546000,4.7275458984375,2.9840304851531982,0.046160150319337845,1.0700128078460693
1739920579175528000,4.73752783203125,2.9543371200561523,0.24823880195617676,0.9437776803970337
1739920579185510000,4.747510009765625,2.8837077617645264,0.37985512614250183,0.7854836583137512
1739920579195492000,4.7574921875,2.7409708499908447,0.4267222583293915,0.6090471148490906
1739920579205475000,4.76747509765625,2.5387563705444336,0.38529330492019653,0.40873292088508606
1739920579215457000,4.77745703125,2.2404115200042725,0.2699749171733856,0.17657652497291565
1739920579225439000,4.78743896484375,1.8565291166305542,0.11227823793888092,-0.06261289119720459
1739920579235421000,4.7974208984375,1.414871096611023,-0.06268185377120972,-0.30914148688316345
1739920579245404000,4.80740380859375,0.9390491247177124,-0.2270825058221817,-0.5790451765060425
1739920579255386000,4.81738623046875,0.4489206075668335,-0.34397828578948975,-0.8538958430290222
1739920579265368000,4.8273681640625,-0.03253898769617081,-0.37924492359161377,-1.1023799180984497
1739920579275350000,4.83735009765625,-0.4696517288684845,-0.32738563418388367,-1.2875065803527832
1739920579285333000,4.8473330078125,-0.8518193364143372,-0.26208066940307617,-1.3926358222961426
1739920579295315000,4.85731494140625,-1.1789608001708984,-0.2562946379184723,-1.4091039896011353
1739920579305297000,4.867296875,-1.4718730449676514,-0.32840317487716675,-1.3366601467132568
1739920579315279000,4.877279052734375,-1.8025506734848022,-0.4378516972064972,-1.1943963766098022
1739920579325261000,4.887260986328125,-2.1699533462524414,-0.5006902813911438,-0.9999813437461853
1739920579335244000,4.897244140625,-2.5210015773773193,-0.501223623752594,-0.7914462089538574
1739920579345226000,4.90722607421875,-2.779813528060913,-0.48575836420059204,-0.5937805771827698
1739920579355208000,4.9172080078125,-3.00929594039917,-0.4142998456954956,-0.43894582986831665
1739920579365190100,4.927190185546875,-3.280212163925171,-0.21184049546718597,-0.35551777482032776
1739920579375173000,4.937173095703125,-3.59431529045105,0.1506427824497223,-0.35641950368881226
1739920579385155000,4.947155029296875,-3.9066872596740723,0.5928745269775391,-0.40330711007118225
1739920579395137000,4.957136962890625,-4.164877891540527,1.028857707977295,-0.461976021528244
1739920579405119000,4.967118896484375,-4.370878219604492,1.4056164026260376,-0.5162426829338074
1739920579415101000,4.977100830078125,-4.546436309814453,1.6638158559799194,-0.5687146782875061
1739920579425084200,4.987084228515625,-4.698797225952148,1.7828130722045898,-0.6453878879547119
1739920579435066000,4.997066162109375,-4.816222190856934,1.741965413093567,-0.7589502930641174
1739920579445048000,5.007048095703125,-4.916794776916504,1.5635546445846558,-0.9077240824699402
1739920579455030000,5.017030029296875,-4.9801177978515625,1.3260810375213623,-1.1106656789779663
1739920579465013000,5.027012939453125,-4.952824592590332,1.043528437614441,-1.342995285987854
1739920579474995000,5.036994873046875,-4.8500542640686035,0.7449818253517151,-1.5649725198745728
1739920579484977000,5.046976806640625,-4.7071533203125,0.5054597854614258,-1.7289398908615112
1739920579494959000,5.056958984375,-4.579561710357666,0.3852158784866333,-1.786673903465271
1739920579504941800,5.06694189453125,-4.484803676605225,0.37496402859687805,-1.7103660106658936
1739920579514924000,5.076924072265625,-4.389373302459717,0.4469601511955261,-1.5110055208206177
1739920579524906000,5.086906005859375,-4.229118824005127,0.5126148462295532,-1.209417462348938
1739920579534888000,5.096887939453125,-4.028232574462891,0.555192768573761,-0.8640363216400146
1739920579544870000,5.106869873046875,-3.844265937805176,0.6440757513046265,-0.5280460715293884
1739920579554852900,5.116852783203125,-3.659233331680298,0.7424795031547546,-0.23457586765289307
1739920579564835000,5.1268349609375,-3.4637300968170166,0.8444828391075134,0.04220940172672272
1739920579574817000,5.136817138671875,-3.286072254180908,0.926203191280365,0.2896808385848999
1739920579584799000,5.146799072265625,-3.122967004776001,0.9346213936805725,0.46857523918151855
1739920579594782200,5.1567822265625,-2.980513334274292,0.8831202983856201,0.5532287359237671
1739920579604764000,5.166763916015625,-2.8176326751708984,0.7686286568641663,0.5640019774436951
1739920579614746600,5.17674658203125,-2.6220595836639404,0.6301569938659668,0.5180615186691284
1739920579624728600,5.186728515625,-2.445802927017212,0.5088116526603699,0.4230788052082062
1739920579634710500,5.19671044921875,-2.319201946258545,0.4185025691986084,0.2669503390789032
1739920579644693500,5.206693603515625,-2.1719985008239746,0.30045023560523987,0.05282767862081528
1739920579654675500,5.216675537109375,-1.9979664087295532,0.18168865144252777,-0.1936042755842209
1739920579664657700,5.22665771484375,-1.8585270643234253,0.10787036269903183,-0.4134722054004669
1739920579674639600,5.2366396484375,-1.765653371810913,0.07604514807462692,-0.5734377503395081
1739920579684622600,5.24662255859375,-1.6577391624450684,0.06714273244142532,-0.68343585729599
1739920579694604500,5.2566044921875,-1.5053293704986572,-0.02062072604894638,-0.7754912972450256
1739920579704586500,5.26658642578125,-1.3587350845336914,-0.1496250480413437,-0.833818256855011
1739920579714568700,5.276568603515625,-1.2667893171310425,-0.19419799745082855,-0.848091185092926
1739920579724551700,5.2865517578125,-1.2164419889450073,-0.15840217471122742,-0.8209013938903809
1739920579734533600,5.29653369140625,-1.163995623588562,-0.06607373803853989,-0.7563986778259277
1739920579744515600,5.306515625,-1.0854566097259521,0.07204525172710419,-0.6638916730880737
1739920579754497500,5.31649755859375,-0.9664731621742249,0.23933325707912445,-0.5428537130355835
1739920579764480500,5.32648046875,-0.846238911151886,0.38791579008102417,-0.37741178274154663
1739920579774462700,5.336462646484375,-0.6980160474777222,0.5653454065322876,-0.17679539322853088
1739920579784444700,5.346444580078125,-0.4631417393684387,0.6975444555282593,0.04628509283065796
1739920579794426600,5.356426513671875,-0.10969230532646179,0.7520102262496948,0.28739088773727417
1739920579804408600,5.36640869140625,0.2807998061180115,0.6917482614517212,0.5159409642219543
1739920579814391600,5.3763916015625,0.6738847494125366,0.5243686437606812,0.6983592510223389
1739920579824373500,5.38637353515625,1.0424153804779053,0.3957478106021881,0.8246482014656067
1739920579834355700,5.396355712890625,1.4070419073104858,0.326455682516098,0.8973297476768494
1739920579844337700,5.406337646484375,1.8393181562423706,0.25177106261253357,0.9449340105056763
1739920579854320600,5.416320556640625,2.3377370834350586,0.1270015984773636,1.0076370239257812
1739920579864302600,5.426302490234375,2.822103261947632,-0.0028506657108664513,1.1080013513565063
1739920579874284500,5.436284423828125,3.2346103191375732,-0.043436065316200256,1.233124017715454
1739920579884266500,5.4462666015625,3.5791749954223633,0.007216992322355509,1.369095802307129
1739920579894249700,5.456249755859375,3.8537158966064453,0.10412365943193436,1.5096126794815063
1739920579904231400,5.4662314453125,4.040009498596191,0.2251289039850235,1.655503749847412
1739920579914213600,5.476213623046875,4.145344257354736,0.3256564140319824,1.7744237184524536
1739920579924195600,5.486195556640625,4.190464973449707,0.37819844484329224,1.8379877805709839
1739920579934177500,5.496177490234375,4.194433689117432,0.41676998138427734,1.8438634872436523
1739920579944160800,5.506160888671875,4.117442607879639,0.46810561418533325,1.8186149597167969
1739920579954142500,5.516142578125,3.959942579269409,0.5480619072914124,1.7768547534942627
1739920579964124700,5.526124755859375,3.744722604751587,0.608606219291687,1.7357507944107056
1739920579974106600,5.536106689453125,3.524846315383911,0.6887462139129639,1.6934980154037476
1739920579984089600,5.546089599609375,3.3382532596588135,0.7554203271865845,1.6586673259735107
1739920579994071600,5.556071533203125,3.191659927368164,0.8337618112564087,1.5888712406158447
1739920580004053500,5.566053466796875,3.092055082321167,0.9201304912567139,1.4645287990570068
1739920580014035700,5.57603564453125,3.0380282402038574,0.9717311263084412,1.2835934162139893
1739920580024018400,5.586018310546875,3.0470094680786133,0.9538533687591553,1.0618122816085815
1739920580034000600,5.596000732421875,3.087531328201294,0.8859013319015503,0.8299069404602051
1739920580043982600,5.605982666015625,3.1361191272735596,0.7709838151931763,0.6152636408805847
1739920580053964500,5.615964599609375,3.2056286334991455,0.6454820036888123,0.42140963673591614
1739920580063947800,5.62594775390625,3.291463851928711,0.5183602571487427,0.24284204840660095
1739920580073929500,5.635929443359375,3.383890151977539,0.3800225853919983,0.08263438194990158
1739920580083911700,5.64591162109375,3.486583948135376,0.25854966044425964,-0.05300813913345337
1739920580093893600,5.6558935546875,3.5720136165618896,0.14471767842769623,-0.17248259484767914
1739920580103875600,5.66587548828125,3.6621458530426025,0.002471325919032097,-0.27644655108451843
1739920580113858800,5.67585888671875,3.7405693531036377,-0.1696595698595047,-0.3515772521495819
1739920580123840500,5.685840576171875,3.7962300777435303,-0.3534669578075409,-0.40348732471466064
1739920580133822700,5.69582275390625,3.8044698238372803,-0.5219942927360535,-0.42435505986213684
1739920580143804700,5.7058046875,3.7699785232543945,-0.6639687418937683,-0.4045752286911011
1739920580153787600,5.71578759765625,3.6869595050811768,-0.823180615901947,-0.3312683403491974
1739920580163769600,5.72576953125,3.5964879989624023,-0.9873727560043335,-0.21255819499492645
1739920580173751600,5.73575146484375,3.513554096221924,-1.1047254800796509,-0.05978504568338394
1739920580183733800,5.745733642578125,3.444572687149048,-1.1704334020614624,0.09547218680381775
1739920580193716500,5.755716552734375,3.3660926818847656,-1.191940426826477,0.24997052550315857
1739920580203698700,5.76569873046875,3.2571280002593994,-1.1562726497650146,0.3843248784542084
1739920580213680400,5.775680419921875,3.1174445152282715,-1.0607386827468872,0.49276554584503174
1739920580223662600,5.78566259765625,2.947277307510376,-0.9757617712020874,0.5993092656135559
1739920580233645600,5.7956455078125,2.7599422931671143,-0.8906503915786743,0.7384707927703857
1739920580243627500,5.80562744140625,2.580475091934204,-0.7563332915306091,0.8914006948471069
1739920580253609700,5.815609619140625,2.4151859283447266,-0.5442072153091431,1.0322920083999634
1739920580263591400,5.82559130859375,2.2550926208496094,-0.33220258355140686,1.0981959104537964
1739920580273574700,5.83557470703125,2.0698506832122803,-0.20838941633701324,1.0142333507537842
1739920580283556600,5.845556640625,1.831254243850708,-0.1645074486732483,0.7528073787689209
1739920580293538600,5.85553857421875,1.545240879058838,-0.1508093923330307,0.3488939702510834
1739920580303520800,5.865520751953125,1.2267014980316162,-0.17667773365974426,-0.13998626172542572
1739920580313502500,5.87550244140625,0.8713111877441406,-0.247211292386055,-0.6522380709648132
1739920580323485700,5.885485595703125,0.46244701743125916,-0.3539204001426697,-1.1241939067840576
1739920580333467400,5.89546728515625,0.03274663910269737,-0.434277206659317,-1.4906105995178223
1739920580343449600,5.90544970703125,-0.4036969840526581,-0.47929662466049194,-1.7219160795211792
1739920580353431800,5.915431884765625,-0.8286680579185486,-0.509959876537323,-1.8217512369155884
1739920580363414500,5.92541455078125,-1.245574712753296,-0.5192788243293762,-1.7952409982681274
1739920580373396700,5.935396728515625,-1.6513087749481201,-0.4769923686981201,-1.670750617980957
1739920580383378400,5.94537841796875,-1.9997529983520508,-0.3522472381591797,-1.5069806575775146
1739920580393360600,5.955360595703125,-2.2954914569854736,-0.18081416189670563,-1.343571662902832
1739920580403343600,5.965343505859375,-2.558347463607788,0.05359913781285286,-1.2056446075439453
1739920580413325600,5.97532568359375,-2.81477427482605,0.3741709291934967,-1.0726830959320068
1739920580423307800,5.985307861328125,-3.1038036346435547,0.7372785806655884,-0.9487810730934143
1739920580433289500,5.99528955078125,-3.425842523574829,1.0401320457458496,-0.8291594386100769
1739920580443272700,6.005272705078125,-3.7437002658843994,1.2150110006332397,-0.7202082276344299
1739920580453254700,6.015254638671875,-4.041311740875244,1.2860212326049805,-0.615046501159668
1739920580463236600,6.025236572265625,-4.330694675445557,1.3123207092285156,-0.49251073598861694
1739920580473218600,6.035218505859375,-4.607680320739746,1.3579134941101074,-0.3377412259578705
1739920580483201500,6.045201416015625,-4.849722385406494,1.4467171430587769,-0.16349992156028748
1739920580493183500,6.05518359375,-5.024839401245117,1.5986700057983398,0.0007414009887725115
1739920580503165400,6.06516552734375,-5.1395368576049805,1.7717351913452148,0.14948028326034546
1739920580513147600,6.075147705078125,-5.238077640533447,1.914415955543518,0.26774823665618896
1739920580523129600,6.085129638671875,-5.32213020324707,1.9637227058410645,0.33992522954940796
1739920580533112600,6.095112548828125,-5.394335746765137,1.922463059425354,0.38138553500175476
1739920580543094500,6.105094482421875,-5.459334373474121,1.8314111232757568,0.4193662106990814
1739920580553076500,6.115076416015625,-5.527350902557373,1.7275208234786987,0.4778173565864563
1739920580563058700,6.12505859375,-5.582375526428223,1.661016821861267,0.5724088549613953
1739920580573041700,6.135041748046875,-5.615503311157227,1.6786587238311768,0.7143376469612122
1739920580583023600,6.145023681640625,-5.621866703033447,1.726928472518921,0.9142254590988159
1739920580593005600,6.155005615234375,-5.626078128814697,1.7515954971313477,1.1650867462158203
1739920580602987500,6.164987548828125,-5.608232021331787,1.64006769657135,1.4118363857269287
1739920580612970200,6.17497021484375,-5.4431257247924805,1.3680047988891602,1.6147513389587402
1739920580622952000,6.184951904296875,-5.0933732986450195,0.9823034405708313,1.7583726644515991
1739920580632934100,6.19493408203125,-4.744052410125732,0.5523567795753479,1.8212361335754395
1739920580642916000,6.204916015625,-4.369832515716553,0.2124149203300476,1.8263558149337769
1739920580652899000,6.214899169921875,-3.975355386734009,-0.09991930425167084,1.7603765726089478
1739920580662881000,6.224881103515625,-3.547853946685791,-0.37560680508613586,1.5935266017913818
1739920580672863000,6.234863037109375,-3.1451025009155273,-0.6426635384559631,1.3333404064178467
1739920580682845200,6.24484521484375,-2.795351028442383,-0.8951029777526855,0.9801573157310486
1739920580692828200,6.254828125,-2.4864587783813477,-1.116703748703003,0.5786975026130676
1739920580702810000,6.26481005859375,-2.236182689666748,-1.2572957277297974,0.16746069490909576
1739920580712792000,6.2747919921875,-2.086244583129883,-1.34562349319458,-0.23652073740959167
1739920580722774000,6.28477392578125,-1.9822683334350586,-1.36700439453125,-0.6424120664596558
1739920580732757000,6.294757080078125,-1.920414686203003,-1.3143572807312012,-0.9939414262771606
1739920580742739200,6.3047392578125,-1.8900514841079712,-1.241527795791626,-1.2950810194015503
1739920580752721200,6.31472119140625,-1.8635146617889404,-1.1599555015563965,-1.5696882009506226
1739920580762703000,6.324703125,-1.8313708305358887,-1.0895529985427856,-1.801081657409668
1739920580772686000,6.33468603515625,-1.793416142463684,-1.0257022380828857,-1.9773404598236084
1739920580782668000,6.34466796875,-1.7407095432281494,-0.9482409954071045,-2.078596830368042
1739920580792650000,6.35464990234375,-1.7041605710983276,-0.8231495022773743,-2.0846593379974365
1739920580802632200,6.364632080078125,-1.6857231855392456,-0.6607110500335693,-1.9911117553710938
1739920580812615200,6.374615234375,-1.654361367225647,-0.5348183512687683,-1.7997125387191772
1739920580822597000,6.38459716796875,-1.6117329597473145,-0.41388237476348877,-1.5349496603012085
1739920580832579000,6.3945791015625,-1.5561981201171875,-0.24434760212898254,-1.2308921813964844
1739920580842561000,6.40456103515625,-1.4876824617385864,-0.04111379012465477,-0.9283799529075623
1739920580852543200,6.414543212890625,-1.360430359840393,0.18255624175071716,-0.6313897371292114
1739920580862526200,6.424526123046875,-1.1600871086120605,0.4272461235523224,-0.3816877603530884
1739920580872508200,6.434508056640625,-0.9180790185928345,0.6471923589706421,-0.16351814568042755
1739920580882490000,6.444489990234375,-0.6003410220146179,0.7503144145011902,0.05243941769003868
1739920580892472000,6.45447216796875,-0.20125606656074524,0.6756918430328369,0.2971118986606598
1739920580902455000,6.464455078125,0.26070597767829895,0.5091705322265625,0.5300018191337585
1739920580912437200,6.474437255859375,0.7326974272727966,0.36037036776542664,0.7173680663108826
1739920580922419000,6.4844189453125,1.2089550495147705,0.2160361111164093,0.867439866065979
1739920580932401200,6.494401123046875,1.6921873092651367,0.05177702382206917,1.0022432804107666
1739920580942384000,6.504384033203125,2.1525051593780518,-0.0468110665678978,1.1211820840835571
1739920580952366000,6.514365966796875,2.570510149002075,-0.053754642605781555,1.2198189496994019
1739920580962348000,6.52434814453125,2.9649641513824463,0.028448350727558136,1.278640627861023
1739920580972330000,6.534330078125,3.3065297603607178,0.1740461140871048,1.305417537689209
1739920580982313200,6.544313232421875,3.5946056842803955,0.36789679527282715,1.312633991241455
1739920580992295000,6.554294921875,3.8342125415802,0.5832129120826721,1.3055967092514038
1739920581002277000,6.564277099609375,4.0288405418396,0.7872885465621948,1.2976418733596802
1739920581012259000,6.574259033203125,4.1729631423950195,0.9859331846237183,1.2796553373336792
1739920581022242000,6.584241943359375,4.256593227386475,1.1894162893295288,1.2417532205581665
1739920581032224300,6.594224365234375,4.280447483062744,1.3638553619384766,1.1956005096435547
1739920581042206000,6.6042060546875,4.2407684326171875,1.476629614830017,1.1349233388900757
1739920581052188200,6.614188232421875,4.162622928619385,1.526023507118225,1.0609797239303589
1739920581062171000,6.6241708984375,4.07058572769165,1.4967182874679565,0.9697859883308411
1739920581072153000,6.634153076171875,3.95953369140625,1.4084160327911377,0.8528229594230652
1739920581082135300,6.64413525390625,3.857072353363037,1.2643603086471558,0.6817777156829834
1739920581092117000,6.654116943359375,3.7685320377349854,1.1130574941635132,0.4556747376918793
1739920581102100200,6.664100341796875,3.6830389499664307,1.0103191137313843,0.20421797037124634
1739920581112082000,6.67408203125,3.5948710441589355,0.9484896659851074,-0.03954654186964035
1739920581122064100,6.684064208984375,3.5050628185272217,0.8741108179092407,-0.24323680996894836
1739920581132046000,6.694046142578125,3.4520866870880127,0.7406340837478638,-0.3993438482284546
1739920581142028000,6.704028076171875,3.4507336616516113,0.5632963180541992,-0.491628497838974
1739920581152011300,6.71401123046875,3.509352445602417,0.4022725224494934,-0.5111626386642456
1739920581161993000,6.723992919921875,3.6107215881347656,0.28582847118377686,-0.48090028762817383
1739920581171975200,6.73397509765625,3.7450339794158936,0.19212813675403595,-0.4400211572647095
1739920581181958100,6.743958251953125,3.9083733558654785,0.10155323147773743,-0.4153200685977936
1739920581191940000,6.753940185546875,4.070805072784424,0.029283352196216583,-0.39970850944519043
1739920581201922300,6.76392236328125,4.213325500488281,-0.02458733692765236,-0.39034321904182434
1739920581211904000,6.773904052734375,4.319502830505371,-0.08440376818180084,-0.3909605145454407
1739920581221886200,6.78388623046875,4.392960071563721,-0.1534148007631302,-0.3824077546596527
1739920581231869000,6.793868896484375,4.428611755371094,-0.2216600477695465,-0.37156420946121216
1739920581241851100,6.80385107421875,4.43874979019165,-0.2878284156322479,-0.35539668798446655
1739920581251833000,6.8138330078125,4.41519021987915,-0.39353707432746887,-0.3144429624080658
1739920581261815000,6.82381494140625,4.350170135498047,-0.542419970035553,-0.23737773299217224
1739920581271798000,6.833798095703125,4.248889446258545,-0.6628693342208862,-0.10853376984596252
1739920581281780000,6.843780029296875,4.119886875152588,-0.7245273590087891,0.04680894687771797
1739920581291762200,6.85376220703125,3.9970743656158447,-0.7454856038093567,0.2339237928390503
1739920581301743900,6.863743896484375,3.88516902923584,-0.7323657870292664,0.4500747621059418
1739920581311727000,6.87372705078125,3.6977148056030273,-0.6006444096565247,0.7355333566665649
1739920581321709000,6.883708984375,3.389954090118408,-0.34317317605018616,1.0991169214248657
1739920581331691000,6.89369091796875,2.923492670059204,0.0754719153046608,1.5439198017120361
1739920581341673200,6.903673095703125,2.371906280517578,0.613555908203125,2.015458106994629
1739920581351656200,6.91365625,1.8885250091552734,1.1566083431243896,2.403883218765259
1739920581361638100,6.92363818359375,1.5541912317276,1.668850064277649,2.630451202392578
1739920581371620000,6.9336201171875,1.3416740894317627,2.1542840003967285,2.6614692211151123
1739920581381602000,6.94360205078125,1.175918459892273,2.5614962577819824,2.5056045055389404
1739920581391585000,6.9535849609375,0.9398859143257141,2.7903788089752197,2.1521718502044678
1739920581401567000,6.96356689453125,0.5675302147865295,2.7696444988250732,1.6196566820144653
1739920581411549200,6.973549072265625,0.09148868173360825,2.4912919998168945,0.963106632232666
1739920581421531100,6.98353125,-0.408601313829422,1.9797874689102173,0.2284688651561737
1739920581431514000,6.99351416015625,-0.8739398121833801,1.2686089277267456,-0.5196909308433533
1739920581441496000,7.00349609375,-1.3055578470230103,0.516795814037323,-1.1811906099319458
1739920581451478000,7.01347802734375,-1.686232328414917,-0.13881054520606995,-1.6774479150772095
1739920581461460200,7.023460205078125,-2.0158841609954834,-0.6793891191482544,-1.9998887777328491
1739920581471443200,7.033443115234375,-2.2880592346191406,-1.1240639686584473,-2.1502938270568848
1739920581481425200,7.043425048828125,-2.5345325469970703,-1.3905526399612427,-2.158613443374634
1739920581491407000,7.053406982421875,-2.756821870803833,-1.4428846836090088,-2.0715386867523193
1739920581501389000,7.06338916015625,-2.9068143367767334,-1.349921464920044,-1.945007085800171
1739920581511372000,7.0733720703125,-2.9447524547576904,-1.226291298866272,-1.807971715927124
1739920581521354200,7.083354248046875,-2.954671621322632,-1.0949947834014893,-1.643126368522644
1739920581531336200,7.093336181640625,-3.0271718502044678,-0.965996265411377,-1.4515137672424316
1739920581541318100,7.103318115234375,-3.210747718811035,-0.8316738605499268,-1.242788314819336
1739920581551301000,7.113301025390625,-3.474534273147583,-0.7217142581939697,-1.0037868022918701
1739920581561283000,7.123282958984375,-3.7781267166137695,-0.6069549322128296,-0.7500938177108765
1739920581571265000,7.13326513671875,-4.059343338012695,-0.4693000316619873,-0.48457852005958557
1739920581581247000,7.1432470703125,-4.3077592849731445,-0.31626972556114197,-0.23935331404209137
1739920581591230200,7.153230224609375,-4.493431568145752,-0.14426513016223907,-0.03314783051609993
1739920581601212000,7.1632119140625,-4.612203121185303,0.02151184342801571,0.12417281419038773
1739920581611194000,7.173194091796875,-4.674191951751709,0.13731749355793,0.22239303588867188
1739920581621175800,7.18317578125,-4.695553779602051,0.1870131492614746,0.28694671392440796
1739920581631158500,7.193158447265625,-4.689481258392334,0.15389148890972137,0.34314700961112976
1739920581641140700,7.203140625,-4.671620845794678,0.05455024912953377,0.39915862679481506
1739920581651122700,7.213122802734375,-4.626698017120361,-0.08445324003696442,0.45479485392570496
1739920581661104600,7.223104736328125,-4.555023193359375,-0.25039052963256836,0.48982393741607666
1739920581671087600,7.233087646484375,-4.446786880493164,-0.38064441084861755,0.4813934564590454
1739920581681069600,7.243069580078125,-4.315746784210205,-0.4712534248828888,0.4453811049461365
1739920581691051800,7.2530517578125,-4.152120590209961,-0.5241556167602539,0.41015732288360596
1739920581701033500,7.263033447265625,-3.9555864334106445,-0.5170308947563171,0.3716464340686798
1739920581711016700,7.2730166015625,-3.7443482875823975,-0.4718785881996155,0.32264721393585205
1739920581720998700,7.28299853515625,-3.544072151184082,-0.41108712553977966,0.2599087357521057
1739920581730980600,7.292980712890625,-3.382580041885376,-0.3535832166671753,0.15899258852005005
1739920581740962800,7.302962890625,-3.271639585494995,-0.34623607993125916,0.02510375715792179
1739920581750945800,7.31294580078125,-3.1892385482788086,-0.42540907859802246,-0.10109126567840576
1739920581760927700,7.322927734375,-3.109830141067505,-0.5427170991897583,-0.21167424321174622
1739920581770909700,7.33290966796875,-3.0261943340301514,-0.6884039044380188,-0.3129287362098694
1739920581780891600,7.3428916015625,-2.9706642627716064,-0.8103236556053162,-0.44526997208595276
1739920581790874600,7.35287451171875,-2.9454948902130127,-0.9092093706130981,-0.5820118188858032
1739920581800856600,7.362856689453125,-2.9115071296691895,-0.9646055102348328,-0.6875874996185303
1739920581810838800,7.3728388671875,-2.8537864685058594,-0.9687699675559998,-0.7427932024002075
1739920581820820700,7.38282080078125,-2.7874205112457275,-0.9374245405197144,-0.7483506798744202
1739920581830803700,7.3928037109375,-2.739946126937866,-0.8788166642189026,-0.746574878692627
1739920581840785700,7.40278564453125,-2.675401449203491,-0.7792421579360962,-0.7843262553215027
1739920581850767600,7.412767578125,-2.569011926651001,-0.63702392578125,-0.8335365653038025
1739920581860749800,7.422749755859375,-2.4341633319854736,-0.4387481212615967,-0.8556117415428162
1739920581870732800,7.43273291015625,-2.314852237701416,-0.1811670958995819,-0.7904704213142395
1739920581880714800,7.44271484375,-2.2082011699676514,0.08849846571683884,-0.6234500408172607
1739920581890696700,7.45269677734375,-2.0609970092773438,0.29449307918548584,-0.3654056489467621
1739920581900678700,7.4626787109375,-1.8289074897766113,0.41312676668167114,-0.021408317610621452
1739920581910661600,7.47266162109375,-1.5428884029388428,0.49095261096954346,0.3954140245914459
1739920581920643800,7.482643798828125,-1.212532877922058,0.6317307949066162,0.8285319209098816
1739920581930625800,7.492625732421875,-0.8641486763954163,0.8113138675689697,1.2202953100204468
1739920581940607700,7.502607666015625,-0.5181108713150024,0.9014610648155212,1.533727765083313
1739920581950590700,7.5125908203125,-0.18203704059123993,0.9107315540313721,1.7029258012771606
1739920581960572700,7.52257275390625,0.14872436225414276,0.8821662068367004,1.7064683437347412
1739920581970554600,7.5325546875,0.4553944170475006,0.8882034420967102,1.5544298887252808
1739920581980536600,7.54253662109375,0.7063960433006287,0.8587587475776672,1.2877042293548584
1739920581990519800,7.552519775390625,0.8753090500831604,0.7085313200950623,0.9896979331970215
1739920582000501800,7.562501708984375,0.9559788703918457,0.4558276832103729,0.7256564497947693
1739920582010483700,7.572483642578125,0.9879596829414368,0.20057089626789093,0.4901515245437622
1739920582020465700,7.582465576171875,1.0387996435165405,0.005463199689984322,0.2798590064048767
1739920582030448600,7.59244873046875,1.1542487144470215,-0.13649806380271912,0.1264108568429947
1739920582040430800,7.602430908203125,1.351165533065796,-0.22481274604797363,0.09009306132793427
1739920582050412500,7.61241259765625,1.6024812459945679,-0.17746306955814362,0.17822054028511047
1739920582060394800,7.622394775390625,1.885640263557434,0.031207049265503883,0.35741105675697327
1739920582070377700,7.632377685546875,2.169881582260132,0.40670153498649597,0.5572173595428467
1739920582080359700,7.642359619140625,2.4007327556610107,0.861693263053894,0.7329859733581543
1739920582090342000,7.652341796875,2.5448813438415527,1.3300381898880005,0.8945425748825073
1739920582100323600,7.662323486328125,2.6270575523376465,1.7127933502197266,1.0629839897155762
1739920582110306800,7.672306884765625,2.6730477809906006,1.990602970123291,1.2171257734298706
1739920582120288500,7.68228857421875,2.688502311706543,2.2211174964904785,1.3251036405563354
1739920582130270700,7.692270751953125,2.6899161338806152,2.427238702774048,1.3732720613479614
1739920582140252700,7.702252685546875,2.6833083629608154,2.5906009674072266,1.3617035150527954
1739920582150235600,7.712235595703125,2.6800265312194824,2.667685031890869,1.2909082174301147
1739920582160217900,7.7222177734375,2.7151365280151367,2.6572859287261963,1.1648086309432983
1739920582170199600,7.732199462890625,2.789316415786743,2.5677754878997803,1.0072107315063477
1739920582180181800,7.742181640625,2.8778305053710938,2.425779342651367,0.8437917828559875
1739920582190164700,7.752164794921875,2.973670721054077,2.2076923847198486,0.6930943131446838
1739920582200146700,7.762146728515625,3.0929455757141113,1.8918873071670532,0.5201653838157654
1739920582210129000,7.77212890625,3.2290422916412354,1.527635097503662,0.2559410035610199
1739920582220110600,7.782110595703125,3.3776979446411133,1.1796356439590454,-0.12495521456003189
1739920582230093800,7.79209375,3.5262935161590576,0.8210582733154297,-0.5803662538528442
1739920582240075800,7.80207568359375,3.691598415374756,0.44258633255958557,-1.039302110671997
1739920582250057700,7.8120576171875,3.896122932434082,0.049973368644714355,-1.4168941974639893
1739920582260040700,7.822040771484375,4.145476818084717,-0.33843910694122314,-1.664228916168213
1739920582270022700,7.832022705078125,4.414566993713379,-0.7108573317527771,-1.802980899810791
1739920582280004900,7.8420048828125,4.683841228485107,-1.0401700735092163,-1.8542664051055908
1739920582289986600,7.851986572265625,4.933257102966309,-1.333060383796692,-1.8353066444396973
1739920582299969800,7.8619697265625,5.1393208503723145,-1.5436439514160156,-1.7739812135696411
1739920582309951700,7.87195166015625,5.290349960327148,-1.656825304031372,-1.688395619392395
1739920582319933700,7.88193359375,5.404288291931152,-1.6872249841690063,-1.624579668045044
1739920582329916700,7.891916748046875,5.501356601715088,-1.6577317714691162,-1.5797462463378906
1739920582339899000,7.90189892578125,5.553152084350586,-1.545515775680542,-1.5632418394088745
1739920582349880600,7.911880615234375,5.555840969085693,-1.3687043190002441,-1.5501326322555542
1739920582359862800,7.92186279296875,5.501206398010254,-1.188360333442688,-1.5473018884658813
1739920582369845500,7.931845458984375,5.4137396812438965,-1.0334209203720093,-1.554984450340271
1739920582379827700,7.94182763671875,5.293820381164551,-0.9265642166137695,-1.569028377532959
1739920582389809700,7.9518095703125,5.162775993347168,-0.9275989532470703,-1.5577493906021118
1739920582399791600,7.96179150390625,5.009780406951904,-1.0606470108032227,-1.5064265727996826
1739920582409774800,7.97177490234375,4.807825565338135,-1.2495816946029663,-1.4364639520645142
1739920582419756500,7.981756591796875,4.562108516693115,-1.4262409210205078,-1.3402788639068604
1739920582429738800,7.99173876953125,4.274515628814697,-1.5369399785995483,-1.2187772989273071
1739920582439720700,8.001720703125,3.9474360942840576,-1.5800507068634033,-1.0570576190948486
1739920582449703700,8.01170361328125,3.602220058441162,-1.5572240352630615,-0.8635618090629578
1739920582459686000,8.021685791015624,3.242872953414917,-1.4781420230865479,-0.6312475800514221
1739920582469667600,8.03166748046875,2.87215256690979,-1.3748325109481812,-0.355548620223999
1739920582479650800,8.04165087890625,2.5002288818359375,-1.234308123588562,-0.07324662059545517
1739920582489632500,8.051632568359375,2.137147903442383,-1.069050669670105,0.2083675116300583
1739920582499614700,8.06161474609375,1.7620550394058228,-0.8988677859306335,0.46922945976257324
1739920582509597000,8.071596923828125,1.3693851232528687,-0.7113014459609985,0.7000674605369568
1739920582519579600,8.08157958984375,0.9454617500305176,-0.5483607649803162,0.8826875686645508
1739920582529561900,8.091561767578124,0.47034862637519836,-0.42565277218818665,0.9895674586296082
1739920582539543600,8.10154345703125,-0.058637991547584534,-0.2712935507297516,1.014591932296753
1739920582549525800,8.11152587890625,-0.6380512714385986,-0.08132465928792953,0.9689155220985413
1739920582559508700,8.1215087890625,-1.230154037475586,0.06686002016067505,0.8849404454231262
1739920582569490700,8.13149072265625,-1.8024684190750122,0.13074354827404022,0.812913715839386
1739920582579473000,8.141472900390625,-2.298328161239624,0.14855477213859558,0.798033595085144
1739920582589454600,8.15145458984375,-2.6640846729278564,0.13183441758155823,0.8151098489761353
1739920582599437800,8.161437744140626,-2.9051051139831543,0.054060522466897964,0.8424349427223206
1739920582609419800,8.171419677734375,-3.076982259750366,-0.040518466383218765,0.8458165526390076
1739920582619402200,8.18140234375,-3.2445855140686035,-0.10443007200956345,0.8143579959869385
1739920582629384000,8.191384033203125,-3.4557385444641113,-0.07930660992860794,0.7687984704971313
1739920582639367200,8.2013671875,-3.6988940238952637,0.03418879583477974,0.7079793810844421
1739920582649349000,8.21134912109375,-3.9692935943603516,0.22317670285701752,0.623716413974762
1739920582659331000,8.2213310546875,-4.269161701202393,0.4628441631793976,0.49210143089294434
1739920582669313300,8.231313232421876,-4.591904640197754,0.7482884526252747,0.29782673716545105
1739920582679295000,8.241294921875,-4.940857410430908,1.0309950113296509,0.06186667084693909
1739920582689277200,8.251277099609375,-5.3045148849487305,1.2340259552001953,-0.19598692655563354
1739920582699260200,8.26126025390625,-5.632968425750732,1.3397363424301147,-0.47553494572639465
1739920582709242000,8.2712421875,-5.882146835327148,1.3308089971542358,-0.7821453213691711
1739920582719224300,8.281224365234374,-6.05578088760376,1.2493418455123901,-1.1077604293823242
1739920582729206000,8.2912060546875,-6.159836769104004,1.1106667518615723,-1.4380488395690918
1739920582739189200,8.301189208984376,-6.22206974029541,0.928374707698822,-1.7754029035568237
1739920582749171000,8.3111708984375,-6.2586236000061035,0.7263923287391663,-2.1143298149108887
1739920582759153200,8.321153076171875,-6.260213851928711,0.5279253125190735,-2.429155111312866
1739920582769135400,8.33113525390625,-6.239919185638428,0.36559322476387024,-2.689314842224121
1739920582779118000,8.3411181640625,-6.224400997161865,0.2569711208343506,-2.862666130065918
1739920582789100300,8.351100341796876,-6.207665920257568,0.21578168869018555,-2.9365451335906982
1739920582799082000,8.36108203125,-6.150417327880859,0.23697032034397125,-2.900282382965088
1739920582809064200,8.371064208984375,-6.033083915710449,0.30009034276008606,-2.73348331451416
1739920582819047200,8.381047119140625,-5.85499382019043,0.41130930185317993,-2.4583637714385986
1739920582829029000,8.391029052734375,-5.641039848327637,0.5691591501235962,-2.097576379776001
1739920582839011000,8.401010986328124,-5.3883161544799805,0.6718423366546631,-1.7050219774246216
1739920582848993000,8.410992919921876,-5.082869052886963,0.6867044568061829,-1.3783401250839233
1739920582858976000,8.42097607421875,-4.778151512145996,0.7169089913368225,-1.2390110492706299
1739920582868958200,8.430958251953125,-4.547666072845459,0.7868272662162781,-1.2552319765090942
1739920582878940200,8.440940185546875,-4.365650653839111,0.739460289478302,-1.337583303451538
1739920582888922000,8.450922119140625,-4.135310173034668,0.589082658290863,-1.4613959789276123
1739920582898905000,8.460905029296875,-3.750850200653076,0.38712984323501587,-1.6649035215377808
1739920582908887000,8.470886962890624,-3.210484266281128,-0.005876959767192602,-1.954049825668335
1739920582918869000,8.480868896484376,-2.658855676651001,-0.526924729347229,-2.301435708999634
1739920582928851200,8.490851318359375,-2.2589452266693115,-1.0848504304885864,-2.6258842945098877
1739920582938834200,8.500834228515625,-2.0835349559783936,-1.5224933624267578,-2.8376121520996094
1739920582948816100,8.510816162109375,-2.017995595932007,-1.7007224559783936,-2.9026777744293213
1739920582958798000,8.520798095703125,-1.9462865591049194,-1.621266484260559,-2.827207088470459
1739920582968781300,8.53078125,-1.83237624168396,-1.3486683368682861,-2.638366460800171
1739920582978763000,8.540762939453124,-1.6796722412109375,-1.0465925931930542,-2.343414068222046
1739920582988745200,8.5507451171875,-1.468499779701233,-0.6690284609794617,-2.0481607913970947
1739920582998727200,8.56072705078125,-1.2589308023452759,-0.35179322957992554,-1.7999714612960815
1739920583008710100,8.570710205078125,-1.1568868160247803,-0.16607852280139923,-1.5493708848953247
1739920583018692000,8.580692138671875,-1.1949340105056763,-0.1056162416934967,-1.186314344406128
1739920583028674000,8.590674072265625,-1.357994794845581,-0.07482802867889404,-0.66900634765625
1739920583038656300,8.60065625,-1.5609955787658691,0.04968807101249695,-0.08042005449533463
1739920583048639000,8.610638916015626,-1.6978347301483154,0.23446981608867645,0.5210275650024414
1739920583058621200,8.62062109375,-1.595864176750183,0.4385760724544525,1.1382150650024414
1739920583068603100,8.63060302734375,-1.1125587224960327,0.59971684217453,1.7582048177719116
1739920583078585000,8.640585205078125,-0.2617435157299042,0.6702842712402344,2.363006591796875
1739920583088568300,8.650568359375,0.8056425452232361,0.6910591125488281,2.8945956230163574
1739920583098550000,8.660550048828124,1.8625776767730713,0.7036265730857849,3.2734572887420654
1739920583108532200,8.6705322265625,2.7159268856048584,0.7545559406280518,3.4457507133483887
1739920583118514200,8.68051416015625,3.3158628940582275,0.8230636119842529,3.4557275772094727
1739920583128497200,8.6904970703125,3.6677303314208984,0.941473662853241,3.3784141540527344
1739920583138479400,8.700479248046875,3.848475217819214,1.12677800655365,3.292663097381592
1739920583148461000,8.7104609375,3.9878122806549072,1.3072437047958374,3.270141839981079
1739920583158443300,8.720443359375,4.220470428466797,1.3889548778533936,3.2677955627441406
1739920583168426000,8.730426025390624,4.558572769165039,1.2838276624679565,3.1806752681732178
1739920583178408200,8.740408203125,4.914015769958496,1.054779052734375,2.970597267150879
1739920583188390100,8.75039013671875,5.158162593841553,0.8042906522750854,2.6437344551086426
1739920583198372000,8.7603720703125,5.19895076751709,0.6111182570457458,2.264984369277954
1739920583208355000,8.77035498046875,5.050876617431641,0.4977749288082123,1.9186134338378906
1739920583218337000,8.7803369140625,4.8158345222473145,0.5003499388694763,1.6560925245285034
1739920583228319200,8.7903193359375,4.576581954956055,0.6062217950820923,1.4983477592468262
1739920583238302200,8.80030224609375,4.396390914916992,0.6928544640541077,1.4741151332855225
1739920583248284200,8.8102841796875,4.353397846221924,0.6721029281616211,1.6356711387634277
1739920583258266000,8.82026611328125,4.423220634460449,0.5286096930503845,1.8669549226760864
1739920583268248000,8.830248046875,4.5515456199646,0.4340764582157135,1.9390546083450317
1739920583278231000,8.84023095703125,4.604483127593994,0.4030269384384155,1.7973716259002686
1739920583288213000,8.850212890625,4.50675106048584,0.3836066424846649,1.5052525997161865
1739920583298195200,8.8601953125,4.323286056518555,0.33510807156562805,1.0798989534378052
1739920583308177200,8.87017724609375,4.10606050491333,0.218537375330925,0.5673839449882507
1739920583318160100,8.88016015625,3.935232639312744,0.0786132961511612,0.07613750547170639
1739920583328142000,8.89014208984375,3.8454835414886475,-0.08036459982395172,-0.2730121612548828
1739920583338124000,8.9001240234375,3.811842441558838,-0.21332824230194092,-0.4603112041950226
1739920583348106200,8.910106201171875,3.8528804779052734,-0.314765989780426,-0.47434890270233154
1739920583358089200,8.920089111328124,3.9965274333953857,-0.4992135763168335,-0.30933836102485657
1739920583368071200,8.9300712890625,4.193183422088623,-0.6462011337280273,-0.03970243036746979
1739920583378053000,8.94005322265625,4.393134593963623,-0.6578583121299744,0.24173429608345032
1739920583388035000,8.95003515625,4.537690162658691,-0.5685253739356995,0.44371339678764343
1739920583398018000,8.96001806640625,4.625735282897949,-0.40023866295814514,0.5592735409736633
1739920583408000300,8.970000244140625,4.63893461227417,-0.22883465886116028,0.6516932249069214
1739920583417982200,8.979982177734374,4.5185866355896,-0.03430112823843956,0.7775904536247253
1739920583427965200,8.989965087890624,4.377073764801025,0.19394083321094513,0.9069697260856628
1739920583437947100,8.999947021484376,4.39755916595459,0.6425467133522034,1.0507758855819702
1739920583447929000,9.00992919921875,4.507235050201416,1.258923053741455,1.2694743871688843
1739920583457911000,9.0199111328125,4.714790344238281,0.7741348147392273,1.4069010019302368
1739920583467894000,9.02989404296875,4.782597541809082,0.5489420890808105,1.2773734331130981
1739920583477876200,9.039876220703125,4.5596466064453125,0.6413314342498779,1.0203677415847778
1739920583487858200,9.049858154296874,4.187546253204346,0.514015793800354,0.7759332060813904
1739920583497840000,9.059840087890626,3.738922119140625,0.0967186838388443,0.48347121477127075
1739920583507823000,9.069822998046876,3.228144407272339,-0.39585956931114197,0.10446194559335709
1739920583517805000,9.07980517578125,2.6945407390594482,-0.8338097333908081,-0.3445821702480316
1739920583527787300,9.089787353515625,2.1731724739074707,-1.2082819938659668,-0.8190584778785706
1739920583537769000,9.09976904296875,1.713843822479248,-1.5630192756652832,-1.2985873222351074
1739920583547752200,9.109752197265625,1.321907639503479,-1.7680926322937012,-1.7296643257141113
1739920583557734000,9.11973388671875,0.9581294059753418,-1.7981789112091064,-2.0474953651428223
1739920583567716000,9.129716064453126,0.5988370180130005,-1.6316758394241333,-2.2471654415130615
1739920583577698300,9.1396982421875,0.2849912643432617,-1.4180899858474731,-2.26827073097229
1739920583587681000,9.149680908203125,0.008964904583990574,-1.2055178880691528,-2.0766348838806152
1739920583597663200,9.159663330078125,-0.23323015868663788,-1.0383936166763306,-1.6949981451034546
1739920583607645000,9.16964501953125,-0.45257219672203064,-1.0160167217254639,-1.1923646926879883
1739920583617628700,9.179628662109375,-0.8005881905555725,-0.7724080681800842,-0.8258963823318481
1739920583627610400,9.1896103515625,-1.1937593221664429,-0.6162152290344238,-0.5812408328056335
1739920583637592600,9.199592529296876,-1.580411672592163,-0.5442089438438416,-0.3145548105239868
1739920583647574500,9.209574462890625,-1.930575966835022,-0.47898542881011963,-0.02764781564474106
1739920583657557500,9.2195576171875,-2.163708448410034,-0.5031192302703857,0.27030637860298157
1739920583667539700,9.229539794921875,-2.332494020462036,-0.43236610293388367,0.5000900626182556
1739920583677521400,9.239521484375,-2.4335973262786865,-0.31777188181877136,0.6969271898269653
1739920583687503600,9.249503662109374,-2.47110652923584,-0.0506000854074955,0.8194636106491089
1739920583697486300,9.259486328125,-2.4283199310302734,-0.11483845114707947,0.8434128761291504
1739920583707468500,9.269468505859376,-2.3470003604888916,-0.3158080577850342,0.7950748801231384
1739920583717450500,9.279450439453125,-2.2831637859344482,-0.44405362010002136,0.6769687533378601
1739920583727432400,9.289432373046875,-2.297084093093872,-0.45535194873809814,0.4837241768836975
1739920583737415700,9.299415771484375,-2.2359471321105957,-0.5007615089416504,0.2083573192358017
1739920583747397400,9.3093974609375,-2.1274306774139404,-0.6162840723991394,-0.1327376365661621
1739920583757379600,9.319379638671874,-2.0359232425689697,-0.8015191555023193,-0.4985957741737366
1739920583767361300,9.329361328125,-1.969916820526123,-1.0785843133926392,-0.882935643196106
1739920583777344500,9.339344482421875,-1.9125603437423706,-1.3427555561065674,-1.2427449226379395
1739920583787326500,9.349326416015625,-1.95733642578125,-1.4865792989730835,-1.6735258102416992
1739920583797308400,9.359308349609375,-2.2315242290496826,-1.4375241994857788,-2.2559587955474854
1739920583807291400,9.36929150390625,-2.5028443336486816,-1.1420512199401855,-2.77470064163208
1739920583817273600,9.379273681640624,-2.5890958309173584,-0.9495238065719604,-3.1324806213378906
1739920583827255600,9.389255615234376,-2.4419138431549072,-1.0912867784500122,-3.317983627319336
1739920583837237500,9.399237548828125,-2.2316501140594482,-1.181920051574707,-3.3807613849639893
1739920583847220500,9.409220458984375,-2.0386531352996826,-1.0927270650863647,-3.3805110454559326
1739920583857202400,9.419202392578125,-1.8968174457550049,-0.8620238900184631,-3.396908760070801
1739920583867184400,9.429184326171875,-1.8183577060699463,-0.5678880214691162,-3.434769630432129
1739920583877166600,9.43916650390625,-1.7876914739608765,-0.27315354347229004,-3.434579372406006
1739920583887149600,9.449149658203124,-1.8248794078826904,0.03465744107961655,-3.378310441970825
1739920583897131500,9.459131591796876,-1.9135574102401733,0.269317090511322,-3.275423526763916
1739920583907113500,9.469113525390625,-2.1447715759277344,0.4244133234024048,-3.2049639225006104
1739920583917095400,9.479095458984375,-2.1872951984405518,0.3332913815975189,-3.1700682640075684
1739920583927078400,9.489078369140625,-2.1933107376098633,0.2873958647251129,-3.138882637023926
1739920583937060600,9.499060546875,-2.253203868865967,0.27113887667655945,-3.11464524269104
1739920583947042600,9.50904248046875,-2.354518175125122,0.2662349343299866,-3.1076605319976807
1739920583957024500,9.5190244140625,-2.494813919067383,0.04994605854153633,-3.178487539291382
1739920583967007500,9.529007568359376,-2.619795560836792,-0.30746519565582275,-3.3365070819854736
1739920583976989400,9.538989501953125,-2.6632421016693115,-0.5307267904281616,-3.520914077758789
1739920583986971600,9.5489716796875,-2.630110263824463,-0.6130897998809814,-3.6722538471221924
1739920583996954400,9.558954345703125,-2.628669023513794,-0.6582751274108887,-3.7485477924346924
1739920584006936600,9.5689365234375,-2.6759400367736816,-0.553119957447052,-3.690751552581787
1739920584016918500,9.57891845703125,-2.5885496139526367,-0.6759782433509827,-3.340056896209717
1739920584026900500,9.588900390625,-2.346172332763672,-0.39191877841949463,-2.9321162700653076
1739920584036883700,9.5988837890625,-1.9559465646743774,-0.12350011616945267,-2.5465991497039795
1739920584046865400,9.608865478515625,-1.644972562789917,-0.06543608754873276,-2.260374069213867
1739920584056847600,9.61884765625,-1.4665982723236084,-0.013768631964921951,-2.10337495803833
1739920584066829600,9.62882958984375,-1.431503415107727,0.13950596749782562,-2.062101364135742
1739920584076812500,9.6388125,-1.472921371459961,0.29729053378105164,-2.1012866497039795
1739920584086794500,9.64879443359375,-1.4779397249221802,0.31426623463630676,-2.153867244720459
1739920584096776400,9.6587763671875,-1.4346097707748413,0.2977868318557739,-2.1432459354400635
1739920584106758700,9.668758544921875,-1.3654189109802246,0.2885926365852356,-2.0007545948028564
1739920584116741400,9.678741455078125,-1.243072748184204,0.2674045264720917,-1.8560434579849243
1739920584126723600,9.6887236328125,-1.0901793241500854,0.1610974222421646,-1.6765345335006714
1739920584136705300,9.698705322265624,-0.9481052756309509,0.08991938084363937,-1.4563732147216797
1739920584146688500,9.7086884765625,-0.8268135786056519,0.12947574257850647,-1.1843522787094116
1739920584156670500,9.71867041015625,-0.6936041116714478,0.298593133687973,-0.8527620434761047
1739920584166652400,9.72865234375,-0.5708933472633362,0.5027719140052795,-0.5277669429779053
1739920584176634600,9.738634521484375,-0.5391173362731934,0.587993860244751,-0.2527630925178528
1739920584186617600,9.74861767578125,-0.5865883231163025,0.5489165782928467,-0.008660204708576202
1739920584196599600,9.758599609375,-0.6120837926864624,0.416479229927063,0.27433687448501587
1739920584206581500,9.76858154296875,-0.5898162126541138,0.3875729441642761,0.6205284595489502
1739920584216563500,9.7785634765625,-0.5292471051216125,0.5158877372741699,0.9882467985153198
1739920584226546400,9.78854638671875,-0.4134945869445801,0.7100268006324768,1.3700752258300781
1739920584236528400,9.7985283203125,-0.22083964943885803,0.8667823076248169,1.7920012474060059
1739920584246510600,9.808510498046875,0.03909214958548546,0.9494797587394714,2.2661592960357666
1739920584256492500,9.818492431640625,0.3617519438266754,1.2320914268493652,2.699989080429077
1739920584266475500,9.8284755859375,0.7379937767982483,1.6226410865783691,3.1221683025360107
1739920584276457500,9.83845751953125,1.1560014486312866,1.867491602897644,3.5557315349578857
1739920584286439400,9.848439453125,1.6226767301559448,1.8402296304702759,3.9743406772613525
1739920584296422400,9.85842236328125,1.9351762533187866,1.6376093626022339,4.226324081420898
1739920584306404600,9.868404541015625,2.190352201461792,1.3420354127883911,4.281067848205566
1739920584316386600,9.878386474609375,2.3057196140289307,0.9987570643424988,4.251156806945801
1739920584326368500,9.888368408203124,2.298719644546509,0.7683830261230469,4.142917633056641
1739920584336351500,9.8983515625,2.3144712448120117,0.5243615508079529,4.062790393829346
1739920584346333400,9.90833349609375,2.424591541290283,0.31049221754074097,4.063466548919678
1739920584356315600,9.918315673828126,2.6321074962615967,0.09281741827726364,4.133077621459961
1739920584366297600,9.928297607421875,2.894604444503784,-0.1308540403842926,4.182837009429932
1739920584376280600,9.938280517578125,3.145691394805908,-0.3157554566860199,4.112614631652832
1739920584386262500,9.948262451171875,3.31534481048584,-0.3891851007938385,3.847984552383423
1739920584396244500,9.958244384765624,3.415339469909668,-0.34910666942596436,3.4456117153167725
1739920584406227700,9.968227783203124,3.4843950271606445,-0.21347644925117493,3.0638139247894287
1739920584416209400,9.97820947265625,3.5681800842285156,-0.07065431773662567,2.811488389968872
1739920584426191600,9.988191650390625,3.7240800857543945,-0.023454423993825912,2.6713051795959473
1739920584436173300,9.99817333984375,3.9346249103546143,-0.09638988971710205,2.5989577770233154
1739920584446156500,10.008156494140625,4.1138224601745605,-0.26059454679489136,2.55755615234375
1739920584456138500,10.018138427734375,4.198922634124756,-0.44106578826904297,2.4900965690612793
1739920584466120400,10.028120361328124,4.231814861297607,-0.5645696520805359,2.3477559089660645
1739920584476102700,10.0381025390625,4.236946105957031,-0.5964418053627014,2.162667751312256
1739920584486085400,10.04808544921875,4.209944248199463,-0.537331759929657,2.016556978225708
1739920584496067600,10.058067626953125,4.180572509765625,-0.41841599345207214,1.9281415939331055
1739920584506049300,10.06804931640625,4.174114227294922,-0.291964590549469,1.9272880554199219
1739920584516031500,10.078031494140625,4.172858238220215,-0.21619179844856262,1.968874216079712
1739920584526014500,10.088014404296874,4.145448684692383,-0.21383720636367798,1.9650919437408447
1739920584535996400,10.097996337890624,4.105828762054443,-0.27044352889060974,1.8623319864273071
1739920584545978600,10.107978515625,4.016997337341309,-0.35897889733314514,1.654482364654541
1739920584555961600,10.117961669921876,3.8371429443359375,-0.4394439160823822,1.3911529779434204
1739920584565943600,10.127943603515625,3.6219053268432617,-0.5129629373550415,1.16594660282135
1739920584575925500,10.137925537109375,3.460634708404541,-0.5832605361938477,1.0556949377059937
1739920584585907500,10.147907470703124,3.387600898742676,-0.6290780305862427,1.0739250183105469
1739920584595890400,10.157890380859374,3.3118274211883545,-0.5913674235343933,1.155801773071289
1739920584605872400,10.167872314453126,3.2046916484832764,-0.4811761975288391,1.271278738975525
1739920584615854600,10.1778544921875,3.0441172122955322,-0.39945924282073975,1.390236496925354
1739920584625836500,10.18783642578125,2.8244543075561523,-0.3204447329044342,1.4629212617874146
1739920584635819800,10.19781982421875,2.5760581493377686,-0.28050264716148376,1.4627530574798584
1739920584645801500,10.207801513671875,2.3172078132629395,-0.25717341899871826,1.4102824926376343
1739920584655783700,10.21778369140625,2.0339035987854004,-0.2532300651073456,1.3124688863754272
1739920584665765600,10.227765625,1.722234845161438,-0.26617851853370667,1.1578470468521118
1739920584675748600,10.23774853515625,1.3869376182556152,-0.2752354145050049,0.9905581474304199
1739920584685730800,10.247730712890625,1.038682460784912,-0.20736591517925262,0.8493776321411133
1739920584695712500,10.25771240234375,0.6983758211135864,-0.051204536110162735,0.7553680539131165
1739920584705695700,10.26769580078125,0.32048213481903076,0.16504797339439392,0.6640439629554749
1739920584715677400,10.277677490234375,-0.10649529099464417,0.3812449872493744,0.5473655462265015
1739920584725659600,10.28765966796875,-0.5349441766738892,0.5443231463432312,0.4059836268424988
1739920584735641600,10.2976416015625,-0.9456819295883179,0.6182844042778015,0.24191506206989288
1739920584745624600,10.30762451171875,-1.3496572971343994,0.6239272356033325,0.10962628573179245
1739920584755606500,10.3176064453125,-1.7372546195983887,0.5820306539535522,0.050150442868471146
1739920584765588500,10.32758837890625,-2.079801082611084,0.5604904890060425,0.07013913989067078
1739920584775571700,10.33757177734375,-2.348806381225586,0.5700464844703674,0.12921179831027985
1739920584785553700,10.3475537109375,-2.5471785068511963,0.6298691630363464,0.18433718383312225
1739920584795535600,10.35753564453125,-2.734764337539673,0.7872084379196167,0.20402219891548157
1739920584805517600,10.367517578125,-2.93888521194458,1.015601634979248,0.13376200199127197
1739920584815500500,10.37750048828125,-3.137934446334839,1.215415120124817,-0.04595956578850746
1739920584825482500,10.387482421875,-3.3633127212524414,1.3515949249267578,-0.32806703448295593
1739920584835464400,10.39746435546875,-3.621741533279419,1.4095604419708252,-0.6580199003219604
1739920584845446700,10.40744677734375,-3.9080164432525635,1.4094486236572266,-1.036233901977539
1739920584855429600,10.4174296875,-4.209578990936279,1.3895611763000488,-1.4396482706069946
1739920584865411600,10.42741162109375,-4.48813009262085,1.3499891757965088,-1.8282047510147095
1739920584875393500,10.4373935546875,-4.722746849060059,1.25931715965271,-2.1335296630859375
1739920584885375500,10.44737548828125,-4.872366428375244,1.1427251100540161,-2.335886240005493
1739920584895358500,10.4573583984375,-4.949190139770508,1.0135785341262817,-2.427849769592285
1739920584905340700,10.467340576171875,-5.003739833831787,0.8944580554962158,-2.448546886444092
1739920584915322600,10.477322509765624,-5.049912452697754,0.8330029249191284,-2.4249186515808105
1739920584925305600,10.4873056640625,-5.0575666427612305,0.8332743048667908,-2.37519907951355
1739920584935287600,10.49728759765625,-5.015414237976074,0.8880310654640198,-2.317587375640869
1739920584945269500,10.50726953125,-4.9690375328063965,0.9671164155006409,-2.2678442001342773
1739920584955251700,10.517251708984375,-4.947783470153809,1.011257290840149,-2.2159295082092285
1739920584965234400,10.527234375,-4.9501166343688965,1.053718090057373,-2.1591479778289795
1739920584975216600,10.537216552734375,-4.976949214935303,1.116775631904602,-2.0598981380462646
1739920584985198600,10.547198486328124,-4.984035968780518,1.1514617204666138,-1.8878414630889893
1739920584995180500,10.5571806640625,-4.966921329498291,1.1694265604019165,-1.6824872493743896
1739920585005163800,10.567163818359376,-4.912990093231201,1.2082289457321167,-1.4982579946517944
1739920585015145500,10.5771455078125,-4.8267388343811035,1.2511827945709229,-1.376584529876709
1739920585025127700,10.587127685546875,-4.73417854309082,1.304886817932129,-1.2950047254562378
1739920585035110400,10.5971103515625,-4.655808448791504,1.3313708305358887,-1.2199413776397705
1739920585045092600,10.607092529296875,-4.574398040771484,1.2984271049499512,-1.1336475610733032
1739920585055074800,10.61707470703125,-4.480504035949707,1.195495367050171,-1.0478037595748901
1739920585065056500,10.627056396484376,-4.315357208251953,1.0094139575958252,-0.9680940508842468
1739920585075039700,10.637039794921876,-4.091547966003418,0.7533904314041138,-0.9230091571807861
1739920585085021400,10.647021484375,-3.860708475112915,0.5186509490013123,-0.9287546873092651
1739920585095003600,10.657003662109375,-3.652226448059082,0.330299973487854,-0.9932633638381958
1739920585104985600,10.666985595703125,-3.4529941082000732,0.15524452924728394,-1.0824543237686157
1739920585114968600,10.676968505859374,-3.2379696369171143,0.050918128341436386,-1.1541647911071777
1739920585124950500,10.686950439453126,-2.9983553886413574,0.015161935240030289,-1.1812044382095337
1739920585134932500,10.696932373046875,-2.7366223335266113,0.007961280643939972,-1.1857155561447144
1739920585144915500,10.70691552734375,-2.4622702598571777,0.006042414344847202,-1.1917650699615479
1739920585154897700,10.716897705078125,-2.190546989440918,-0.0062829614616930485,-1.1790977716445923
1739920585164879600,10.726879638671875,-1.9613069295883179,-0.06110081449151039,-1.1220667362213135
1739920585174861600,10.736861572265624,-1.7935216426849365,-0.1597786545753479,-1.0155762434005737
1739920585184844500,10.746844482421874,-1.6834465265274048,-0.2818565368652344,-0.8699746131896973
1739920585194826500,10.756826416015626,-1.5505287647247314,-0.3219464123249054,-0.7226085662841797
1739920585204808400,10.766808349609375,-1.312962293624878,-0.3311079740524292,-0.6427081227302551
1739920585214790700,10.776790771484375,-1.0817359685897827,-0.32954123616218567,-0.6097781658172607
1739920585224773600,10.786773681640625,-0.9416435956954956,-0.3637951612472534,-0.428971529006958
1739920585234755600,10.796755615234375,-0.9328368306159973,-0.3847355842590332,-0.017500896006822586
1739920585244737500,10.806737548828124,-0.9818282723426819,-0.3270760476589203,0.5361623167991638
1739920585254720800,10.816720703125,-0.9490426778793335,-0.19826026260852814,1.1192350387573242
1739920585264702500,10.826702392578126,-0.7324678897857666,-0.07205832749605179,1.657389521598816
1739920585274684700,10.8366845703125,-0.3098177909851074,0.06643776595592499,2.1113884449005127
1739920585284666600,10.84666650390625,0.32406583428382874,0.28361356258392334,2.40968656539917
1739920585294649600,10.856649658203125,1.113856315612793,0.5545544624328613,2.504465103149414
1739920585304631600,10.866631591796875,1.9212383031845093,0.8104283809661865,2.4305295944213867
1739920585314613500,10.876613525390624,2.620589256286621,1.0003435611724854,2.258774995803833
1739920585324595700,10.886595703125,3.1352081298828125,1.045716404914856,2.0824718475341797
1739920585334578400,10.896578369140625,3.4992973804473877,0.9353861808776855,1.9005037546157837
1739920585344560600,10.906560546875,3.750758171081543,0.7610033750534058,1.7358059883117676
1739920585354542600,10.91654248046875,3.913344144821167,0.5874555110931396,1.6472811698913574
1739920585364525600,10.926525634765625,4.076021194458008,0.4915691316127777,1.606148362159729
1739920585374507800,10.9365078125,4.272644519805908,0.45016470551490784,1.5885629653930664
1739920585384489500,10.946489501953126,4.485953330993652,0.4278185963630676,1.5881788730621338
1739920585394471700,10.9564716796875,4.643989562988281,0.43488579988479614,1.6120941638946533
1739920585404454400,10.966454345703125,4.707120418548584,0.43786171078681946,1.6460529565811157
1739920585414436600,10.9764365234375,4.708287715911865,0.4238404333591461,1.7181087732315063
1739920585424418600,10.98641845703125,4.6883015632629395,0.3615870475769043,1.8306928873062134
1739920585434400500,10.996400390625,4.641873836517334,0.29240211844444275,1.94046950340271
1739920585444383700,11.0063837890625,4.58801794052124,0.25681614875793457,1.9787931442260742
1739920585454365400,11.016365478515626,4.5344696044921875,0.2634282410144806,1.9125001430511475
1739920585464347600,11.02634765625,4.475349426269531,0.3181458115577698,1.728682518005371
1739920585474330600,11.03633056640625,4.406619548797607,0.380782812833786,1.471440315246582
1739920585484312600,11.0463125,4.328770637512207,0.43834608793258667,1.192962646484375
1739920585494294500,11.05629443359375,4.267202377319336,0.49149373173713684,0.9588121771812439
1739920585504276500,11.0662763671875,4.237807750701904,0.5265392661094666,0.7803547382354736
1739920585514259500,11.076259521484374,4.234839916229248,0.5499864816665649,0.6534860134124756
1739920585524241700,11.08624169921875,4.230611324310303,0.5487768650054932,0.550533652305603
1739920585534223600,11.0962236328125,4.222118377685547,0.5021635293960571,0.45461535453796387
1739920585544206600,11.10620654296875,4.198103904724121,0.44158926606178284,0.34658554196357727
1739920585554188500,11.1161884765625,4.172168254852295,0.37307995557785034,0.22466601431369781
1739920585564170500,11.12617041015625,4.138023853302002,0.29029136896133423,0.09339617192745209
1739920585574152400,11.13615234375,4.0907883644104,0.1536182314157486,-0.03721430152654648
1739920585584135400,11.146135498046876,4.040225028991699,-0.060164835304021835,-0.15611927211284637
1739920585594117600,11.15611767578125,3.9781224727630615,-0.3115989565849304,-0.23860003054141998
1739920585604099600,11.166099609375,3.917050838470459,-0.5368642210960388,-0.25685954093933105
1739920585614081000,11.1760810546875,3.8786208629608154,-0.7161663174629211,-0.20176805555820465
1739920585624064000,11.18606396484375,3.875539541244507,-0.8507087826728821,-0.1066150963306427
1739920585634046000,11.1960458984375,3.900550127029419,-0.9682473540306091,0.029459113255143166
1739920585644028000,11.20602783203125,3.914680004119873,-1.0442169904708862,0.1698259562253952
1739920585654011100,11.21601123046875,3.889786958694458,-1.0627901554107666,0.3178785443305969
1739920585663992800,11.225992919921875,3.8158278465270996,-1.0341975688934326,0.49846628308296204
1739920585673975000,11.23597509765625,3.689257860183716,-0.9744661450386047,0.7187690734863281
1739920585683956700,11.245956787109375,3.5390639305114746,-0.8987753987312317,0.9666475057601929
1739920585693940000,11.25593994140625,3.367443799972534,-0.8335689902305603,1.2124264240264893
1739920585703922000,11.265921875,3.1673126220703125,-0.8327561020851135,1.4440598487854004
1739920585713903900,11.27590380859375,2.9476559162139893,-0.8740020990371704,1.6420187950134277
1739920585723886000,11.285885986328125,2.7061500549316406,-0.9341849684715271,1.7916665077209473
1739920585733869000,11.295869140625,2.4071803092956543,-0.9652653932571411,1.8761283159255981
1739920585743851000,11.30585107421875,2.034142017364502,-0.947641134262085,1.8679451942443848
1739920585753833000,11.3158330078125,1.5739760398864746,-0.8923477530479431,1.7531253099441528
1739920585763816000,11.32581591796875,1.0579575300216675,-0.7836006879806519,1.5374778509140015
1739920585773798000,11.3357978515625,0.5017910003662109,-0.6021411418914795,1.2526400089263916
1739920585783779800,11.34577978515625,-0.06592374294996262,-0.4240317642688751,0.984032392501831
1739920585793762000,11.355761962890625,-0.6070263981819153,-0.3211008608341217,0.7940294146537781
1739920585803745000,11.3657451171875,-1.1093411445617676,-0.2752889096736908,0.6673086285591125
1739920585813727000,11.37572705078125,-1.5713200569152832,-0.22772565484046936,0.5594785809516907
1739920585823709000,11.385708984375,-1.9822744131088257,-0.1767626702785492,0.4636467695236206
1739920585833691000,11.39569091796875,-2.329486608505249,-0.13295473158359528,0.3815639019012451
1739920585843673900,11.405673828125,-2.624217987060547,-0.07268187403678894,0.30885472893714905
1739920585853656000,11.415656005859375,-2.9089536666870117,-0.007768117822706699,0.22139465808868408
1739920585863638000,11.425637939453125,-3.1971020698547363,0.07506412267684937,0.135748028755188
1739920585873621000,11.43562109375,-3.485154390335083,0.14971120655536652,0.06734394282102585
1739920585883603000,11.44560302734375,-3.7717862129211426,0.190186008810997,0.025746945291757584
1739920585893585000,11.4555849609375,-4.033893585205078,0.21363167464733124,-0.004804305732250214
1739920585903567000,11.465567138671876,-4.286590576171875,0.2337130457162857,-0.027962028980255127
1739920585913549800,11.4755498046875,-4.514831066131592,0.27825307846069336,-0.0705539658665657
1739920585923532000,11.485531982421875,-4.695580005645752,0.3577600419521332,-0.14499829709529877
1739920585933514000,11.495513916015625,-4.81027364730835,0.45062926411628723,-0.26904061436653137
1739920585943497000,11.5054970703125,-4.89037561416626,0.5391713976860046,-0.4686467945575714
1739920585953479200,11.515479248046875,-4.973130226135254,0.5895919799804688,-0.721636950969696
1739920585963460900,11.5254609375,-5.074000358581543,0.5954521894454956,-1.0184638500213623
1739920585973443000,11.535443115234376,-5.192427158355713,0.5580843091011047,-1.3220574855804443
1739920585983425800,11.54542578125,-5.311676979064941,0.4698444604873657,-1.591944932937622
1739920585993408000,11.555407958984375,-5.4229631423950195,0.35522446036338806,-1.7850528955459595
1739920586003390000,11.565389892578125,-5.518470287322998,0.2558932900428772,-1.8881691694259644
1739920586013372000,11.575371826171875,-5.588278293609619,0.16592586040496826,-1.897916555404663
1739920586023355000,11.58535498046875,-5.6417059898376465,0.09845329821109772,-1.8146183490753174
1739920586033336800,11.5953369140625,-5.658928394317627,0.07040036469697952,-1.6611592769622803
1739920586043319000,11.605319091796876,-5.625231742858887,0.07709060609340668,-1.4554558992385864
1739920586053302000,11.615302001953125,-5.51934289932251,0.1321520060300827,-1.2075685262680054
1739920586063284000,11.625283935546875,-5.361091136932373,0.19396361708641052,-0.9600217938423157
1739920586073266000,11.635265869140625,-5.152906894683838,0.20941261947155,-0.745782196521759
1739920586083247900,11.645247802734374,-4.913683891296387,0.250132292509079,-0.6145159006118774
1739920586093230800,11.65523095703125,-4.687864303588867,0.3407559394836426,-0.5686234831809998
1739920586103213000,11.665213134765626,-4.506054878234863,0.3729594945907593,-0.5789264440536499
1739920586113195000,11.675195068359375,-4.3445658683776855,0.26761576533317566,-0.6660203337669373
1739920586123178000,11.685177978515625,-4.2018890380859375,0.0868615135550499,-0.8499670624732971
1739920586133160000,11.695159912109375,-4.106049060821533,-0.14711636304855347,-1.1433310508728027
1739920586143142000,11.705141845703125,-4.006464958190918,-0.4159311056137085,-1.5043951272964478
1739920586153123800,11.715123779296874,-3.8926000595092773,-0.7745776772499084,-1.8461050987243652
1739920586163106800,11.72510693359375,-3.77832293510437,-1.0806666612625122,-2.08262038230896
1739920586173089000,11.735089111328126,-3.671765089035034,-1.220266580581665,-2.1613149642944336
1739920586183071000,11.745071044921875,-3.537977933883667,-1.2313320636749268,-2.091921091079712
1739920586193053000,11.755052978515625,-3.3523128032684326,-1.1521421670913696,-1.9494564533233643
1739920586203036200,11.7650361328125,-3.169290065765381,-1.0510601997375488,-1.8330520391464233
1739920586213017900,11.775017822265625,-2.9786441326141357,-0.9069848656654358,-1.748878002166748
1739920586223000000,11.785,-2.80619740486145,-0.7089495658874512,-1.6713846921920776
1739920586232982800,11.794982666015626,-2.674989700317383,-0.5046738982200623,-1.5526028871536255
1739920586242965000,11.804965087890626,-2.564128875732422,-0.32423165440559387,-1.334238886833191
1739920586252947000,11.814947021484375,-2.4172980785369873,-0.21992120146751404,-1.0791882276535034
1739920586262929000,11.824928955078125,-2.23675537109375,-0.2206691950559616,-0.85251784324646
1739920586272912100,11.834912109375,-2.0486578941345215,-0.2834013104438782,-0.6579225659370422
1739920586282893800,11.844893798828124,-1.7807505130767822,-0.27345940470695496,-0.5692523121833801
1739920586292876000,11.8548759765625,-1.4928112030029297,-0.3296920359134674,-0.5664570331573486
1739920586302859000,11.86485888671875,-1.1954426765441895,-0.4588489532470703,-0.5116078853607178
1739920586312841000,11.874841064453125,-0.90171217918396,-0.563437819480896,-0.3359002470970154
1739920586322824000,11.884823974609375,-0.6118239760398865,-0.6271873116493225,-0.1045261025428772
1739920586332806000,11.894805908203125,-0.17989599704742432,-0.7369223833084106,0.20278137922286987
1739920586342788000,11.9047880859375,0.31956690549850464,-0.6805486083030701,0.534317672252655
1739920586352771000,11.91477099609375,0.8499762415885925,-0.5078833699226379,0.8974783420562744
1739920586362753000,11.9247529296875,1.4240425825119019,-0.32610607147216797,1.2644681930541992
1739920586372735000,11.93473486328125,1.984039306640625,-0.1481136828660965,1.5849993228912354
1739920586382717000,11.944717041015625,2.506998300552368,0.06047878786921501,1.8445589542388916
1739920586392700000,11.954699951171875,2.9747157096862793,0.3035028874874115,2.031386375427246
1739920586402682000,11.96468212890625,3.3296937942504883,0.5742596387863159,2.171063184738159
1739920586412664000,11.9746640625,3.6082139015197754,0.8192718029022217,2.2661218643188477
1739920586422647000,11.98464697265625,3.819854974746704,1.004215955734253,2.3352062702178955
1739920586432629000,11.99462890625,3.972001791000366,1.1891099214553833,2.3661673069000244
1739920586442611000,12.00461083984375,4.058072566986084,1.386826515197754,2.3576338291168213
1739920586452593000,12.014593017578125,4.104946136474609,1.5608702898025513,2.336205244064331
1739920586462575900,12.024575927734375,4.153600692749023,1.694717288017273,2.2898707389831543
1739920586472558000,12.03455810546875,4.229081630706787,1.7553260326385498,2.210935354232788
1739920586482539800,12.044539794921874,4.31400203704834,1.6992961168289185,2.102142333984375
1739920586492522000,12.05452197265625,4.408746719360352,1.518452525138855,1.9587526321411133
1739920586502505000,12.0645048828125,4.485411167144775,1.2285038232803345,1.7190121412277222
1739920586512487000,12.07448681640625,4.550021171569824,0.9318214654922485,1.3567721843719482
1739920586522469000,12.08446923828125,4.580961227416992,0.6811737418174744,0.8397132158279419
1739920586532451800,12.094451904296875,4.557699680328369,0.45841312408447266,0.22815634310245514
1739920586542434000,12.10443408203125,4.480402946472168,0.25465407967567444,-0.3706583082675934
1739920586552415700,12.114415771484374,4.391136169433594,0.06448736041784286,-0.8798781633377075
1739920586562398000,12.12439794921875,4.339810371398926,-0.1071869432926178,-1.2470637559890747
1739920586572381000,12.134380859375,4.344775199890137,-0.2621690630912781,-1.422263264656067
1739920586582363000,12.14436279296875,4.381767272949219,-0.3892621695995331,-1.4241677522659302
1739920586592345000,12.154344970703125,4.457003593444824,-0.4622415602207184,-1.3152446746826172
1739920586602328000,12.164328125,4.559601306915283,-0.461376816034317,-1.132813572883606
1739920586612310000,12.17431005859375,4.669388771057129,-0.37349647283554077,-0.9196722507476807
1739920586622292000,12.1842919921875,4.747166633605957,-0.19599494338035583,-0.7381970882415771
1739920586632274000,12.19427392578125,4.787086486816406,0.0026161405257880688,-0.5928859710693359
1739920586642257000,12.2042568359375,4.7899370193481445,0.14536024630069733,-0.4930751919746399
1739920586652238800,12.21423876953125,4.778475761413574,0.21290573477745056,-0.4430948495864868
1739920586662221000,12.224220947265625,4.736944198608398,0.24126973748207092,-0.45207449793815613
1739920586672203000,12.234203125,4.672317028045654,0.22949643433094025,-0.4974569082260132
1739920586682185000,12.24418505859375,4.569015979766846,0.18837393820285797,-0.5462585091590881
1739920586692167200,12.254167236328126,4.435006618499756,0.09282079339027405,-0.5623126029968262
1739920586702150000,12.26414990234375,4.28591775894165,-0.023547692224383354,-0.5453805923461914
1739920586712132000,12.274132080078125,4.134573936462402,-0.1494550257921219,-0.5026099681854248
1739920586722113800,12.28411376953125,3.976634979248047,-0.28366926312446594,-0.4252100884914398
1739920586732097000,12.294096923828125,3.8217005729675293,-0.41666141152381897,-0.3072427213191986
1739920586742079000,12.304078857421874,3.6753180027008057,-0.5471508502960205,-0.16177122294902802
1739920586752061000,12.31406103515625,3.528961181640625,-0.6441338658332825,-0.004042581655085087
1739920586762043000,12.32404296875,3.3723785877227783,-0.6860599517822266,0.15746663510799408
1739920586772026000,12.334026123046876,3.2023167610168457,-0.6885660290718079,0.3036097288131714
1739920586782007800,12.3440078125,3.0158743858337402,-0.678961455821991,0.4192013144493103
1739920586791990000,12.353989990234375,2.826016902923584,-0.6958131790161133,0.5048605799674988
1739920586801973000,12.363972900390625,2.6182971000671387,-0.7536641955375671,0.5626503825187683
1739920586811955000,12.373954833984374,2.385040044784546,-0.8308729529380798,0.607423722743988
1739920586821937000,12.38393701171875,2.107851982116699,-0.8729689717292786,0.6190688610076904
1739920586831918800,12.3939189453125,1.7706254720687866,-0.8962908387184143,0.5689457654953003
1739920586841902000,12.403902099609375,1.3604968786239624,-0.929037868976593,0.47950780391693115
1739920586851883800,12.4138837890625,0.8936638832092285,-0.9750993847846985,0.37929201126098633
1739920586861866000,12.423865966796875,0.38991281390190125,-1.011956810951233,0.27515172958374023
1739920586871849000,12.433848876953125,-0.12151424586772919,-1.089269757270813,0.1894083470106125
1739920586881831000,12.443830810546874,-0.620462954044342,-1.2081891298294067,0.11620539426803589
1739920586891813000,12.453813232421876,-1.0984681844711304,-1.389424204826355,0.055169206112623215
1739920586901794800,12.463794921875,-1.629212737083435,-1.5713528394699097,-0.024164456874132156
1739920586911778000,12.473778076171875,-2.212191343307495,-1.5807689428329468,-0.08760733902454376
1739920586921759700,12.483759765625,-2.8126354217529297,-1.409643292427063,-0.11591220647096634
1739920586931742000,12.493741943359375,-3.4202167987823486,-1.1417697668075562,-0.11624030768871307
1739920586941724200,12.50372412109375,-3.998767852783203,-0.8227800130844116,-0.07702025771141052
1739920586951707000,12.513706787109374,-4.466611862182617,-0.4336559772491455,0.030015382915735245
1739920586961689000,12.523689208984376,-4.761778354644775,-0.035258952528238297,0.21748942136764526
1739920586971670800,12.5336708984375,-4.929021835327148,0.3243231773376465,0.43862074613571167
1739920586981654000,12.543654052734375,-4.999105453491211,0.6358150243759155,0.6610164642333984
1739920586991636000,12.553635986328125,-5.029699325561523,0.8151876926422119,0.8621474504470825
1739920587001618000,12.563617919921874,-5.064414978027344,0.9284522533416748,0.9581921696662903
1739920587011600100,12.57360009765625,-5.12949800491333,1.0177284479141235,0.8959841728210449
1739920587021582800,12.583582763671876,-5.237895965576172,1.0929195880889893,0.69659823179245
1739920587031565000,12.59356494140625,-5.378582000732422,1.1150730848312378,0.41347095370292664
