time,seconds_elapsed,z,y,x
1740587844549921300,0.04992138671875,3.2600206176012754,0.6619862376391887,-2.448122343175113
1740587844559903500,0.059903564453125,3.272005069905519,1.118403140938282,-1.1267474831745028
1740587844569886500,0.069886474609375,3.3381402145922183,1.2635597998917103,-0.21356325570344922
1740587844579868400,0.079868408203125,3.3476328500807284,1.2515972671583293,-0.21106705497354267
1740587844589850400,0.089850341796875,3.512650978323817,1.3598723484382031,-0.5639303525567054
1740587844599832300,0.099832275390625,4.089064964878559,1.3840318071827291,-1.1337526857614517
1740587844609814500,0.109814453125,4.697375726431608,1.2753908151999116,-1.5437991752907634
1740587844619796200,0.119796142578125,4.883720135819912,1.282448917017877,-1.8091493168547748
1740587844629778400,0.1297783203125,4.424068488383293,1.1056067877292632,-1.9857523766905067
1740587844639761400,0.139761474609375,3.181409437701106,0.687812460552156,-2.135037806011736
1740587844649743400,0.149743408203125,1.6091560290813445,0.1834863896086812,-1.776464898610115
1740587844659725300,0.159725341796875,0.41498073106110095,-0.10655454109758138,-1.0076189994469285
1740587844669707300,0.169707275390625,0.011537293058633803,0.17663462401777505,-0.2931207765430212
1740587844679689500,0.179689453125,0.16392331874370575,0.8315966621086001,0.4783770984336734
1740587844689671200,0.189671142578125,0.32626433673202987,1.3426003111198543,1.1335463495343923
1740587844699653400,0.1996533203125,0.38062078081965445,1.6333897221058606,1.5599541912779211
1740587844709635300,0.20963525390625,0.4459557150393724,1.5165297678321599,1.5621496554955838
1740587844719618300,0.219618408203125,0.43802842917144297,1.223083704857528,1.247403614860773
1740587844729600500,0.2296005859375,-0.10358896929025649,1.2892501214653254,0.8510343530282378
1740587844739582200,0.239582275390625,-0.5477274057745933,1.4905100681737065,0.7208917233332991
1740587844749564400,0.249564453125,-1.1014420692652462,1.893473613704741,1.02372053168118
1740587844759546400,0.25954638671875,-1.2859189312160015,2.229704048655927,1.781438887630403
1740587844769528300,0.2695283203125,-1.1079659180760384,2.2351208130076525,2.4301298826277256
1740587844779510300,0.27951025390625,-0.3643851008117199,2.2065143117263912,2.5987971810281274
1740587844789492500,0.289492431640625,0.28785832597017286,1.5907237158119678,2.1309978829711675
1740587844799475500,0.299475341796875,-0.08235153547227382,0.2546794022068381,1.297486619412899
1740587844809457400,0.30945751953125,-1.4534732999384403,-0.7167164834752678,0.8458873455286026
1740587844819439400,0.319439453125,-2.69976456964314,-0.8802829516053199,0.8989367986708879
1740587844829421300,0.32942138671875,-3.1996850991040464,-0.5619204740390181,1.25675304248631
1740587844839403300,0.3394033203125,-3.272773716190457,-0.35318712271004915,1.393358730715513
1740587844849385200,0.34938525390625,-2.8366707021236417,-0.11833674882799386,1.4197726903885601
1740587844859367400,0.359367431640625,-1.6997721195518969,0.005211597168445587,1.12860830861032
1740587844869350400,0.369350341796875,-0.35672201883792876,-0.34125644641965625,0.5702712460160255
1740587844879332400,0.379332275390625,0.699364074397087,-0.5964715629383921,0.07824176206588744
1740587844889314300,0.389314208984375,1.2072674193054438,-0.6676712975382805,-0.259191034412384
1740587844899296300,0.399296142578125,1.3980313987016677,-0.38654491017162795,-0.3089975601106882
1740587844909278500,0.409278564453125,1.5858675079524516,0.0947811011955142,-0.2783627678722143
1740587844919260200,0.41926025390625,1.852141194102168,0.6814777045726775,-0.10447276638746261
1740587844929242400,0.429242431640625,2.2600649923890828,1.256303545153141,-0.08105506592094898
1740587844939224300,0.439224365234375,2.689659355214238,1.5710229900419712,-0.9396569315940141
1740587844949207300,0.449207275390625,2.9954660103291273,1.5901418242707848,-2.3360668665736912
1740587844959189500,0.459189453125,3.293467544651031,1.352746734341979,-3.748212715345621
1740587844969171200,0.469171142578125,3.5475668088823555,1.7117665087282656,-4.406043002349138
1740587844979153400,0.4791533203125,3.91145915774107,3.2036969650939104,-2.785850615468621
1740587844989135400,0.48913525390625,4.045063326066733,4.61125548607558,-1.6451649155735968
1740587844999117300,0.499117431640625,4.092223136648536,5.268180056411028,-1.6646867776453493
1740587845009099300,0.509099365234375,4.254269555604457,5.684549026960134,-2.406366729724407
1740587845019082200,0.519082275390625,4.5562481768637895,5.87074087613523,-3.6356729623585937
1740587845029064400,0.529064453125,4.931860774132609,5.824459017431735,-4.484706789219379
1740587845039046400,0.53904638671875,4.867203885304928,5.806553942906856,-4.661878881114721
1740587845049028400,0.5490283203125,4.469550136619806,5.9389867293655865,-4.384381205639243
1740587845059010300,0.55901025390625,3.9439892622068524,6.1894999518036835,-3.9321868884712456
1740587845068992300,0.5689921875,3.364181833821535,6.419248618632555,-3.5817286062031983
1740587845078974200,0.57897412109375,2.801314726582169,6.571309650146961,-3.3480952068954704
1740587845088956400,0.588956298828125,1.9738035802215337,6.538199992227554,-2.9590432823389765
1740587845098938400,0.5989384765625,1.4772943205088376,6.153989077961445,-2.2869027304321525
1740587845108921300,0.60892138671875,1.1473878278821705,5.763277695760131,-1.4793880779176949
1740587845118903300,0.6189033203125,0.7773743657946586,5.303738861048221,-0.2656505858153105
1740587845128885200,0.62888525390625,0.26442601245641706,4.8510555913195015,0.7289099023550748
1740587845138867500,0.638867431640625,-0.04281739746332169,4.639462174384295,1.8019658350914716
1740587845148849200,0.64884912109375,-0.007547346639633178,4.808111644867062,2.8497201533108947
1740587845158831400,0.658831298828125,-0.2176952409416437,4.717648114609718,3.58627560198307
1740587845168813600,0.6688134765625,-0.7098270162224769,4.139410127498209,4.10653866224885
1740587845178796300,0.67879638671875,-0.9901777430415153,3.564535187079012,4.745635607209802
1740587845188778500,0.688778564453125,-1.067909802019596,3.1073990295946596,5.415236411505937
1740587845198760200,0.69876025390625,-1.0823813218992202,2.703065072493255,6.198801448634266
1740587845208742400,0.708742431640625,-1.005223336482048,2.381274227913469,7.129629761606455
1740587845218724400,0.718724365234375,-1.1415420975286512,1.9045242922902106,8.041240163889526
1740587845228706300,0.728706298828125,-1.2961036406219004,1.1632476603150368,8.840285094222425
1740587845238688300,0.738688232421875,-1.5110298552416264,0.34931495745182034,9.559916296100615
1740587845248671200,0.748671142578125,-1.4244611404657364,-0.3048356181256473,10.729502511787414
1740587845258653400,0.7586533203125,-1.4211118300378323,-0.5451162003628909,12.339945658069848
1740587845268635400,0.768635498046875,-1.5775215582810342,-0.541135167902708,13.39012691117525
1740587845278617300,0.778617431640625,-1.8849544994235037,-0.6766007461860776,13.152536298674343
1740587845288599600,0.788599609375,-1.9223650694072245,-1.2805761088833212,11.768873617064951
1740587845298581200,0.798581298828125,-1.4864939644001423,-2.033268161103129,10.37170964884758
1740587845308563500,0.8085634765625,-1.2446679062865673,-2.5543892995029687,9.587709727433323
1740587845318546200,0.818546142578125,-1.3664017502069472,-3.049333501856029,9.002932986202836
1740587845328528400,0.8285283203125,-1.7073744112491607,-3.8621097281605,8.533945355144143
1740587845338510300,0.83851025390625,-1.9583492598496377,-4.984413383668661,7.858392948967218
1740587845348492300,0.8484921875,-2.0483762983858584,-6.232207459151745,7.3085489894300695
1740587845358474500,0.858474609375,-1.756766510927677,-7.3366802744150155,6.803235076493024
1740587845368456400,0.86845654296875,-1.297270346313715,-8.011835790228844,6.19830986572504
1740587845378438400,0.8784384765625,-1.0111131251730023,-8.077740633291006,5.642782599854469
1740587845388421400,0.88842138671875,-0.9633411740422249,-7.659315899255871,5.261642179074883
1740587845398403300,0.8984033203125,-1.1440016925752163,-7.190126608145237,4.958319741991162
1740587845408385300,0.90838525390625,-1.2278314839065074,-7.12665512970984,4.600052831798791
1740587845418367500,0.918367431640625,-1.6590695222854612,-7.300165191966295,4.353319127899408
1740587845428349400,0.928349365234375,-1.999635356092453,-7.500228914627432,4.6747097211152315
1740587845438331400,0.938331298828125,-2.211736138027906,-7.838801528790593,5.2318637114048
1740587845448313600,0.948313720703125,-2.2698025425493715,-7.986098706904054,5.516508336025476
1740587845458296300,0.95829638671875,-2.366125904750824,-8.071842222902179,5.485673052778839
1740587845468278500,0.968278564453125,-2.152409504312277,-8.136299789765477,4.792735212036967
1740587845478260200,0.97826025390625,-1.5902397316873074,-8.263779337731004,4.181974134722352
1740587845488242400,0.988242431640625,-1.1842542079865932,-8.369414133635162,3.744721950620413
1740587845498224400,0.998224365234375,-0.9167209502298385,-8.21085614131689,2.706507614162564
1740587845508206300,1.008206298828125,-0.6810241155862807,-7.76120332532525,1.4213742803663014
1740587845518189300,1.018189208984375,-0.5580640908718109,-7.2751114147305485,0.5984791033685207
1740587845528171300,1.028171142578125,-0.7576807273525744,-6.959934289202094,0.4947948570102453
1740587845538153500,1.038153564453125,-1.1356674333415926,-6.66478522170186,0.9924258142292499
1740587845548135200,1.04813525390625,-1.159928598894924,-6.0368251723051065,2.003625887033343
1740587845558117400,1.058117431640625,-1.3228865797378122,-5.4086827520787715,4.226369156765937
1740587845568099600,1.068099609375,-1.4213257650494575,-5.069308173882961,5.67068007608354
1740587845578081300,1.078081298828125,-1.1965898118160665,-4.842343292553722,4.786920972800255
1740587845588064500,1.088064453125,-1.3164718903899193,-4.8730260155871505,2.5131618015795945
1740587845598046200,1.098046142578125,-1.1823076039634643,-5.023251940628886,0.667657269012928
1740587845608028400,1.1080283203125,-0.4756695930406451,-4.812174364261329,0.04008534215092659
1740587845618010400,1.11801025390625,0.5835596935909241,-3.917890944354236,0.6314549057751894
1740587845627992300,1.127992431640625,1.1688450419306755,-2.7806320040374994,1.325713181465864
1740587845637974500,1.137974609375,1.298325992846489,-1.9553100382842121,1.8926140742659567
1740587845647956500,1.14795654296875,1.0155004003465176,-1.4344754617407918,2.5166607496112583
1740587845657939500,1.157939453125,0.5301449142675847,-1.0084158489130437,3.0323464189589022
1740587845667921400,1.16792138671875,0.10705861816219985,-0.5165177362576127,3.261981688541174
1740587845677903400,1.1779033203125,-0.27986097054071724,0.13286467506997288,3.3404356320530173
1740587845687885300,1.18788525390625,-0.4591512966990471,0.8781084571104496,3.4160797788411377
1740587845697867500,1.197867431640625,-0.403957013547793,1.4867400481157005,3.1968764714241025
1740587845707849500,1.207849365234375,-0.22344985894560812,2.116013372068107,2.8883617263942956
1740587845717832400,1.21783251953125,-0.14738850965872405,2.865531470426917,2.749464127835631
1740587845727814400,1.227814453125,-0.2272903138913214,3.6819513139307496,2.7768635914146897
1740587845737796400,1.23779638671875,-0.40261984665989875,4.389909321410954,2.8771137716710564
1740587845747778300,1.2477783203125,-0.5536019238311797,4.95213140874505,3.134827719268203
1740587845757760300,1.25776025390625,-0.7827731560982764,5.4340048248618835,3.2866467587202783
1740587845767742500,1.267742431640625,-1.1218715477012098,5.903502743530273,3.3640736972719427
1740587845777724400,1.277724365234375,-1.4417219257377087,6.355434025847911,3.7009511979550123
1740587845787707400,1.287707275390625,-1.6080711564540862,6.8324114866167305,4.378011670607328
1740587845797689300,1.297689453125,-1.4073650442361831,7.483196531283855,4.885966453441977
1740587845807671300,1.30767138671875,-0.8412671383820474,8.346345977258682,5.085914440768957
1740587845817653500,1.317653564453125,-0.23831527351364493,9.015977761214971,4.707993566557764
1740587845827635200,1.32763525390625,0.05891264608725905,9.374891737139224,3.8851480739206075
1740587845837617400,1.337617431640625,-0.0448832439519465,9.348798679983615,2.741271469029784
1740587845847600400,1.347600341796875,-0.46513197854384775,8.943442101836204,1.3512170405566692
1740587845857582300,1.357582275390625,-1.0284604196846485,8.38467658469677,0.2820207058578729
1740587845867564500,1.367564453125,-1.5431095855914054,7.82494894452691,-0.02656184371113777
1740587845877546200,1.377546142578125,-1.945269121263176,7.383627903550863,0.006783376529812812
1740587845887528400,1.387528564453125,-2.0098368705026806,7.097069554263353,0.045049102038145064
1740587845897510400,1.397510498046875,-1.9103553365312516,6.77446607812643,-0.017636778977513312
1740587845907492400,1.407492431640625,-1.7250013994850217,6.5159717938065524,-0.09599076924622059
1740587845917475600,1.4174755859375,-1.4635564486660062,6.440596527087688,-0.11263795266449451
1740587845927457300,1.427457275390625,-1.1424490563057363,6.541761484101414,0.000029810616374015806
1740587845937439500,1.437439453125,-0.8266799562335014,6.81426442002952,0.18327859207689762
1740587845947421400,1.44742138671875,-0.6201511292114853,7.051715331798792,0.3209872731119394
1740587845957403400,1.4574033203125,-0.5714873438075184,7.126939791870117,0.5866185697048902
1740587845967385300,1.46738525390625,-0.5666578778244554,7.071668571025133,0.6546084023475647
1740587845977368300,1.477368408203125,-0.4969958741858601,6.828156751781702,0.5877601409554482
1740587845987350500,1.4873505859375,-0.2842649776533246,6.563931230333447,0.3643360009729862
1740587845997332200,1.497332275390625,-0.10264642774313687,6.324331031575799,-0.10925766257643699
1740587846007314400,1.507314453125,-0.07764876460880041,6.056730480736494,-0.7490799992024898
1740587846017296400,1.51729638671875,-0.060656713275611396,5.818609122359752,-1.7259055087178945
1740587846027278300,1.5272783203125,-0.02304185289144516,5.720536870664358,-2.940394695970416
1740587846037260300,1.53726025390625,-0.0400739439740777,5.575359168922901,-4.097797721910476
1740587846047243300,1.5472431640625,0.0013616437420248984,5.365270311331749,-5.220782929942011
1740587846057225500,1.5572255859375,0.25249007546901703,5.165705770364403,-5.859920206913352
1740587846067207400,1.56720751953125,0.41400516402721405,4.896701197946071,-5.459398209315538
1740587846077189400,1.577189453125,0.2032907218836248,4.5990492077142,-4.376277394160628
1740587846087171300,1.58717138671875,-0.23616554813385007,4.343539492163062,-3.456355675128102
1740587846097153500,1.597153564453125,-0.6700397802352905,3.9706440448984504,-3.06211611880064
1740587846107136500,1.607136474609375,-0.9977589919507502,3.692456341332197,-2.9785177981376645
1740587846117118500,1.617118408203125,-0.991428766015917,3.5063910411462187,-3.1576942155927417
1740587846127100400,1.627100341796875,-0.4540075040698051,3.153284582456946,-3.2772114063769577
1740587846137082400,1.637082275390625,0.4284675507523119,2.6164713694065806,-3.5801375376194713
1740587846147064300,1.647064208984375,1.2293920112214982,2.052813404050469,-3.525540270513296
1740587846157046300,1.65704638671875,1.7270552632749079,1.414213302695751,-3.5820267123669383
1740587846167028500,1.667028564453125,1.9653041935540734,0.7692829754061996,-3.8969343733042474
1740587846177011500,1.677011474609375,2.1471033607281744,0.3707560240831226,-4.023171812254191
1740587846186993400,1.686993408203125,2.2516133903861046,0.2905588901657611,-3.9487317805588242
1740587846196975400,1.696975341796875,2.3875275892198085,0.4055347111932933,-3.5295267098009586
1740587846206957300,1.706957275390625,2.448909401899576,0.5246687478788197,-2.620931855946779
1740587846216939500,1.716939453125,2.484984923887253,0.6375732425250112,-1.980895584309101
1740587846226921200,1.726921142578125,2.2604349947452542,0.7106599599152803,-1.184403845590353
1740587846236904400,1.736904541015625,1.742932046842575,0.8898045209273695,0.17182605469226836
1740587846246886400,1.746886474609375,1.0808312429130076,1.1316732491388917,1.269496204203367
1740587846256868400,1.756868408203125,0.49443062680773436,1.3760063216373324,2.1389730996340512
1740587846266850600,1.7668505859375,0.045182299963757395,1.6276351041018962,3.1267244923114776
1740587846276832300,1.776832275390625,-0.20305475770328194,1.748616522219777,4.214688655844331
1740587846286815200,1.786815185546875,-0.4024408368311822,1.7879829024463891,5.47804445759654
1740587846296797000,1.796796875,-0.6961644746381789,1.7567136116966604,6.581062982398271
1740587846306780200,1.8067802734375,-1.2731810301959514,1.3963608351409433,7.318081956928968
1740587846316762000,1.81676220703125,-2.0146562534831465,0.6531859683290123,8.203848892903327
1740587846326744000,1.826744140625,-2.7071149324059487,-0.14554419696629048,9.49666635146141
1740587846336726300,1.836726318359375,-3.3975054267525673,-0.8785530590727925,11.122980436092615
1740587846346708000,1.8467080078125,-4.171951337879896,-1.8682196377217768,12.672595896446705
1740587846356690200,1.856690185546875,-4.971133046334981,-2.9216747979313133,13.786825551092624
1740587846366673000,1.8666728515625,-5.767357074028253,-3.817484404492378,14.328310263085365
1740587846376655000,1.876655029296875,-6.566552811008691,-4.757364623448252,14.118503145045041
1740587846386637300,1.88663720703125,-6.982721875071525,-5.7446887306243175,12.945261329460143
1740587846396619000,1.896618896484375,-7.086696044287085,-6.744563691815734,11.215663395965098
1740587846406601200,1.906601318359375,-7.038960479643941,-7.464073313140869,9.365582057002186
1740587846416583200,1.916583251953125,-6.6777183530330655,-7.682623125085234,8.261330191013217
1740587846426566100,1.926566162109375,-5.958049157232046,-7.281518943685293,8.375437631708383
1740587846436548000,1.936548095703125,-5.090755451059342,-6.555526390081644,8.521358845293522
1740587846446530000,1.946530029296875,-4.248862435863912,-5.9165258912324905,8.230707089212537
1740587846456512300,1.95651220703125,-3.623247780549526,-5.3977299809098245,7.731815318277477
1740587846466494200,1.966494140625,-3.141581869703531,-4.922933955833315,7.273745387074351
1740587846476476200,1.97647607421875,-2.755426835632324,-4.5334640981256955,6.9273466093301765
1740587846486459100,1.986459228515625,-2.3224504291534425,-4.15540118509531,6.730954268658161
1740587846496441000,1.996441162109375,-1.8519672988399862,-3.8349732994318004,6.406718807405233
1740587846506423000,2.006423095703125,-1.3441795431353152,-3.5990409755319357,6.021092765644192
1740587846516405000,2.016405029296875,-0.9710523329414427,-3.4242268449395894,5.463730101040006
1740587846526387200,2.02638720703125,-0.9112414228402078,-3.4231507401406764,4.691090947073698
1740587846536369200,2.036369140625,-1.1129556891873478,-3.554606205999851,3.757447576680779
1740587846546351000,2.04635107421875,-1.4354666647352277,-3.611296938253939,3.0193016439467666
1740587846556334000,2.056333984375,-1.752582357110828,-3.4414462752878663,2.5324481013298032
1740587846566316000,2.06631591796875,-2.063560861905664,-3.1300583129093047,2.334030976831913
1740587846576298000,2.076298095703125,-2.2819991762995717,-2.8429151494711635,2.4461089575260875
1740587846586280200,2.0862802734375,-2.0871289306282996,-2.5334602009817955,2.320423891761899
1740587846596262100,2.09626220703125,-1.58052760822922,-2.1711641814038156,1.8973890335828065
1740587846606244000,2.106244140625,-1.1236685141205787,-1.7797461122378706,1.3800848231226206
1740587846616227000,2.11622705078125,-0.8637935890972613,-1.3229805416315794,0.9153893362998962
1740587846626209000,2.126208984375,-0.6556114419102669,-0.805065213535726,0.3964864584714174
1740587846636191200,2.136191162109375,-0.46802316994071,-0.38048663304597136,-0.21755846281945704
1740587846646173000,2.1461728515625,-0.27247619405165313,0.028089783930778503,-0.7556137848854064
1740587846656155100,2.156155029296875,-0.1587700276337564,0.485695166362077,-1.086162667068839
1740587846666137000,2.16613720703125,-0.11996727263927459,0.9708828215934335,-1.2893985900253058
1740587846676120000,2.1761201171875,-0.19664938417300581,1.423685041526705,-1.4610861130297184
1740587846686102300,2.186102294921875,-0.3392854386076331,1.8075176239997148,-1.5682979489922522
1740587846696084000,2.196083984375,-0.4926642747223377,2.137763869974762,-1.583940339282155
1740587846706066200,2.206066162109375,-0.6416890072807669,2.4261568873435255,-1.5174498052865266
1740587846716048100,2.216048095703125,-0.7709870028451085,2.784834131902456,-1.5214596254497765
1740587846726030000,2.226030029296875,-0.9142518567025661,3.20616861590445,-1.3253905253827571
1740587846736013000,2.236012939453125,-1.025719596543908,3.678324647866189,-1.0708961243540047
1740587846745995000,2.2459951171875,-1.1451651833966374,4.029355469325185,-1.1775064872920513
1740587846755977200,2.255977294921875,-1.2283242358595132,4.201390198332071,-1.3055834166288376
1740587846765959000,2.265958984375,-1.2712743197917937,4.417028214482963,-1.148506018257141
1740587846775941000,2.275941162109375,-1.176497894771397,4.828050271046162,-0.6290846695125103
1740587846785923000,2.285923095703125,-1.0968187933787703,5.327058946359157,-0.0735556500762701
1740587846795906000,2.295906005859375,-1.1686141557842493,5.716126653006673,0.35166298188269135
1740587846805888300,2.30588818359375,-1.3912760792225598,5.990453881752491,0.8002432002067565
1740587846815870000,2.315869873046875,-1.6660577737376092,6.2520671748757355,1.424862707003951
1740587846825852200,2.32585205078125,-1.974086488816142,6.521245934817195,1.9710382071614265
1740587846835834000,2.335834228515625,-2.4127444480627775,6.730807553663849,2.219567562305927
1740587846845816000,2.345816162109375,-2.7212700067475435,6.914431013655662,2.515384153804183
1740587846855798000,2.355798095703125,-2.7915274920612574,7.420285024818778,3.0786165872246025
1740587846865781000,2.365781005859375,-2.7644077222064136,8.17995246900916,3.5184055963277814
1740587846875763200,2.37576318359375,-2.655922797568142,8.904150540411472,3.6218460970580577
1740587846885745200,2.3857451171875,-2.586209502133727,9.350942706274985,3.2572727801978587
1740587846895727000,2.39572705078125,-2.562528182294965,9.514847320318221,2.520174895212054
1740587846905709000,2.405708984375,-2.6566534499302503,9.380990638536215,1.4282342292636632
1740587846915691300,2.415691162109375,-2.8008628911614415,8.946002307713032,0.24424539421498773
1740587846925674200,2.42567431640625,-2.76517023101151,8.296045530563593,-0.7279816815942526
1740587846935656200,2.43565625,-2.2919424781650304,7.6373676868200295,-1.4343056581318379
1740587846945638100,2.44563818359375,-1.2872802826970815,7.212191724959015,-1.8273042744874952
1740587846955620000,2.4556201171875,0.06868775177896022,7.081827561467885,-2.1707488786011933
1740587846965602000,2.46560205078125,1.5267565628141164,7.2745701474606985,-2.7000609222412106
1740587846975584000,2.475583984375,2.621551449149847,7.6877698403239245,-3.0762685627937314
1740587846985567000,2.48556689453125,3.2499490131810305,7.803768793854117,-3.4691841770410536
1740587846995549200,2.495549072265625,3.539327972847223,7.555999901688098,-3.7605800294876097
1740587847005531100,2.50553125,3.6129052502334114,7.240785951280594,-3.4933979963213204
1740587847015513000,2.51551318359375,3.433873209685087,6.881156520563364,-2.4936487073361873
1740587847025495000,2.5254951171875,2.961874121850729,6.456341208708286,-0.795971514236927
1740587847035477200,2.535477294921875,2.222753206604719,5.7450096331417555,0.9096990157037973
1740587847045460000,2.5454599609375,1.2680676327049731,4.722565697267651,2.0290958438545466
1740587847055442200,2.555442138671875,0.24803959886617957,3.755989779087901,2.6646687063425776
1740587847065424100,2.565424072265625,-0.6291068082790822,3.1537992539808153,3.021472558245063
1740587847075406000,2.575406005859375,-1.371560740405321,2.9901354629561303,3.018131431123614
1740587847085388300,2.58538818359375,-1.9206313774824142,3.067458648872375,2.6529233234912155
1740587847095370000,2.595369873046875,-2.287845564240217,3.126476947291195,2.1723089675247667
1740587847105353200,2.605353271484375,-2.673227860373258,3.036882601083815,1.3611042283207178
1740587847115335000,2.6153349609375,-3.0902059027314186,2.6208120289593935,0.30409400597810743
1740587847125317000,2.625317138671875,-3.371208955979347,1.971548202510178,-0.352767728254199
1740587847135299300,2.63529931640625,-3.425627943909168,1.2453890601679682,-0.45774026085734365
1740587847145281000,2.645281005859375,-3.3194483736038207,0.532503825418651,-0.2963128505825996
1740587847155263200,2.65526318359375,-3.1605519431114195,-0.08534063428565859,-0.13494506154060362
1740587847165246000,2.665245849609375,-3.0486545796811577,-0.5790779450669884,-0.12685878571867942
1740587847175228200,2.675228271484375,-3.098212683576345,-0.892693374236673,-0.14401976387798784
1740587847185210000,2.685210205078125,-3.133596131646633,-1.095990379730612,-0.07444646143615245
1740587847195192000,2.695192138671875,-3.0010990477800368,-1.286475396054983,0.05738309843242168
1740587847205174300,2.70517431640625,-2.7173148393809794,-1.5228566327661275,0.1849737055569887
1740587847215156000,2.715156005859375,-2.419541560856998,-1.8916198025315998,0.45537703885734077
1740587847225139200,2.72513916015625,-2.236207731461525,-2.403496727246046,0.7314326988309622
1740587847235121000,2.735120849609375,-2.1681740596771237,-2.953248624585569,0.9913613998681307
1740587847245103000,2.74510302734375,-2.174098773550987,-3.459599187093973,1.311759474915266
1740587847255085000,2.7550849609375,-2.3099822849854825,-3.9027778386354446,1.548480903366208
1740587847265067000,2.76506689453125,-2.45092571015805,-4.16544473246485,1.6867027946203945
1740587847275049200,2.77504931640625,-2.439065761016309,-4.329528794728219,2.0776772116720674
1740587847285030700,2.78503076171875,-1.9756081454254686,-4.403299256598949,2.4969366429656743
1740587847295013600,2.795013671875,-2.0002594793401656,-4.632229885043204,3.076574267742038
1740587847304995600,2.80499560546875,-1.6690439499415457,-4.613500342392921,3.297268690499663
1740587847314977500,2.8149775390625,-1.4959155804790556,-4.7200239038303495,3.1700656213879586
1740587847324959500,2.82495947265625,-1.5204302824020386,-4.623579545597732,2.74885096437335
1740587847334941700,2.834941650390625,-1.9276840724729,-4.364689539958536,3.24591201274991
1740587847344923400,2.84492333984375,-2.206351376249641,-4.348853965184092,4.304393476688862
1740587847354906600,2.85490673828125,-2.5540695660293102,-4.753846678455174,5.32069408750236
1740587847364888600,2.864888671875,-2.8186218352138996,-5.366179242870211,5.88205955800712
1740587847374870500,2.87487060546875,-3.12897607063055,-6.001667934206128,6.06145634021461
1740587847384852700,2.884852783203125,-3.3738767138838766,-6.574433335125446,6.366116747903823
1740587847394834400,2.89483447265625,-3.5972131755828856,-6.774537389796972,6.773228060764074
1740587847404816600,2.904816650390625,-3.8488101016044616,-6.6306678480446335,7.404986333400011
1740587847414799600,2.914799560546875,-4.239772243696451,-6.5535530441820615,8.171389807847142
1740587847424781600,2.924781494140625,-4.511621684151888,-6.835740338778495,8.503838386172056
1740587847434763800,2.934763671875,-4.401477886390686,-7.272686233410239,8.18925922653675
1740587847444745500,2.944745361328125,-4.091033634603023,-7.749054037848114,7.4896210113734005
1740587847454727700,2.954727783203125,-3.7002082706332207,-8.068142783862353,7.054817973989248
1740587847464709600,2.964709716796875,-3.779815475833416,-8.533852416163683,6.45271541942656
1740587847474692600,2.974692626953125,-4.183680354118347,-9.03499985707104,5.92057370531857
1740587847484674800,2.9846748046875,-4.371781836307049,-9.199293178170919,5.510481915342807
1740587847494656500,2.994656494140625,-4.388875594449043,-8.772990842628479,5.730429319125413
1740587847504638700,3.004638671875,-3.940166196787357,-7.587381712901592,6.688460696321726
1740587847514620400,3.014620361328125,-3.4028666615247722,-6.377272932690381,7.38409902819395
1740587847524602600,3.0246025390625,-2.9795395424008366,-5.483679248613119,7.921065385979413
1740587847534585600,3.034585693359375,-2.1361095268964765,-4.504107362999021,8.185999347957969
1740587847544567600,3.044567626953125,-1.401723238956928,-3.3451351880460978,8.415974224758148
1740587847554549800,3.0545498046875,-1.0311515584647655,-2.4073116093590854,8.268687568038702
1740587847564531500,3.064531494140625,-0.5020376677453517,-1.5371847255870699,7.611721788910031
1740587847574513700,3.074513671875,-0.3777197986811399,-0.9384297278866172,6.841276930117607
1740587847584495600,3.08449560546875,-0.4008732952535152,-0.5220959747813642,5.742268810001016
1740587847594477600,3.0944775390625,-0.5720382922211662,0.6207653155870735,5.049113527116179
1740587847604460800,3.104460693359375,-1.2611889791071413,1.4315059444107114,4.080392998123169
1740587847614442500,3.1144423828125,-2.209239645037055,1.9315490773379802,2.9972680913150307
1740587847624424700,3.1244248046875,-3.1605221324950454,2.0142107016727326,2.0378204175800083
1740587847634406700,3.13440673828125,-3.6509868513464925,1.7769973980516194,1.5110656572073697
1740587847644388600,3.144388671875,-3.4048604656904935,1.6162582623019814,1.3672569057315587
1740587847654370600,3.15437060546875,-2.23662683365643,1.770567657265067,1.2157260355710982
1740587847664353500,3.164353515625,-0.7681138585615903,2.263210596938431,0.9978975236386061
1740587847674335700,3.174335693359375,0.10375321994125843,2.8805592359498142,0.5817331357508897
1740587847684317700,3.184317626953125,0.38450142164528367,3.2725118503838777,-0.01881108345389366
1740587847694299600,3.194299560546875,0.5166425316810608,3.633348611064255,-0.5817372274041176
1740587847704281600,3.204281494140625,0.5435362376950681,4.110411704289913,-0.8630734581291675
1740587847714263600,3.214263671875,0.3258839591123163,4.634581124344468,-1.0002823729485273
1740587847724246500,3.22424658203125,-0.2569510004006326,4.980221777197718,-0.5079512757033109
1740587847734228700,3.234228759765625,-0.8036994050752371,5.069391760513186,0.25410978562533854
1740587847744210400,3.24421044921875,-0.967199603036046,5.188175376325845,0.5903817216306925
1740587847754192600,3.254192626953125,-0.8187333811432123,5.4232011067748065,0.5149760597735643
1740587847764174600,3.264174560546875,-0.5549673304328695,5.8024856705546375,0.48526890377402304
1740587847774156500,3.274156494140625,-0.25474632996320723,6.31468583587408,0.5644540841698646
1740587847784139500,3.284139404296875,-0.08251813334398903,6.782301594057679,0.22082652470469474
1740587847794121500,3.29412158203125,-0.07599022027943284,7.081344746387004,-0.41854514554440975
1740587847804103700,3.304103759765625,-0.08095277459025382,7.300451607692241,-0.9780746327936649
1740587847814085400,3.31408544921875,-0.09445048100166022,7.641335421407223,-1.2654635876864193
1740587847824067600,3.324067626953125,-0.09317403132505714,7.978443223714828,-1.3717869503766298
1740587847834049800,3.3340498046875,-0.03772971893548965,8.17784585211873,-1.2805185334771871
1740587847844032500,3.344032470703125,0.04635726202726364,8.134470820772647,-1.200042144227028
1740587847854014700,3.3540146484375,0.34608386657610535,8.081506707826255,-1.1760627182245253
1740587847863996400,3.363996337890625,0.6228980898320674,8.116060134813189,-0.8065174581706523
1740587847873978600,3.373978515625,0.6178617031000554,8.198665352785588,-0.3092623485267162
1740587847883960600,3.383960693359375,0.5295512592233718,8.259796990096568,0.034604864913225175
1740587847893942500,3.393942626953125,0.3426068381153047,8.338791616356373,0.2501221772938967
1740587847903925800,3.40392578125,0.17448928255215287,8.630579098469019,0.36617373779416085
1740587847913907500,3.413907470703125,0.09848360897526144,9.07914762635529,0.5590536864310502
1740587847923889700,3.4238896484375,0.04681435814499855,9.621060208371281,0.7932926504164933
1740587847933871600,3.43387158203125,0.11106003582328558,10.123472554647922,0.8861603192061185
1740587847943853600,3.443853515625,0.18652787619642913,10.481284122288226,0.9746505035638808
1740587847953835500,3.45383544921875,0.2142657048843801,10.615050787699222,1.0066174211889505
1740587847963818500,3.463818603515625,0.16906828041672706,10.379034877169131,0.7284948918133973
1740587847973800700,3.47380078125,0.0698257428329438,9.834819278907775,-0.045104047095775604
1740587847983782700,3.48378271484375,0.020987806438468395,9.03932941070795,-0.7048825455576181
1740587847993764600,3.4937646484375,0.0013431582372635603,8.372441957023739,-0.8665700680732726
1740587848003746600,3.50374658203125,0.06754033530950546,7.912262486320733,-0.7807201690912247
1740587848013728500,3.513728515625,0.16753560922304167,7.402427296566962,-0.56284021923244
1740587848023711700,3.523711669921875,0.48012744923233985,6.935942588239908,-0.1317266840159893
1740587848033693400,3.533693359375,0.9231821821331977,6.735552117842436,0.5896417169183492
1740587848043675600,3.543675537109375,1.465527310347557,6.665327658015489,1.3761205956667661
1740587848053657600,3.55365771484375,1.963493198609352,6.564444440552592,2.027035404193401
1740587848063639600,3.5636396484375,2.296874089348316,6.547642358833551,2.479291680681705
1740587848073621500,3.57362158203125,2.4244039061963556,6.50644642509222,2.6855653638988732
1740587848083604500,3.5836044921875,2.353799507141113,6.36623540584743,2.6902695960670706
1740587848093586700,3.593586669921875,2.1092203509271146,6.123825410366058,2.7098826435536143
1740587848103568600,3.603568603515625,1.6300515175938606,5.769959950003027,2.5239023913025855
1740587848113550600,3.613550537109375,1.19874669758901,5.292841034936904,2.3049445830792186
1740587848123532500,3.623532470703125,0.7631822473783045,4.781532265499234,2.1335878994643687
1740587848133514800,3.6335146484375,0.3725098820131272,4.286091511800885,2.04397192594707
1740587848143496400,3.643496337890625,-0.06035517304576933,3.7144212126418945,2.082984085908532
1740587848153479700,3.653479736328125,-0.42170908946804697,3.1186019761323927,2.0672423268973827
1740587848163461600,3.663461669921875,-0.706955698569864,2.5379499136164783,1.9084107783347366
1740587848173443600,3.673443603515625,-0.921940511509031,2.0692700333327054,1.8660101449787616
1740587848183425800,3.68342578125,-1.0835654901824892,1.683446130912006,1.8762883778870105
1740587848193407500,3.693407470703125,-1.1297709226489066,1.2771332749530673,2.0360300270318983
1740587848203389700,3.7033896484375,-0.9838355344079435,0.8350802664406597,2.1285826385229827
1740587848213372700,3.71337255859375,-0.8384311843037605,0.37567791758999225,2.256075630491972
1740587848223354600,3.723354736328125,-0.748020918603614,-0.16380597597435115,2.5034949785679577
1740587848233336600,3.733336669921875,-0.6335575040776282,-0.8459580726772546,2.2515374025404453
1740587848243318500,3.743318603515625,-0.5860813940882682,-1.4525570618763566,1.9131810614764688
1740587848253300700,3.75330078125,-0.5703834742188454,-1.8475825078845023,2.050347890719771
1740587848263282400,3.763282470703125,-0.5163349270366132,-2.1442563007339834,2.60030349393785
1740587848273265700,3.773265625,-0.44033436802625653,-2.614222129175067,2.8885768304497
1740587848283247600,3.78324755859375,-0.37632111086435616,-3.3024513538345692,2.713987740784883
1740587848293229800,3.793229736328125,-0.28316461519598957,-3.9085073221981523,2.458122635924816
1740587848303211800,3.803211669921875,-0.2079834828097373,-4.288707539518177,2.4441519782394168
1740587848313193700,3.81319384765625,-0.31554946597218514,-4.441684516833722,2.5977374428421256
1740587848323175700,3.82317578125,-0.5667511090658605,-4.607598424872756,3.0082535957098004
1740587848333158700,3.83315869140625,-0.7940485102850944,-4.8620624307632445,3.58465355373919
1740587848343140900,3.843140869140625,-0.8938369913138449,-5.236213138785958,4.117379205214977
1740587848353122800,3.853122802734375,-0.8636828221991658,-5.618298146939277,4.817916999566555
1740587848363104800,3.863104736328125,-0.7909599696852266,-5.92933861105442,5.593883836650848
1740587848373087700,3.873087646484375,-0.7090810201607645,-6.237219734355807,5.959779926547408
1740587848383069700,3.883069580078125,-0.6232371125280857,-6.439166202023625,6.040750236794352
1740587848393051600,3.8930517578125,-0.6750688604436814,-6.456541699716448,6.348546604421735
1740587848403033900,3.903033935546875,-0.8123112391412257,-6.282419643041491,6.921073520410061
1740587848413015800,3.913015869140625,-0.9798108089365064,-6.1712938485056155,7.565467402735352
1740587848422997800,3.922997802734375,-1.0505087314940988,-6.253975054323673,8.16616944285035
1740587848432980700,3.932980712890625,-1.0255354721486567,-6.605241145843267,8.607551858624815
1740587848442962700,3.942962646484375,-0.9414369468785821,-7.039505838567018,9.01674406941235
1740587848452944600,3.952944580078125,-0.7713808244682848,-7.200671383035183,9.660750413724779
1740587848462926600,3.962926513671875,-0.6288226575754583,-7.176045475822686,9.991685080355404
1740587848472908800,3.97290869140625,-0.6519055731296539,-7.328195939186215,9.441223865702748
1740587848482890500,3.982890380859375,-0.736004244530201,-7.666471616229415,8.525658003792167
1740587848492873700,3.992873779296875,-0.8265138058863579,-7.929359167072176,7.909902771452069
1740587848502855700,4.002855712890625,-0.8821431925192474,-8.102770445129275,7.425078688836098
1740587848512837600,4.012837646484375,-0.8669009074628352,-8.333317568859458,6.911310835808515
1740587848522819800,4.02281982421875,-0.7846984250724315,-8.662343771520257,6.39420945444405
1740587848532801500,4.032801513671875,-0.6183892341054975,-8.917483484715223,6.237809516942501
1740587848542783700,4.04278369140625,-0.20310396713986992,-8.915415446269511,6.381168771085143
1740587848552766700,4.0527666015625,0.22337153301239013,-8.556903036883472,6.499755403020978
1740587848562748700,4.062748779296875,0.43796822341680525,-7.877023999679088,6.656734601715207
1740587848572731000,4.07273095703125,0.482518143761158,-6.984474856218696,6.839315274655818
1740587848582712600,4.082712646484375,0.36741175515651703,-6.075273268643021,6.814725607800483
1740587848592694800,4.09269482421875,0.18284663040041924,-5.3162932221949095,6.580073971360921
1740587848602676700,4.1026767578125,0.11993804654479026,-4.537149508640169,6.531622367402911
1740587848612659700,4.11265966796875,0.1246316111885011,-3.6475790887296196,6.6655953690409655
1740587848622642000,4.122641845703125,0.13693462792262434,-2.677050049009919,6.707937550207972
1740587848632623600,4.13262353515625,-0.0881260272204876,-1.8659762427091597,6.722323218435049
1740587848642605800,4.142605712890625,-0.4856101184271276,-1.2422738507568836,6.3359934123188255
1740587848652587800,4.152587890625,-0.7620154686212539,-0.9455836912944913,6.423647730374336
1740587848662569700,4.16256982421875,-0.46076676907166836,-0.6843427386149764,6.531125523796677
1740587848672552700,4.172552734375,0.05113046777844429,-0.42957478134185073,5.939542025160789
1740587848682534700,4.18253466796875,0.5430559068322182,-0.1274263564735651,4.805191373506188
1740587848692516900,4.192516845703125,0.5365419948935508,0.36127485983669755,3.90049235804677
1740587848702498600,4.20249853515625,0.14399930561184882,0.8681832023583352,3.4063913285195824
1740587848712480800,4.212480712890625,-0.24293781874775885,1.3238792440369724,3.1829519909679886
1740587848722462700,4.222462646484375,-0.41419235716238617,1.6261391664557159,3.18874986359179
1740587848732444700,4.232444580078125,-0.29236250552162524,1.8711523301728068,3.3569448683053253
1740587848742426600,4.242426513671875,-0.20998349752053616,2.1873937239319083,3.402996425384283
1740587848752408800,4.252408935546875,-0.1725802340604365,2.623462835729122,3.289786810311675
1740587848762391800,4.262391845703125,-0.08937339693307876,3.1329350373893976,3.033769729760289
1740587848772373800,4.272373779296875,-0.016179712036997078,3.609551555891335,2.689268310070038
1740587848782355700,4.282355712890625,-0.03939151466786861,4.145427195830643,2.3915368248611686
1740587848792337700,4.292337646484375,-0.23860782671943306,4.736735092395544,2.251681779447198
1740587848802320000,4.30231982421875,-0.4228595016121864,5.335529837584495,2.1174100871235133
1740587848812302800,4.312302734375,-0.6249249194845556,5.858346089464425,1.9527298125326633
1740587848822284800,4.322284912109375,-0.8707742417648434,6.357856284558773,1.7739689901411533
1740587848832266800,4.332266845703125,-1.14397597361207,6.8513575946271414,1.6715262682765721
1740587848842248700,4.342248779296875,-1.4485995564222336,7.381468095168471,1.6115706890076398
1740587848852231000,4.35223095703125,-1.8080591835305093,7.863411653912067,1.585713778695464
1740587848862212600,4.362212646484375,-2.173060662674904,8.273937743651867,1.5339660558015107
1740587848872195800,4.37219580078125,-2.475994977223873,8.51615952308476,1.3043360469162464
1740587848882177800,4.382177734375,-2.7050001322090624,8.543270817372202,0.9340589654564857
1740587848892159700,4.39215966796875,-2.7852456353127955,8.623570681011676,0.660732438185811
1740587848902141700,4.4021416015625,-2.7719758193731305,8.87767052976489,0.5958130990296602
1740587848912123600,4.41212353515625,-2.7297487890183922,9.20716201184988,0.5744014776885509
1740587848922105900,4.42210595703125,-2.6114851054266093,9.502999646136164,0.3704600368112325
1740587848932088600,4.432088623046875,-2.5500512702986597,9.677661801037193,0.17705051134228705
1740587848942070800,4.44207080078125,-2.523550216864049,9.836626620590685,0.0727455027371645
1740587848952052700,4.452052734375,-2.5518030824020506,9.968855993431806,-0.011253215420246123
1740587848962034700,4.46203466796875,-2.584325880344212,10.0574917237401,-0.0027951836764812466
1740587848972017000,4.472016845703125,-2.536141110628843,10.260643475544452,0.16230477763116358
1740587848981998600,4.48199853515625,-2.4030317400828003,10.573517000305651,0.3427648051559925
1740587848991981800,4.49198193359375,-2.2326652365490793,10.82852285798788,0.388902286952734
1740587849001963500,4.501963623046875,-2.0913348578855393,11.022123522114754,0.37745617930889125
1740587849011945700,4.51194580078125,-2.0301868539616463,11.153113708549737,0.2452589551717043
1740587849021928000,4.521927978515625,-2.076418736043572,11.159036084336043,-0.20899521713554858
1740587849031909600,4.53190966796875,-2.30022398429811,10.868071609044074,-0.9946078344434499
1740587849041891800,4.541891845703125,-2.529653209914267,10.353285518884658,-1.7371406039595603
1740587849051874600,4.55187451171875,-2.596955937075615,9.812238029265403,-2.229435460847616
1740587849061856800,4.561856689453125,-2.488912034203112,9.373404713451862,-2.3252327533483506
1740587849071838700,4.571838623046875,-2.1874583136007186,8.969787087926267,-2.256095504236221
1740587849081820700,4.581820556640625,-1.785959579925239,8.587488144761323,-2.1210066503107545
1740587849091803000,4.591802978515625,-1.2948843279600142,8.294623973327875,-1.7861136014431713
1740587849101785600,4.60178564453125,-0.8292064059711992,8.054965906903147,-1.2058861940801142
1740587849111767800,4.611767822265625,-0.32742358976975083,7.808760026270151,-0.40588440141379833
1740587849121749800,4.621749755859375,0.19228782796263694,7.5963441870361565,0.3911836758881807
1740587849131731700,4.631731689453125,0.7085635721579193,7.457220963028073,1.1332669480711222
1740587849141713700,4.641713623046875,1.0734683129295706,7.440836229938268,2.0366823534607885
1740587849151695600,4.651695556640625,1.2216143629573284,7.402763981175422,2.367479657447338
1740587849161678800,4.661678955078125,1.012177685664594,7.088990292704105,2.380817862448096
1740587849171660500,4.67166064453125,0.6930185047626495,6.806157101419568,2.6768641710489987
1740587849181642800,4.681642822265625,0.35713615259677167,6.5809507541954515,3.194350752338767
1740587849191624700,4.691624755859375,0.07280921562314033,6.115561439889669,3.6355782698124646
1740587849201606700,4.701606689453125,-0.17057254749983547,5.402673867052793,3.824991419121623
1740587849211588600,4.711588623046875,-0.34833062258958813,4.5592789228618145,3.8884979688704013
1740587849221571600,4.721571533203125,-0.44546091725975273,3.6623008570432662,3.9848867975234983
1740587849231553800,4.7315537109375,-0.36365795558094977,2.780242712458968,4.089429122015834
1740587849241535700,4.74153564453125,-0.17717077672109008,1.9631731728747486,4.05758203137815
1740587849251517700,4.751517578125,-0.0817066616974771,1.274909607554227,3.9527445233315226
1740587849261499600,4.761499755859375,-0.1350865158379078,0.7011549033366143,3.722846218898892
1740587849271482600,4.771482666015625,-0.20533917884603142,0.17403204030394553,3.4895021579265593
1740587849281464800,4.78146484375,-0.195831199657917,-0.2727143867217004,3.3249580769360065
1740587849291446300,4.7914462890625,-0.20838687597885727,-0.6909145182207226,3.2930133711427447
1740587849301428000,4.801427978515625,-0.3128326082289219,-1.0669166993290184,3.28729674706161
1740587849311410200,4.81141015625,-0.6237947464108466,-1.4243611872225999,3.463220884722471
1740587849321392000,4.82139208984375,-0.8997278029181063,-1.7403765171408652,3.8144039741337297
1740587849331375000,4.831375,-1.0329929485477507,-2.072363323172927,4.160928424084187
1740587849341357300,4.841357421875,-0.9353437445700168,-2.5722958353325724,4.434125187495351
1740587849351339000,4.851339111328125,-0.626131811056286,-3.0188802036643025,4.529412776908278
1740587849361321200,4.8613212890625,-0.1529812150992453,-3.4709631694123146,4.441463859820366
1740587849371303200,4.87130322265625,0.40709721126966175,-4.034694492265582,4.33612074033916
1740587849381285000,4.88128515625,0.930508433368057,-4.590857133430243,4.213362375676632
1740587849391268400,4.891268310546875,1.426477740985155,-4.9441181981593365,4.177225478890538
1740587849401250000,4.90125,1.9184955344974994,-5.1411488367348905,4.325511668041348
1740587849411232300,4.911232177734375,2.3113117800235745,-5.364426261723041,4.427024415579438
1740587849421214200,4.921214111328125,2.716349209219217,-5.703517931324243,4.5310254728019235
1740587849431196200,4.931196044921875,3.202801185297966,-6.034653088963031,4.683341940382123
1740587849441179100,4.94117919921875,3.5646985609471797,-6.043555357342958,5.136551572072506
1740587849451161000,4.9511611328125,3.929703254961967,-5.988286474585533,5.640082108724117
1740587849461143300,4.961143310546875,4.35844538487196,-6.040069853314757,6.108505091637372
1740587849471125200,4.971125244140625,4.613724798798561,-6.131520641043782,6.246442320731282
1740587849481107200,4.981107177734375,4.732970771425962,-6.336781347826123,6.326930984941124
1740587849491089200,4.991089111328125,4.923337860459089,-6.647001727730036,6.725744425055384
1740587849501072100,5.001072021484375,5.218143813610077,-6.959734382715821,7.114113043522835
1740587849511054000,5.01105419921875,5.603319188994169,-7.106619472897052,7.564032986018061
1740587849521036000,5.0210361328125,5.78246930296421,-7.0244140678972,8.246183475285768
1740587849531018200,5.031018310546875,5.671790083152056,-6.823762900736927,8.776988972353935
1740587849541000200,5.041000244140625,5.30032876034379,-6.691307317924499,9.091163642841577
1740587849550983200,5.050983154296875,4.836797056603431,-6.766124950760602,9.266092924246191
1740587849560965000,5.060965087890625,4.4628971084713935,-6.8627826594829555,9.427429149106144
1740587849570947000,5.070947021484375,4.065481844717264,-6.944869406539201,9.453382505530119
1740587849580929000,5.080928955078125,3.4964170518815516,-7.238290627333521,8.866005810934304
1740587849590911200,5.0909111328125,2.8532079954266547,-7.602386974331736,7.778723784446716
1740587849600893200,5.10089306640625,2.342370935153961,-7.740993480989337,6.782836431586742
1740587849610876200,5.110876220703125,1.9211504329204558,-7.523385333809256,6.08502952350378
1740587849620858000,5.120858154296875,1.6081564966499804,-7.068868126651644,5.70339284363985
1740587849630840000,5.130840087890625,1.5118191059231758,-6.428233304598927,5.637300369051099
1740587849640822300,5.140822265625,1.624470502591133,-5.568969175624847,5.900495962929726
1740587849650804000,5.150803955078125,1.7051335004545747,-4.571683646404743,6.114076754289865
1740587849660787200,5.160787109375,1.6963247555769978,-3.598717150405049,6.122506728982925
1740587849670769200,5.17076904296875,1.5951825949169693,-2.6621681216984987,5.900291964790225
1740587849680751000,5.180751220703125,1.3657833260476588,-1.8292086468040942,5.51032643252015
1740587849690733300,5.1907333984375,1.0131728341817856,-1.1310504410654305,5.176481431400775
1740587849700715000,5.200715087890625,0.5314413107536733,-0.5805009636074304,4.93247510663867
1740587849710697200,5.210697265625,-0.03863324364647269,-0.18874445626735686,4.701330017015338
1740587849720680200,5.22068017578125,-0.6252782629668713,0.027101941937208173,4.448780904835463
1740587849730662100,5.230662109375,-1.244091421572864,0.3253679724141955,4.270400021672248
1740587849740644000,5.24064404296875,-1.5689561206400393,0.5944055703192949,4.175778787213564
1740587849750626000,5.2506259765625,-1.7797730002447962,0.6578302870035171,3.816201378944516
1740587849760608300,5.260608154296875,-1.9138883329629897,0.6322215062335134,3.0484815612018106
1740587849770591200,5.27059130859375,-1.9426018017500637,0.6151271635696292,2.2890514328986407
1740587849780573200,5.2805732421875,-1.935795921127498,0.6971247710376978,1.8681220225661992
1740587849790555100,5.29055517578125,-1.8818726077601313,0.8853403811253606,1.721894519510865
1740587849800537000,5.300537109375,-1.8486933917358517,1.1759545816749333,1.6667179912120103
1740587849810519300,5.310519287109375,-1.7834557804107665,1.506626505716145,1.710221617373824
1740587849820501000,5.3205009765625,-1.580935604508221,1.8542898965686558,1.7938304594308137
1740587849830484200,5.330484130859375,-1.3643427718505263,2.2172473026648163,1.6773235563784836
1740587849840466000,5.3404658203125,-1.122974394376576,2.5193776073545218,1.3563415439635513
1740587849850448100,5.3504482421875,-0.9670604868263005,2.779501538702845,0.911920783406496
1740587849860430300,5.360430419921875,-0.9710817051663995,3.026190234416723,0.49174131465852255
1740587849870412000,5.370412109375,-1.196537350976467,3.3116374075919386,0.19324936647117136
1740587849880395300,5.380395263671875,-1.6146189706623553,3.5522517518281935,-0.024815292304754256
1740587849890377000,5.390376953125,-2.0677204658031463,3.7747657912284134,0.03466331710219383
1740587849900359200,5.400359130859375,-2.510290045535564,4.128101967020332,0.3113543523699045
1740587849910341000,5.410341064453125,-2.8598218606084584,4.6085424277246,0.6683616178900003
1740587849920323000,5.420322998046875,-3.1305116096347567,5.136261064693332,1.0034867219477892
1740587849930305300,5.43030517578125,-3.3461855738818644,5.572412594076991,1.0681050323307513
1740587849940288000,5.4402880859375,-3.558388354887068,5.909473634633422,0.9481734155267476
1740587849950270200,5.450270263671875,-3.7849616065502163,6.167217977368831,0.7459563142240047
1740587849960252200,5.460252197265625,-3.8988840460672973,6.456895335459709,0.6546826366275549
1740587849970234000,5.470234130859375,-3.920960561057925,6.89231621248126,0.9408294825047254
1740587849980216000,5.480216064453125,-3.9901013173013924,7.3925453694999215,1.1452017160147427
1740587849990199000,5.490198974609375,-4.059982078257203,7.811451165050268,1.1372644932746887
1740587850000181200,5.50018115234375,-4.071664917266369,8.156377532154321,1.0929676709085703
1740587850010163000,5.510162841796875,-4.008124465247988,8.437726622360945,1.0819219607591628
1740587850020145200,5.520145263671875,-3.958546487608552,8.653189574205875,1.0676046815931797
1740587850030127000,5.530127197265625,-3.9773943959414955,8.756731781744957,0.8669862476587294
1740587850040109000,5.540109130859375,-4.001564960601925,8.716879663828015,0.595190583217144
1740587850050092300,5.55009228515625,-3.9032700060665606,8.79240398362875,0.6166483817875384
1740587850060074000,5.560073974609375,-3.762960787144303,9.095833972740174,0.8085469181716441
1740587850070056200,5.57005615234375,-3.636323535221815,9.398856550094484,0.9369850820362567
1740587850080038100,5.5800380859375,-3.517354041448235,9.600453473672271,1.026831357178092
1740587850090020000,5.59002001953125,-3.3077456608504057,9.776105224132538,1.1219546959400177
1740587850100003300,5.60000341796875,-3.060808543333411,9.802969265660643,0.8758978683888912
1740587850109985000,5.609985107421875,-2.937656503178179,9.53713747805953,0.08498597562909126
1740587850119967200,5.61996728515625,-3.008215601786971,8.857835363960266,-1.0233248103618622
1740587850129949200,5.62994921875,-3.054585138773918,8.031432471102475,-1.8858207608640192
1740587850139931100,5.63993115234375,-2.9793329139128324,7.326167063707113,-2.2346341985344886
1740587850149914000,5.6499140625,-2.849622830416262,6.781667387807369,-2.289302777311206
1740587850159896000,5.65989599609375,-2.5977994021624324,6.300844357526302,-2.0896452973634005
1740587850169878300,5.669878173828125,-2.2444237711429595,5.892089369112253,-1.6417098066836595
1740587850179860200,5.679860107421875,-1.8427008733227848,5.635621037662029,-1.0172200637459754
1740587850189842200,5.68984228515625,-1.2948553941264749,5.4208975060075515,-0.46127837185561654
1740587850199824100,5.69982421875,-0.780482560943067,5.223000021469593,-0.18961773197054863
1740587850209807000,5.70980712890625,-0.31171354107111693,5.184108857539296,0.07283435006439685
1740587850219789000,5.7197890625,-0.006688099461793899,5.238551810866594,0.1982984665542841
1740587850229771300,5.729771240234375,0.12254969034790993,5.196779538542032,0.27363749291598793
1740587850239753200,5.739753173828125,0.1099652263239026,5.117917014229297,0.4080529776245355
1740587850249735200,5.749735107421875,0.02158522434234619,4.9903918735563755,0.7236246554285287
1740587850259718100,5.75971826171875,-0.11939297988265753,4.809041619193554,1.3100795590043066
1740587850269700000,5.7697001953125,-0.3369754080995917,4.430429255586862,1.8476941515654324
1740587850279682000,5.77968212890625,-0.5685559665307403,3.7944860984817144,2.075550721037388
1740587850289664300,5.789664306640625,-0.7818690468654036,3.0262822966143488,2.274272381439805
1740587850299646500,5.799646484375,-0.897556450228393,2.3277742545247078,2.563437698355317
1740587850309629400,5.80962939453125,-0.8532827164769172,1.6326051475994288,2.767640420517325
1740587850319611400,5.819611328125,-0.6576558072194457,0.9873768602766096,2.894521418067813
1740587850329593300,5.82959326171875,-0.41922801324203607,0.45007790953591464,3.1016461651563643
1740587850339575300,5.8395751953125,-0.11824614793509244,-0.039781683029234405,3.2678251538723706
1740587850349557500,5.8495576171875,0.1308383568741381,-0.5107172332853078,3.263439486134052
1740587850359539200,5.859539306640625,0.270975141838938,-0.9420996485710144,3.236471399709582
1740587850369522400,5.8695224609375,0.3011618980489671,-1.3136343288764356,3.2816280537754294
1740587850379504400,5.87950439453125,0.3130171710155904,-1.7494561879143118,3.4562656587570904
1740587850389486300,5.889486328125,0.37795886813402174,-2.2701900805622337,3.762843298244476
1740587850399468500,5.899468505859375,0.47193727464452384,-2.907704432506859,4.097704782930016
1740587850409450200,5.9094501953125,0.602029489326477,-3.564246725526452,4.390792826247215
1740587850419433500,5.91943359375,0.7163396129868924,-4.164008269920945,4.662791319784522
1740587850429415400,5.92941552734375,0.8279122745074331,-4.8270332029581065,4.7617561364054675
1740587850439397400,5.9393974609375,0.98799389619641,-5.569061530083418,4.6707367258310315
1740587850449379300,5.94937939453125,1.16753103672266,-6.228920108044147,4.528732393428683
1740587850459361300,5.959361328125,1.4092448666334152,-6.700837947335839,4.431510621082783
1740587850469344300,5.96934423828125,1.6996809341371057,-6.9762962259382,4.5751966229617596
1740587850479326200,5.979326171875,1.9617489852905272,-7.116941544947028,4.796409516635537
1740587850489308400,5.989308349609375,2.387256371062994,-7.293972767066955,4.989458976620435
1740587850499290400,5.999290283203125,2.746623935973644,-7.337910108470917,5.333187073850631
1740587850509272300,6.009272216796875,2.844725413763523,-7.153168458104133,5.749610404935479
1740587850519254500,6.019254638671875,3.227603618121147,-7.196947394075989,5.765103742143512
1740587850529237200,6.0292373046875,3.489732459551096,-7.144476033082604,5.689018281328678
1740587850539219500,6.039219482421875,3.518807747387886,-7.062011100363731,5.478630148530006
1740587850549201200,6.049201171875,3.523119180846214,-7.019307684668898,5.3803731879174705
1740587850559183400,6.059183349609375,3.4764953768372533,-6.889540318027138,5.6072302249580614
1740587850569165300,6.069165283203125,3.3655648126125333,-6.719978116613626,6.06541004627645
1740587850579148300,6.079148193359375,3.110798608905077,-6.599387743639945,6.5517281668424605
1740587850589130500,6.089130615234375,2.892290298014879,-6.415284391176701,7.269042323949932
1740587850599112200,6.0991123046875,2.70166601935029,-6.032824704492092,8.15735076110065
1740587850609094400,6.109094482421875,2.442386137610674,-5.681812295472621,8.72815041490495
1740587850619076400,6.119076416015625,2.1110779614925383,-5.535554981800914,8.881160709968208
1740587850629059300,6.129059326171875,1.7504139270305632,-5.424715602990984,8.938195433354377
1740587850639041500,6.13904150390625,1.363237148696184,-5.307570986557007,8.807170175606013
1740587850649023200,6.149023193359375,0.8766647611081599,-5.310414685550332,8.261610176998376
1740587850659005400,6.15900537109375,0.4227859249193221,-5.607446498057246,7.427633049494028
1740587850668987400,6.1689873046875,0.15775317874141037,-6.0026452548056835,6.458431458985805
1740587850678970400,6.178970458984375,0.26075294996686277,-6.1277896378219125,5.817748706138134
1740587850688952300,6.188952392578125,0.5286942040026188,-5.817392732307314,5.730862449845671
1740587850698934300,6.198934326171875,0.8233270656090229,-5.079610372188687,6.073056761637329
1740587850708916500,6.20891650390625,1.0723566984258592,-4.139488745692372,6.463803799673914
1740587850718898200,6.218898193359375,1.2212403420131652,-3.2287083644926544,6.5309267863541836
1740587850728881400,6.22888134765625,1.1727554203074424,-2.4034283381849524,6.428518551281094
1740587850738863400,6.23886328125,0.9469347405772656,-1.540278307688236,6.3365142213225365
1740587850748845300,6.24884521484375,0.5314751399580389,-0.7569435721844434,6.140311850264668
1740587850758827500,6.25882763671875,-0.06301964301466942,-0.17813421492576598,5.841894136357307
1740587850768809200,6.268809326171875,-0.644109512425959,0.3380424528092146,5.761503671824932
1740587850778792400,6.27879248046875,-1.028426663545519,0.8047115777924656,5.977926408612728
1740587850788774100,6.288774169921875,-1.1677813582219183,1.0658856027156114,5.665501796662807
1740587850798756400,6.29875634765625,-0.916793211748451,0.9954586060538887,4.790819733804464
1740587850808738300,6.30873828125,-0.6516298249281942,0.8353954698696732,3.8971225893527266
1740587850818720300,6.31872021484375,-0.5006745626986027,0.817417330108583,3.295139861777425
1740587850828702500,6.328702392578125,-0.4221186201170087,0.9462155594572424,2.8102310234874484
1740587850838685200,6.338685302734375,-0.3848715701319277,1.1659103036530316,2.3612170899212357
1740587850848667400,6.34866748046875,-0.4021256334021687,1.3901302701883018,1.9364976396560667
1740587850858649300,6.3586494140625,-0.4266656158968806,1.6286537796251475,1.6091957765698433
1740587850868631300,6.36863134765625,-0.36642654351145026,1.90098208963871,1.407885853239894
1740587850878613200,6.37861328125,-0.3363400328055024,2.2494538742646575,1.2628583736240864
1740587850888596200,6.38859619140625,-0.4313216250091791,2.5908658035069703,1.0333540369451046
1740587850898578400,6.398578369140625,-0.5737193406432867,2.9087366981640455,0.9530290388643741
1740587850908560400,6.408560302734375,-0.8076879632547497,3.2925995296448467,0.9322241512447595
1740587850918542300,6.418542236328125,-1.2317594710052013,3.6534789604231714,0.785956316179037
1740587850928524300,6.428524169921875,-1.6747706570252776,3.9704441384121774,0.6865098535209894
1740587850938507300,6.43850732421875,-2.069237592367828,4.396410081607103,0.6643284168511628
1740587850948489500,6.448489501953125,-2.342300792527199,4.901593061640859,0.6811158855229615
1740587850958471400,6.458471435546875,-2.5745617344379426,5.386105594089627,0.7052759287893772
1740587850968453400,6.468453369140625,-2.7705712132722136,5.849135193526744,0.6427011069327593
1740587850978435300,6.478435302734375,-2.934424097128212,6.280167480200529,0.5109112945526838
1740587850988418300,6.488418212890625,-3.0112133222982287,6.737295162117481,0.43033261397182937
1740587850998400500,6.498400390625,-3.057502195264399,7.139089663869142,0.3012795330792665
1740587851008382200,6.50838232421875,-3.0474983953833576,7.4982473854213945,0.08415770811140537
1740587851018364400,6.518364501953125,-2.9651839770510793,7.830055327755212,-0.04587853859961032
1740587851028346400,6.528346435546875,-2.8241736241221425,8.241962058198451,-0.009113865303993225
1740587851038329300,6.538329345703125,-2.6523168820306657,8.696889599722624,0.06332067178785801
1740587851048311300,6.548311279296875,-2.517433195288479,9.121358874619007,0.038834465306997294
1740587851058293200,6.558293212890625,-2.521606097058952,9.353366134029626,-0.1256301207065582
1740587851068275500,6.568275390625,-2.5864792589858174,9.496624265885352,-0.2604173613369465
1740587851078257400,6.57825732421875,-2.7458865616098045,9.5808702368021,-0.49939329071640964
1740587851088240400,6.588240478515625,-2.8681457445785403,9.579876549589633,-0.6182984870821238
1740587851098222300,6.598222412109375,-2.8220871732369064,9.677375385311246,-0.4756757305204868
1740587851108204300,6.608204345703125,-2.564429632002115,10.043493593525886,0.002267360410094261
1740587851118186200,6.618186279296875,-2.260821948236227,10.613383731269836,0.5632400322049855
1740587851128168400,6.62816845703125,-2.164600585104525,11.016465350222587,0.7007645888447761
1740587851138151400,6.6381513671875,-2.245244147615135,11.038873581385612,0.40128246057629585
1740587851148133400,6.64813330078125,-2.3799606610968707,10.869806470012664,0.05537117408812046
1740587851158115300,6.658115234375,-2.497931206960976,10.690014551007748,-0.1959364135980606
1740587851168097300,6.66809716796875,-2.5444991891294717,10.23789154551029,-0.6517074202090501
1740587851178079500,6.67807958984375,-2.516839028787613,9.477615614032745,-1.072643260282278
1740587851188062500,6.6880625,-2.320062364973128,8.687968042120337,-1.1375766279637813
1740587851198044400,6.69804443359375,-1.994323513419926,8.086689663422106,-0.9427525595217943
1740587851208026400,6.7080263671875,-1.5359902551054954,7.534376098901033,-0.6171177528649568
1740587851218008300,6.71800830078125,-1.050537519197166,6.984547921454906,-0.26393033789396286
1740587851227990300,6.727990234375,-0.5622744020432233,6.553014114999771,0.03626256899237632
1740587851237973500,6.737973388671875,-0.14313392095416783,6.289288359767198,0.4015542632550001
1740587851247955200,6.747955078125,0.15347294413894413,6.256569162470102,0.8126473392277955
1740587851257937400,6.7579375,0.3021753128752112,6.29609277908504,1.177540389561653
1740587851267919400,6.76791943359375,0.34915918236821886,6.268465351969003,1.6011322971016169
1740587851277901300,6.7779013671875,0.40429479413479563,6.075747900417447,2.1350614791482685
1740587851287885300,6.78788525390625,0.4611605906948447,5.752431307575106,2.679310395157337
1740587851297867000,6.797866943359375,0.5224494643941522,5.318237342000008,3.2986610216408967
1740587851307849200,6.80784912109375,0.5595958304837346,4.738761629787088,3.609768121251464
1740587851317831000,6.817830810546875,0.4721741521403193,3.984154391595721,3.7070775718808173
1740587851327813000,6.827813232421875,0.30481632890328764,3.129612907229364,3.778943953695893
1740587851337796000,6.837796142578125,0.10996347275823354,2.234418802218139,3.7717683629781007
1740587851347778000,6.847778076171875,-0.05139014162793755,1.4399173605337738,3.699229780989885
1740587851357760300,6.85776025390625,-0.2194377006947994,0.7467144391149282,3.5560265941917892
1740587851367742000,6.867741943359375,-0.37566096645519137,0.13393632288947702,3.4351147341787813
1740587851377724200,6.87772412109375,-0.49435851141959425,-0.40913258955478665,3.3192753551244736
1740587851387707000,6.887706787109375,-0.5883186516210437,-0.841090612771362,3.205014185172319
1740587851397689000,6.897689208984375,-0.6283399886250496,-1.2250184723123907,3.1463182505756615
1740587851407671300,6.90767138671875,-0.6545594486393034,-1.5680729080647229,3.0725889974981544
1740587851417653000,6.917653076171875,-0.6977692064210772,-1.8073799690946935,3.0420050586640834
1740587851427635200,6.92763525390625,-0.7572118677318096,-2.024713390986621,3.1433319282412526
1740587851437618000,6.937617919921875,-0.8084286986194551,-2.217173068384826,3.197580820301175
1740587851447600000,6.94760009765625,-0.8263035241365432,-2.45685626925081,3.302289733532071
1740587851457582000,6.95758203125,-0.7214600247405469,-2.8347505477160215,3.3662381818294524
1740587851467564000,6.96756396484375,-0.48087110720649356,-3.2015769042000173,3.3284120167821643
1740587851477546200,6.977546142578125,-0.16153043225780128,-3.559327973824739,3.1907799081146715
1740587851487529000,6.987529052734375,0.20550605984553694,-3.931242301097512,3.2131255954355
1740587851497511200,6.99751123046875,0.5917311634782702,-4.289602734792232,3.1820477356046437
1740587851507493000,7.0074931640625,0.9699145610831678,-4.628113389635086,3.061151657682657
1740587851517475000,7.01747509765625,1.389227183868736,-4.97434499411881,2.950377745324373
1740587851527457000,7.02745703125,1.7994775254070758,-5.345346298199892,2.8593589192718265
1740587851537440000,7.03743994140625,2.218161202639341,-5.649454917225241,2.8224101215809583
1740587851547422200,7.047422119140625,2.7018951519310472,-5.8516118127733465,3.0010511169850824
1740587851557404200,7.057404052734375,3.1749498862981795,-5.899769402220845,3.348909445887804
1740587851567386000,7.06738623046875,3.616666064071655,-5.85654751560986,3.8542677824884652
1740587851577368000,7.0773681640625,3.9911435198307035,-5.76514348963201,4.267604253473878
1740587851587351000,7.08735107421875,4.210831395894289,-5.833230937430263,4.326239982315898
1740587851597333200,7.097333251953125,4.212203853291273,-5.992669804236293,4.32567650321424
1740587851607315000,7.10731494140625,3.999516211378574,-6.06212737134397,4.61602021625936
1740587851617297200,7.117297119140625,3.6946108890175817,-6.079664197078347,5.3432198075652115
1740587851627279000,7.127279052734375,3.3644191497087474,-6.126556296634674,6.320138256061076
1740587851637262000,7.137261962890625,3.1225474988877773,-6.188249659481644,7.461754514804482
1740587851647244300,7.147244384765625,3.0376199754476545,-6.139366093847155,8.692060864391923
1740587851657226000,7.15722607421875,2.868476876229048,-6.166024383670091,9.44685339602232
1740587851667208200,7.167208251953125,2.460401102250814,-6.446605996635556,9.563328734892606
1740587851677190100,7.177190185546875,2.0322294657051563,-6.871337721860408,9.198557265111804
1740587851687173000,7.187173095703125,1.6557061833322047,-7.1733964226186275,8.799757853522896
1740587851697155000,7.197155029296875,1.3304419635534286,-7.2801897409081455,8.460393212199211
1740587851707137000,7.207136962890625,1.0272736941181122,-7.326361124974489,8.196562827548384
1740587851717119200,7.217119140625,0.8796667924683541,-7.267450086322427,8.115473274835944
1740587851727101200,7.22710107421875,0.8997042759120464,-6.985501861178874,8.127156698367
1740587851737084200,7.237084228515625,0.968178677201271,-6.4724447867691515,8.104861864450573
1740587851747066000,7.247066162109375,1.0830255380868912,-5.796350528800487,7.957466486659645
1740587851757048000,7.257048095703125,1.209958996476978,-4.999762343969941,7.839622782045602
1740587851767030000,7.267030029296875,1.3220410688243807,-4.118220916736126,7.706263528391719
1740587851777012200,7.27701220703125,1.3679038253329694,-3.193056036353111,7.463475347247719
1740587851786995200,7.2869951171875,1.3124034719072282,-2.3411036916971204,7.226716509395837
1740587851796977200,7.29697705078125,1.1719253261588514,-1.64282799705863,6.879417567941546
1740587851806959000,7.306958984375,1.0624572357021271,-1.0227256754249334,6.4211588361680505
1740587851816941000,7.316941162109375,0.952376420174539,-0.4856444590881467,5.916837441399693
1740587851826923000,7.326923095703125,0.7264845749042927,0.005690612857043743,5.454896221721172
1740587851836906200,7.33690625,0.33526641222462056,0.4020698115617037,4.96509376617074
1740587851846888200,7.34688818359375,-0.19136793663874269,0.6693912531986832,4.359333858144283
1740587851856870100,7.3568701171875,-0.7841993895091116,0.7669131775349378,3.5473224787324664
1740587851866852000,7.36685205078125,-1.2987493328250943,0.7490864289432764,2.9242519549429415
1740587851876835000,7.3768349609375,-1.5228113323196768,0.7259536828979849,2.5315555364042517
1740587851886817300,7.3868173828125,-1.3392789116121828,0.7785632833182812,2.12713243971467
1740587851896799000,7.396799072265625,-1.060431428962946,0.8829502711184323,1.6729074935019015
1740587851906781200,7.40678125,-0.9337504840292036,1.0624348777398467,1.276506959748268
1740587851916763100,7.41676318359375,-0.8587987034194171,1.3641207996629179,1.0846996087789536
1740587851926746000,7.42674609375,-0.8300643379747867,1.7811247071146965,0.9596300445646047
1740587851936728000,7.43672802734375,-0.9242083103105425,2.2529626130379734,0.82436992572546
1740587851946710000,7.4467099609375,-1.0998968856498599,2.696765387827158,0.620138561990857
1740587851956692000,7.45669189453125,-1.2045955697476862,3.1068606849342584,0.3555342703580856
1740587851966674200,7.466674072265625,-1.1602397106707096,3.4746129240915176,0.08999649726748465
1740587851976657200,7.4766572265625,-1.1470827074557541,3.836102595722675,-0.16442366948127746
1740587851986639000,7.48663916015625,-1.2514303861588238,4.152797140076756,-0.2421118893176317
1740587851996621000,7.49662109375,-1.2877777108252049,4.53284099779129,-0.2292716969668865
1740587852006603000,7.50660302734375,-1.2654115652382374,4.911603583523631,-0.2191892788916826
1740587852016585200,7.516585205078125,-1.2766308783888816,5.302068297487497,-0.18407120375931263
1740587852026568200,7.526568115234375,-1.3800807314693926,5.7054176274657245,-0.18527239624261854
1740587852036550100,7.536550048828125,-1.605559173633158,6.11244418465197,-0.15270049846172332
1740587852046532000,7.546531982421875,-1.8388599799856542,6.539324612343311,-0.10677753619849681
1740587852056514000,7.55651416015625,-2.062094442614913,6.916268165954947,-0.07125204930901527
1740587852066496300,7.566496337890625,-2.2282614486321806,7.191720014816522,-0.14225100063979626
1740587852076479200,7.576479248046875,-2.232895538173616,7.399416424313187,-0.1863900020956993
1740587852086461200,7.586461181640625,-2.080943227730691,7.685014404135942,-0.1917056441605091
1740587852096443100,7.596443115234375,-1.9521730554327368,7.984946029737591,-0.14900515107512474
1740587852106425000,7.606425048828125,-1.9061109769597648,8.240877185571193,-0.17825638000071048
1740587852116408000,7.616407958984375,-1.9916691995188593,8.430193304246664,-0.3306470818608999
1740587852126390000,7.62639013671875,-2.0970327772662043,8.556183490437268,-0.4792962591052055
1740587852136372000,7.6363720703125,-2.245311952154338,8.677524974039196,-0.5616133077859878
1740587852146354200,7.646354248046875,-2.468812664504349,8.808412869143485,-0.5235083257973194
1740587852156336000,7.656336181640625,-2.6362618192866445,8.893625639265775,-0.40217911715507504
1740587852166319000,7.666319091796875,-2.5812957188680765,9.057298782640695,-0.16003157200217247
1740587852176301000,7.676301025390625,-2.3132941860124467,9.44879342417419,0.2060392899394035
1740587852186283000,7.686282958984375,-1.9862404524683952,9.841166017585993,0.45309564992189405
1740587852196265000,7.696264892578125,-1.7966823417305946,10.018130019688606,0.41773733629286286
1740587852206247200,7.7062470703125,-1.748141013662517,10.052727870339154,0.1534632995277643
1740587852216230100,7.716230224609375,-1.7484426269575952,9.990229620850085,-0.13301380121707915
1740587852226212000,7.726212158203125,-1.8418217524006961,9.758806883329152,-0.6054138710677623
1740587852236194000,7.736194091796875,-1.9981056623071431,9.280214388579129,-1.1724287456363438
1740587852246176000,7.746176025390625,-2.0286220888629556,8.55722627748847,-1.5034867463856934
1740587852256158200,7.756158203125,-1.8681176386520266,7.807410365226865,-1.339430156651139
1740587852266141200,7.76614111328125,-1.589818583665788,7.185301964467763,-0.9114794693797826
1740587852276123100,7.776123046875,-1.284966745057702,6.555535157909989,-0.5151420639902353
1740587852286104300,7.786104248046875,-0.9600386253654957,5.964116494446992,-0.1779635345339775
1740587852296086300,7.796086181640625,-0.5484674104869366,5.530857763895392,0.209095170378685
1740587852306068200,7.806068115234375,-0.1273825173318386,5.2966912806242705,0.6259767666250466
1740587852316051200,7.81605126953125,0.22780016310960052,5.237214424782991,1.0117898553907871
1740587852326033200,7.826033203125,0.5664964036524296,5.28451276705265,1.4431892218112945
1740587852336015000,7.83601513671875,0.8598701320432126,5.322680292883515,1.8355162225157022
1740587852345997300,7.845997314453125,1.0311331460252404,5.2391643898069855,2.2392285405874253
1740587852355980000,7.85597998046875,1.137866258560121,5.019612122821807,2.707654446110129
1740587852365962200,7.865962158203125,1.1565089997097848,4.585128234389424,3.089824794459343
1740587852375944200,7.875944091796875,0.9693176181033253,3.9067680773153897,3.1157723056644198
1740587852385927200,7.88592724609375,0.5206441685378551,3.110132546211779,2.936352727103233
1740587852395909400,7.895909423828125,0.07053747129887342,2.380948210829496,2.9511475606530904
1740587852405891000,7.90589111328125,-0.20072247883081434,1.768451103502512,3.0722166570544243
1740587852415873300,7.915873291015625,-0.3276350405633449,1.10508159481138,3.427546929273009
1740587852425855200,7.925855224609375,-0.3907121128536761,0.43853447899743914,3.5721143901616332
1740587852435838200,7.935838134765625,-0.4836100306510925,-0.16813246087133885,3.3545617725610732
1740587852445820400,7.9458203125,-0.45956543045789,-0.7345180976256728,3.095311116915941
1740587852455802000,7.955802001953125,-0.3308922887936234,-1.1462705142900347,2.807818117126822
1740587852465784300,7.965784423828125,-0.05353606761544943,-1.4621452666938304,2.315339720365405
1740587852475766300,7.975766357421875,2.0458993868783115,-1.6459133958533405,1.5495003095418214
1740587852485749200,7.985749267578125,3.28830387827754,-3.307107362946868,2.135254371371865
1740587852495731200,7.995731201171875,-1.4447835052654145,-2.789637148270011,0.2809568760186434
1740587852505713200,8.005713134765625,-0.08422332069352269,-1.7452216190844774,0.03639759354889393
1740587852515695400,8.0156953125,0.8577179224453866,-2.12867060906738,0.8000579067677259
1740587852525678000,8.025677978515626,1.321769850667566,-2.504830611085892,0.9059902243137359
1740587852535660300,8.035660400390626,0.3122409259460866,-2.819398957066238,0.44710897672772404
1740587852545642200,8.045642333984375,0.1447789116822183,-3.246156927421689,0.49048459259569643
1740587852555624200,8.055624267578125,0.2592833888709545,-3.3168875832051037,0.768846775946021
1740587852565606100,8.065606201171875,0.33081352446898815,-3.3256378758937117,1.216073241573572
1740587852575589000,8.075589111328124,0.5502408499002457,-3.546463231554627,1.5113146635323762
1740587852585571300,8.0855712890625,0.7075519108973443,-3.8743122071295972,1.425157306036353
1740587852595553300,8.09555322265625,0.7831729690708219,-4.141165154471993,1.363940328529477
1740587852605535200,8.10553515625,1.0028852489233016,-4.236751434570551,1.5676614046543835
1740587852615517200,8.11551708984375,1.2463549825906752,-4.195714490783215,2.07509888561666
1740587852625500200,8.125500244140625,1.4638590848743915,-4.209176614424586,2.757068757620454
1740587852635482400,8.135482421875,1.646199519318342,-4.262219637826085,3.5360499740898605
1740587852645464000,8.145464111328126,1.846784197113663,-4.302732850000262,4.236844373551011
1740587852655446300,8.1554462890625,1.906351507717371,-4.3788715023070575,5.0074137355059385
1740587852665429000,8.165428955078125,1.750194146800041,-4.513213921779394,5.6071524835467335
1740587852675411200,8.1754111328125,1.577982161530107,-4.864490534693003,5.992672142323851
1740587852685393400,8.185393310546875,1.5238926978155969,-5.232824080869555,6.4966118442982435
1740587852695375000,8.195375,1.588860260027647,-5.364603956377506,7.327474054652452
1740587852705357300,8.205357421875,1.6773288170754908,-5.323886161541939,8.394673662576078
1740587852715340000,8.215340087890626,1.7145511710107326,-5.364535567316413,9.428267353495954
1740587852725322200,8.225322265625,1.7327870849251745,-5.714277225747704,10.221727177172898
1740587852735304200,8.23530419921875,1.7943442541718482,-6.131015614131092,10.728065756982565
1740587852745286100,8.2452861328125,1.957105543398857,-6.468996107620001,11.111756446766853
1740587852755268400,8.255268310546874,2.056588830935955,-6.928425636738538,11.066976224797964
1740587852765250300,8.265250244140624,2.0630955824814734,-7.672083026370406,10.338092625927924
1740587852775233300,8.2752333984375,1.9789725072920321,-8.526816526177525,9.215221399664879
1740587852785215200,8.28521533203125,1.997339354109764,-9.158264417690038,8.193117655530571
1740587852795197200,8.295197265625,2.114811741193384,-9.236315625619888,7.622897847440838
1740587852805179100,8.30517919921875,2.260273666703701,-8.655002761107683,7.540776029071211
1740587852815162000,8.315162109375,2.4528888269245623,-7.641666260796785,7.575161698275804
1740587852825144300,8.325144287109374,2.582496034568548,-6.487528958654403,7.481110372659564
1740587852835126300,8.335126220703126,2.6867840920388697,-5.320331683930754,7.170579027110338
1740587852845108200,8.345108154296875,2.6820973955273626,-4.210377806907892,6.80559245327413
1740587852855090200,8.355090087890625,2.581489487874508,-3.2284698795616626,6.32442280151248
1740587852865073200,8.3650732421875,2.4432430467009545,-2.332584869676828,5.807063061472773
1740587852875055400,8.375055419921875,2.1577241234637796,-1.5764146199524403,5.249949987715483
1740587852885037000,8.385037109375,1.749582736903429,-0.9173971689909696,4.70553974366486
1740587852895019300,8.395019287109376,1.3284579501293599,-0.4352022658348083,4.229316900655627
1740587852905001200,8.405001220703125,1.006586368463561,-0.07074439204782247,3.7687434621989726
1740587852914984200,8.414984130859375,0.8400527941562235,0.16468056685179472,3.355013607981801
1740587852924966400,8.42496630859375,0.7844831748865544,0.29600188493728635,2.8561610000133513
1740587852934948000,8.434947998046875,1.2191267839252948,0.3947404915869236,2.2430945683658123
1740587852944930300,8.444930419921874,0.9698971715569495,0.5799143958911299,1.5597113224327563
1740587852954912300,8.454912353515626,0.4731273612119257,0.2676943666025996,1.306679395172
1740587852964895200,8.464895263671876,0.9150959063112735,0.530206362131238,0.9893769480526446
1740587852974877200,8.474877197265625,0.06829203045964241,1.0912737264722585,1.0426590409070253
1740587852984859100,8.484859130859375,-0.19436404971480367,1.3866148094132542,0.9848170927911997
1740587852994841300,8.49484130859375,-0.7794367051519453,1.72489267841354,0.7960381497323512
1740587853004824000,8.504823974609375,-1.2455905740894377,2.04263892377764,0.6618804391771554
1740587853014806300,8.51480615234375,-1.5413152495205402,2.358516598790884,0.6089192488402128
1740587853024788200,8.524788330078126,-1.7381845600545405,2.737566184771061,0.5223603248059749
1740587853034770200,8.534770263671875,-1.8691794226646423,3.069115768429637,0.5199070864349603
1740587853044752100,8.544752197265625,-1.9691829346835612,3.483180845950544,0.5615367354184388
1740587853054735000,8.554735107421875,-2.071106308849156,3.84729297503978,0.4303051414430141
1740587853064717300,8.56471728515625,-2.0564950151726604,4.100352082568407,0.17663374723494052
1740587853074699300,8.57469921875,-1.9092434297665952,4.43895626091361,-0.0342202495098114
1740587853084681200,8.58468115234375,-1.8095207805156708,4.903773912811279,-0.15671674836575983
1740587853094664400,8.59466455078125,-1.8221756794273851,5.386684855282306,-0.18547697890400885
1740587853104646100,8.604646240234375,-1.9377581611111758,5.843993154463171,-0.21808628608584402
1740587853114628400,8.61462841796875,-2.1172174871608616,6.216564484339952,-0.24250702611505984
1740587853124610300,8.6246103515625,-2.307967145770788,6.613036329764127,-0.20698855348825454
1740587853134592300,8.63459228515625,-2.441979018114507,7.032346614462137,-0.08901040883958339
1740587853144575200,8.6445751953125,-2.492632808291912,7.4217194415360686,0.05599836607575416
1740587853154557200,8.65455712890625,-2.4849650501430034,7.735075196856259,0.11699088717699051
1740587853164539400,8.664539306640625,-2.4358590739294885,8.011309720528125,0.11100772111415863
1740587853174521000,8.67452099609375,-2.442830958768725,8.159375544926524,0.007579495343565941
1740587853184503300,8.68450341796875,-2.5442192031443116,8.224876483362912,0.01063245317339897
1740587853194486000,8.694486083984375,-2.652495453467965,8.30401256392002,0.1446095464646816
1740587853204468200,8.70446826171875,-2.7806726283088326,8.367226268202065,0.3998024511516094
1740587853214450200,8.7144501953125,-2.8661586624145508,8.397633681425452,0.5950970597147941
1740587853224432000,8.72443212890625,-2.776008728151023,8.575163500717283,0.9936989029049873
1740587853234415400,8.734415283203125,-2.5158698914945123,9.016481619083882,1.5346107834458351
1740587853244397000,8.74439697265625,-2.1563526889801024,9.41387584004998,1.5785364344120025
1740587853254379300,8.754379150390625,-1.931625649705529,9.499019052067398,1.2022159811347721
1740587853264361200,8.764361328125,-1.8956299149557947,9.423126483476162,0.6831868465781211
1740587853274343200,8.77434326171875,-1.9125185059145091,9.359414766544104,0.2530389415234327
1740587853284326400,8.784326416015626,-1.9313576464191078,9.310193347257375,-0.059713002684712406
1740587853294309400,8.794309326171875,-1.9412027486070988,8.994844372293352,-0.5047539409667253
1740587853304291300,8.804291259765625,-1.9769573680773376,8.350168750417232,-1.0625228482842444
1740587853314273300,8.814273193359375,-1.9535633407473563,7.5880387155056,-1.3888479752928018
1740587853324256300,8.82425634765625,-1.8646382721036672,6.918938846468925,-1.4054536576569079
1740587853334238200,8.83423828125,-1.6762985972449183,6.335769540435075,-1.3579483946383
1740587853344220200,8.84422021484375,-1.3203352878198027,5.834562478294968,-1.062208375507593
1740587853354202400,8.854202392578125,-0.8763387440241873,5.57282351296544,-0.5631260504364967
1740587853364184300,8.864184326171875,-0.40587928684726354,5.515086778789758,-0.18064532096385955
1740587853374167300,8.874167236328125,0.0319479206636548,5.530404759430885,-0.004890110129117965
1740587853384149200,8.884149169921875,0.3352044529043138,5.474447894409298,0.007997428494691849
1740587853394131200,8.894131103515624,0.5677718304157257,5.389719692933559,0.006996727019548415
1740587853404113400,8.904113525390626,0.746528268893063,5.323554153108597,0.042059272572398186
1740587853414095000,8.91409521484375,0.9090601332783699,5.19855473152101,0.24404373416304587
1740587853424078300,8.924078369140625,1.0002605995081364,5.017469850096107,0.5979074409604073
1740587853434060300,8.934060302734375,0.9802914320603012,4.625810665650666,0.959062473809719
1740587853444042200,8.944042236328125,0.7154153377488255,3.9291409449040886,0.8436842825263738
1740587853454024200,8.954024169921874,0.3204875068962574,3.1034625669285654,0.5597299782574177
1740587853464007400,8.96400732421875,0.08592340260967611,2.4930916579753157,0.5843897877395152
1740587853473989400,8.9739892578125,-0.057335752159357066,1.9497671633347868,0.4841273325234651
1740587853483971300,8.983971435546875,-0.13594459397196768,1.4175477078154681,0.2599707866132259
1740587853493953300,8.993953369140625,-0.18903817851692437,1.0338055070396512,0.08909399546980858
1740587853503935200,9.003935302734375,-0.28123350100293754,0.8167081589259206,0.10923019004762172
1740587853513918200,9.013918212890625,-0.3737337977848947,0.6429923449642956,0.29328327362835405
1740587853523900200,9.023900146484374,-0.37960605081915855,0.48142815656736493,0.27429917169511314
1740587853533882400,9.03388232421875,-0.386698785559088,0.3274665521286428,0.06599018325805664
1740587853543864300,9.0438642578125,-0.43920419495254753,0.15867708865329622,-0.1165770456790924
1740587853553847300,9.053847412109375,-0.46254751500859853,-0.0804132608860731,-0.14648235459923745
1740587853563829200,9.063829345703125,-0.48482700522542,-0.3113388625398278,-0.015398060140013693
1740587853573811200,9.073811279296875,-0.43502559409365055,-0.5297954432427883,0.10800386312305926
1740587853583793200,9.083793212890624,-0.479780243229866,-0.6820239402785897,0.3374813117951154
1740587853593775400,9.093775390625,-0.7221091362990438,-0.9229004425823688,0.49075931788384913
1740587853603758300,9.10375830078125,-0.8956547082602977,-1.2968772553429007,0.8083984496116637
1740587853613740300,9.113740234375,-0.7165687455676496,-1.7500696436375378,1.4786697005152702
1740587853623722200,9.12372216796875,-0.370409256472066,-2.2766923020631076,2.3298779488056898
1740587853633704200,9.1337041015625,0.06176401693038642,-2.8550264430254697,3.2203368419885634
1740587853643687200,9.143687255859374,0.5785352895576507,-3.4168040014624594,3.9411540387809274
1740587853653669400,9.15366943359375,1.0713643263876438,-3.9311277348071334,4.343639445406199
1740587853663651300,9.1636513671875,1.4705717342555522,-4.292716482898593,4.7367333388298745
1740587853673633300,9.17363330078125,1.735235062599182,-4.42133351046145,5.276557424134015
1740587853683615200,9.183615234375,1.956448394664377,-4.332160020014643,5.869290677326918
1740587853693598200,9.19359814453125,2.0505098032832145,-4.3394449163258075,6.5146536969453095
1740587853703580400,9.203580322265625,1.93001996807456,-4.417787216156721,7.178641922056674
1740587853713562400,9.213562255859374,1.7612638223469257,-4.61460216615498,7.825909898513555
1740587853723544300,9.22354443359375,1.6138205137610435,-4.966199681586027,8.350706510555744
1740587853733527300,9.23352734375,1.4233306751310824,-5.426266339564323,8.781917660927771
1740587853743509200,9.24350927734375,1.536450712224096,-6.056984163236618,9.449460948172211
1740587853753491200,9.2534912109375,1.9359762461304664,-6.453562976166606,10.2121772585392
1740587853763473200,9.26347314453125,2.574119835889339,-6.524146332433819,11.022476573336125
1740587853773455400,9.273455322265624,3.0275895798206327,-6.531171701025962,11.509965491247176
1740587853783438000,9.28343798828125,3.181664873766899,-6.56336658218801,11.3820580732584
1740587853793420300,9.293420166015625,3.115319301199913,-6.636734016215801,10.972248607355356
1740587853803402200,9.30340234375,2.931536266732216,-6.663571169736981,10.414383253926038
1740587853813384200,9.31338427734375,2.5455121655642983,-6.661220222696661,9.632681672582029
1740587853823367400,9.323367431640625,2.128257059830427,-6.801999397218227,8.584760765624045
1740587853833349000,9.33334912109375,1.7970704642653463,-7.107324406296015,7.489580094841122
1740587853843331300,9.343331298828126,1.5850994461894035,-7.312697925803064,6.538890312579274
1740587853853313300,9.353313232421876,1.4234557628154754,-7.209270869076252,5.950172724768519
1740587853863295200,9.363295166015625,1.4023054227590561,-6.698706780526042,5.940305995270609
1740587853873278500,9.373278564453125,1.4597323603332042,-5.882216794395447,6.300190277531743
1740587853883260200,9.38326025390625,1.485874517327547,-4.977803610140085,6.623403409999608
1740587853893242400,9.393242431640624,1.3352046479105948,-4.168167143166065,6.619436844456195
1740587853903224300,9.403224365234376,1.1498960113108156,-3.4361528450548646,6.375722196117043
1740587853913207300,9.413207275390626,1.0015059233941137,-2.7182150030910965,6.142966748687624
1740587853923189200,9.423189208984375,0.8317572594977914,-2.00247554795444,5.803157286205887
1740587853933171200,9.433171142578125,0.5648538971424103,-1.4095727834135292,5.407979572245479
1740587853943153400,9.4431533203125,0.2322784775674343,-0.9309972397983074,5.016336462152004
1740587853953135400,9.45313525390625,-0.21414748533219097,-0.6310352190583944,4.6337131093382835
1740587853963118300,9.463118408203124,-0.6231177239321172,-0.45219431716799735,4.30896560690999
1740587853973100300,9.473100341796876,-0.9293323753260075,-0.3102121965974569,3.9395875201165675
1740587853983082200,9.483082275390625,-1.1802571011744438,-0.21565935119986532,3.5680759284257886
1740587853993064200,9.493064208984375,-1.3336369602024554,-0.07925006232559681,3.279185336798429
1740587854003047200,9.503047119140625,-1.356844963441044,0.10203531010746955,3.0398686311572787
1740587854013029400,9.513029296875,-1.3215819268800317,0.20607494577467442,2.7064608524113893
1740587854023011300,9.52301123046875,-1.1545455906823276,0.23509382724910974,2.2079718170583247
1740587854032993300,9.5329931640625,-0.9519244386233389,0.27293139047324655,1.7459189536988735
1740587854042975200,9.542975341796875,-0.8271465508319437,0.46823739721328017,1.4495517425805329
1740587854052958200,9.552958251953125,-0.716262894488871,0.8204825628980994,1.3416168530404566
1740587854062940400,9.5629404296875,-0.7731611320137978,1.2358235055737197,1.009037341812253
1740587854072922000,9.572922119140625,-0.9059598291754722,1.6405786106966436,0.6327548824578523
1740587854082904300,9.582904296875,-1.0623097900554537,2.1393381335541606,0.4902051911324262
1740587854092887000,9.592886962890624,-1.3012027173265814,2.675992941172421,0.4707487955123186
1740587854102869200,9.602869140625,-1.6059272762931882,3.1958225784569976,0.4148123887568712
1740587854112851500,9.6128515625,-1.8832139393664895,3.705559860794246,0.314068872025609
1740587854122833200,9.622833251953125,-2.0828627976164222,4.141156386643648,0.1742822156727314
1740587854132815400,9.6328154296875,-2.1982629084706304,4.647413133388757,-0.033387890338897705
1740587854142798000,9.642798095703125,-2.308726147444546,5.121128377491235,-0.23275603195130823
1740587854152780300,9.6527802734375,-2.457259881615639,5.574937144118547,-0.4135889844417572
1740587854162762200,9.66276220703125,-2.615280698317289,5.980336392363905,-0.5923351937860251
1740587854172744200,9.672744140625,-2.718782866106927,6.325775969687104,-0.731074971434474
1740587854182727400,9.6827275390625,-2.779746161113679,6.685956604546308,-0.8039894009977578
1740587854192709000,9.692709228515625,-2.7855481253907084,7.1160770370721815,-0.7096294478237628
1740587854202691300,9.70269140625,-2.693303849196434,7.613491721192002,-0.5289449638932943
1740587854212673300,9.71267333984375,-2.590728733123839,8.11708480168581,-0.37785014706254005
1740587854222655200,9.7226552734375,-2.5303511290505525,8.443221128123998,-0.35295243717133995
1740587854232638500,9.732638427734376,-2.4927637411952017,8.6058468082726,-0.4769166704922914
1740587854242620200,9.7426201171875,-2.4973893551692363,8.668477159708738,-0.6518816077321767
1740587854252602400,9.752602294921875,-2.5686861204028126,8.68658330976367,-0.9157441410869359
1740587854262584300,9.762584228515625,-2.654239374525845,8.66759920783043,-1.1494359925836324
1740587854272567300,9.7725673828125,-2.5626217057973144,8.846534217745065,-1.0389666161298752
1740587854282549500,9.782549560546874,-2.2624413661316036,9.369595968818665,-0.501360206875205
1740587854292530400,9.792530517578125,-1.8222817701503633,10.095740498113631,0.21548867080807685
1740587854302512600,9.8025126953125,-1.5632859660491347,10.60647818966508,0.4751169275939464
1740587854312495600,9.81249560546875,-1.5573863866165278,10.659005664759874,0.1924251906067133
1740587854322477600,9.8224775390625,-1.567590823636204,10.630967318755388,0.07257599138915538
1740587854332459800,9.832459716796874,-1.7063282631970942,10.575340708601475,-0.036866380104422565
1740587854342441500,9.84244140625,-1.9823998513922094,10.133856001496314,-0.4942366386055946
1740587854352423700,9.852423583984375,-2.3315850449845192,9.404996368023752,-0.9432190079897642
1740587854362406400,9.862406494140625,-2.750690162499249,8.56274708673656,-1.23608902464211
1740587854372388600,9.872388671875,-2.9571038387089965,7.623114705061912,-1.135094748020172
1740587854382370800,9.882370849609375,-2.9350410599827765,6.742859810507297,-0.7496066534250975
1740587854392352500,9.8923525390625,-2.640103589406609,5.955297228175401,-0.4145470158189535
1740587854402335700,9.902335693359374,-1.9311226686194538,5.47399722803235,0.028635142853856085
1740587854412317400,9.9123173828125,-0.9665572134792804,5.336493129658699,0.7133774021804332
1740587854422299600,9.922299560546875,-0.1778583205938339,5.4298050350844855,1.3788538200229405
1740587854432281600,9.932281494140625,0.28040362605005503,5.472752196407318,1.6217898852050303
1740587854442263600,9.942263671875,0.5862894838809967,5.377289250427484,1.581344477570057
1740587854452246800,9.952246826171875,0.7179413490951061,5.24122716755569,1.4617571441590784
1740587854462228500,9.962228515625,0.7156557954411953,4.9955964564621445,1.3473837460041045
1740587854472210700,9.972210693359376,0.6697967652596533,4.395923467133939,1.375376499301195
1740587854482192600,9.982192626953125,0.8176340415991842,3.5504853266775607,1.5015221683144568
1740587854492175600,9.992175537109375,1.1217257094897328,2.644982885880768,1.4809277085751293
1740587854502157600,10.002157470703125,1.5098234020613133,1.6349007111907004,1.3630366576880215
1740587854512139500,10.012139404296875,1.8223112885057926,0.7995233614996076,1.1509317840993403
1740587854522121700,10.022121826171874,1.917453916490078,0.2003913471803069,0.8617518541365862
1740587854532103400,10.032103515625,1.7389479456424712,-0.2171754548512399,0.414337172460556
1740587854542086700,10.042086669921876,1.4788671227835117,-0.45726825943142174,0.10184241788387298
1740587854552068600,10.052068603515625,1.2824796044170856,-0.5526455729544163,0.07011281614601611
1740587854562050600,10.062050537109375,1.1192343310654163,-0.5339236290886998,0.1182937864691019
1740587854572032800,10.07203271484375,0.9049195263423025,-0.5409025281906128,0.0966916109919548
1740587854582015500,10.082015380859374,0.6880628551166504,-0.6895721637010573,0.051985038781166074
1740587854591997700,10.091997802734374,0.5068669875979424,-0.8698162103876471,0.09107494015395641
1740587854601979400,10.1019794921875,0.34578210715055463,-1.0067577064424753,0.24482407088577746
1740587854611961600,10.111961669921875,0.20973478345647453,-1.2453773697301744,0.39080373665988444
1740587854621944600,10.121944580078125,0.1147907467842102,-1.5091116005301475,0.552718638190627
1740587854631926500,10.131926513671875,0.0282625832144171,-1.7782357076749205,0.7427619020968675
1740587854641908700,10.14190869140625,0.005164762352034449,-2.158070891074836,0.8778963487297295
1740587854651890400,10.151890380859374,-0.0838953308481723,-2.533558108398318,1.0943214236050844
1740587854661872600,10.16187255859375,-0.1440903448961675,-2.911052281630039,1.5079378805756567
1740587854671855600,10.171855712890626,-0.11913710542544721,-3.344532253716886,1.8367179995208978
1740587854681837600,10.181837646484375,0.004365209472179413,-3.7563968985840677,2.1280027928084135
1740587854691819800,10.19181982421875,0.11685644714236258,-3.948185837113857,2.636842541784048
1740587854701801500,10.201801513671874,0.1256887190259993,-4.102162931382656,3.0183570565730333
1740587854711784700,10.21178466796875,0.12020824178829788,-4.277748046347499,3.3372558329731223
1740587854721766700,10.2217666015625,0.20164719246029852,-4.344789784485101,3.7387498904734846
1740587854731748600,10.23174853515625,0.3525191603206098,-4.317928081044554,4.290173228156567
1740587854741730800,10.241730712890625,0.41161563854217526,-4.4480695416957134,4.706856671482324
1740587854751713500,10.251713623046875,0.3519733630061149,-4.642501395949721,5.087116802296042
1740587854761695700,10.26169580078125,0.29059505745768544,-4.832535307505727,5.5538569466888905
1740587854771677400,10.271677490234374,0.20473098381981253,-5.0397494864434,6.0903293834775685
1740587854781659600,10.28165966796875,0.07469692906588316,-5.327732900097966,6.5967679165303705
1740587854791641600,10.2916416015625,0.04815861236080527,-5.761159972953796,7.089954169300198
1740587854801624600,10.30162451171875,0.22143208938241005,-6.186465114152431,7.559890479385852
1740587854811606500,10.3116064453125,0.4936087159655988,-6.37113895998001,8.260331827625631
1740587854821588500,10.32158837890625,0.7883459877945482,-6.162077107349038,9.3779593080163
1740587854831570700,10.33157080078125,0.9014823915004729,-5.930778288468718,10.219867228519917
1740587854841553700,10.3415537109375,0.9012836540579795,-5.951535829815268,10.40876482952237
1740587854851535600,10.35153564453125,0.884923909278959,-5.9767094340384,10.28185109874606
1740587854861517600,10.361517578125,0.8161376655615866,-6.004965806707739,9.874445186853409
1740587854871499500,10.37149951171875,0.6224561912834644,-6.1505865760415785,8.950241844978928
1740587854881481700,10.381481689453125,0.2932723138429224,-6.6032485107213255,7.525555663585663
1740587854891464700,10.391464599609375,0.02068506063222885,-7.144462589079141,6.23863018567562
1740587854901446700,10.40144677734375,0.13437471430674194,-7.26186673323214,5.6692076654434205
1740587854911428600,10.4114287109375,0.5111996099747718,-6.773674050965905,5.936134847065806
1740587854921410600,10.42141064453125,0.8778292748428881,-5.7809355175256725,6.624084378001093
1740587854931393500,10.4313935546875,1.0510779096841811,-4.692153607869148,7.080518232434987
1740587854941375500,10.44137548828125,1.0967993580259383,-3.768285197037458,7.17296270737648
1740587854951357700,10.451357666015625,1.0570040848627686,-2.9541502496004104,7.071866139423847
1740587854961339600,10.461339599609374,0.9951124229647219,-2.1487714400708673,6.973081940066814
1740587854971322600,10.471322509765624,0.877918998952955,-1.4613561621427535,6.711864952784777
1740587854981304600,10.4813046875,0.703287239190191,-0.9376572822093963,6.316665611514448
1740587854991286500,10.49128662109375,0.5234722315706313,-0.5902475738570093,5.8091024583458895
1740587855001268700,10.501268798828125,0.4007164972566068,-0.44446927587389945,5.034292390081286
1740587855011251700,10.511251708984375,0.2482321257635951,-0.4062731084704399,4.234922465577721
1740587855021233700,10.521233642578125,0.11490882020592688,-0.3539814879581332,3.5795997774809596
1740587855031215600,10.531215576171874,-0.07977204037308692,-0.22327567142248153,3.003831103092432
1740587855041197600,10.541197509765626,-0.24873642202392218,0.05970189676880836,2.6324106968164442
1740587855051179500,10.551179443359375,-0.46744916944503784,0.429074430604279,2.3950644144654274
1740587855061162800,10.561162841796875,-0.6645875061787665,0.8576561092555522,2.281334574910998
1740587855071144700,10.571144775390625,-0.8067125423513353,1.3239239599615336,2.1673428695499894
1740587855081126700,10.581126708984375,-0.9219814280413091,1.777053366022557,1.9674737926781176
1740587855091108600,10.591108642578124,-0.8931447712659836,2.171014982191473,1.5657687227755783
1740587855101091600,10.601091552734376,-0.7913290952585638,2.4800766935795546,0.9979027843356132
1740587855111073500,10.611073486328126,-0.7832511488735675,2.8286919783294198,0.5103022227436304
1740587855121055500,10.621055419921875,-0.8479064302660524,3.2724674267202616,0.2068453456252813
1740587855131037700,10.63103759765625,-1.0265069475293158,3.7041245672941208,-0.021706220373511314
1740587855141020400,10.6410205078125,-1.1976399053908884,4.118028024512529,-0.20013152720034122
1740587855151002600,10.651002685546874,-1.2729147804751992,4.570576269684731,-0.27365853570401666
1740587855160984600,10.660984619140624,-1.3096741930738092,5.089168474128842,-0.22189444619715212
1740587855170966500,10.670966552734376,-1.2848936798214912,5.58638325176239,-0.20776889021098613
1740587855180948500,10.680948486328125,-1.311072953955829,6.100067518159746,-0.2764022814542055
1740587855190931500,10.690931396484375,-1.404748724257946,6.593668196949363,-0.4035322853296995
1740587855200913700,10.70091357421875,-1.5194842337235808,7.03813981091082,-0.6157219145923852
1740587855210895600,10.7108955078125,-1.6443895472869277,7.391250653514265,-0.8898860617309808
1740587855220877600,10.720877685546874,-1.7719117653504013,7.644374935233593,-1.0959253516703844
1740587855230860800,10.73086083984375,-1.8466916965246198,7.803316958433389,-1.2742284934222698
1740587855240842500,10.740842529296875,-1.8517863893151283,7.887881493780016,-1.4302613511770963
1740587855250824700,10.75082470703125,-1.7235868565119803,7.993184281250834,-1.5312141267448662
1740587855260806700,10.760806640625,-1.4630863469362259,8.16894884443581,-1.5244062002956866
1740587855270789600,10.77078955078125,-1.25840344004184,8.397965105336905,-1.5238801305949687
1740587855280771600,10.780771484375,-1.1896727259039879,8.618077344292402,-1.5898936947286129
1740587855290753800,10.79075390625,-1.1981542846538127,8.79025761924982,-1.6787100423008203
1740587855300735700,10.80073583984375,-1.2070717506028712,8.974769552513957,-1.7051017901420593
1740587855310718700,10.81071875,-1.23736167492643,9.16680428249836,-1.73725341668427
1740587855320700700,10.82070068359375,-1.3126198911368847,9.222354904806613,-1.8674159201234577
1740587855330683000,10.830682861328125,-1.3392908943109214,9.268101925981044,-1.819184680917859
1740587855340664600,10.84066455078125,-1.215799393068254,9.586347206908464,-1.412749659883976
1740587855350646800,10.850646728515626,-0.9201406224802136,9.957281290972233,-0.9630582654476165
1740587855360629800,10.860629638671876,-0.6066251465536654,10.136778610944747,-0.8266869704961777
1740587855370611700,10.87061181640625,-0.36330139722824095,10.261122783493995,-0.7433645441651344
1740587855380593700,10.88059375,-0.1488692497357726,10.42040499843359,-0.6692775636911392
1740587855390575600,10.89057568359375,-0.1774456481397152,10.232622665196656,-0.9421908339858055
1740587855400558600,10.90055859375,-0.43175957803502674,9.60442588443458,-1.4951415273666382
1740587855410540800,10.910540771484374,-0.7652792927227914,8.619204302495717,-1.9387170692712068
1740587855420522800,10.920522705078126,-0.9950992712222039,7.631507270354032,-1.7687059550464153
1740587855430504700,10.930504638671875,-1.0974445240616797,6.799307089394331,-1.3221160337567328
1740587855440487700,10.94048779296875,-1.0591009110115468,6.049920216199755,-0.596100683799386
1740587855450469600,10.9504697265625,-0.8907144753791392,5.515017805206775,0.17806933299601077
1740587855460451800,10.960451904296875,-0.5874992980621755,5.29234536037445,1.0854366908818482
1740587855470433800,10.970433837890624,-0.2641841665245592,5.283558242806792,1.9396704244732856
1740587855480416800,10.980416748046874,0.046327889802306885,5.324589925897121,2.567792386433482
1740587855490398700,10.990398681640626,0.2650152105212211,5.390991612565517,2.8493144951194522
1740587855500380700,11.000380615234375,0.370417220582813,5.42368099924624,2.795423914977908
1740587855510362600,11.010362548828125,0.38323330140560863,5.317876691994071,2.781386621797085
1740587855520344800,11.0203447265625,0.3454780096374452,5.041473826017976,2.8965958862543104
1740587855530327800,11.030327880859375,0.2930721150957048,4.5603962364539505,3.037248219525814
1740587855540309800,11.040309814453124,0.17157690223678945,3.8299063714310524,3.188262956857681
1740587855550291700,11.050291748046876,-0.06489727345481515,2.8668565815508362,3.0627403881788253
1740587855560273700,11.060273681640625,-0.32041414939910173,1.8987091762706636,2.963639962479472
1740587855570256600,11.070256591796875,-0.5143099970802665,1.0861622286774217,2.8798300448924303
1740587855580238800,11.08023876953125,-0.6305401290178299,0.41039837170690296,2.813150710326433
1740587855590220800,11.090220703125,-0.7139350360631942,-0.2492811964251101,2.7454987313359975
1740587855600202800,11.10020263671875,-0.7966188722297549,-0.8255161731511353,2.712162278923392
1740587855610185700,11.110185791015626,-0.835742675872147,-1.2396145684197544,2.7882576766103506
1740587855620167700,11.120167724609376,-0.7470049464941024,-1.5485215276375413,2.8608979654073714
1740587855630150000,11.13014990234375,-0.6578722264491021,-1.8500366230383514,2.7286095558553933
1740587855640131600,11.140131591796875,-0.5412345366239547,-2.1125418965652583,2.3844354684233666
1740587855650114800,11.15011474609375,-0.28265476597771044,-2.3057179055392742,2.057278566765785
1740587855660096800,11.1600966796875,-0.008592471778392792,-2.534093530449271,1.7465771253466604
1740587855670078700,11.17007861328125,0.23151845298036933,-2.9007284560143947,1.5166472567319869
1740587855680060700,11.180060791015626,0.47972193717136974,-3.208039670473337,1.4568892458617686
1740587855690042600,11.190042724609375,0.7131320491172373,-3.4520603160217402,1.466745453965664
1740587855700025900,11.20002587890625,0.8283608950577676,-3.7508635221153495,1.5165361975729466
1740587855710007600,11.210007568359375,0.8738179933749138,-4.001038890901207,1.7317758620560169
1740587855719989800,11.21998974609375,0.886951031192392,-4.227929830211401,1.981259156924486
1740587855729971700,11.2299716796875,0.8057096489191055,-4.538366483214498,2.143660380667448
1740587855739954700,11.23995458984375,0.7867676325619221,-4.84060287862718,2.460456047308445
1740587855749937000,11.24993701171875,0.8378780804656446,-5.051402514836192,2.919873885989189
1740587855759918600,11.259918701171875,0.960022112622112,-5.290491841462254,3.178579767233133
1740587855769900800,11.26990087890625,1.0091324727497994,-5.503593324872851,3.368877298161387
1740587855779883500,11.279883544921875,0.9924560632370412,-5.528103496751189,3.659413903430104
1740587855789865700,11.28986572265625,0.8391980770230293,-5.373650601664186,4.054157317626476
1740587855799848000,11.299847900390626,0.6043475570105016,-5.209404626837372,4.587470998123288
1740587855809829600,11.30982958984375,0.4614170496739447,-5.1842123179137705,5.341520017910003
1740587855819812900,11.319812744140625,0.553269988463074,-5.194831911605596,6.07908025971055
1740587855829794600,11.329794677734375,0.582700519478321,-5.290885224694013,6.667692049059271
1740587855839776800,11.33977685546875,0.4001391357600689,-5.520666040226817,6.8951429603397845
1740587855849758700,11.3497587890625,0.10650324930176139,-5.858721937039494,6.919449134078621
1740587855859741700,11.35974169921875,-0.07973696905970573,-6.002866788601875,7.273996146965026
1740587855869724000,11.369723876953126,-0.15368030327931045,-5.8516983220130205,8.016282248243689
1740587855879705600,11.37970556640625,-0.28859584646448494,-5.7461441901296375,8.66960937860906
1740587855889687800,11.389687744140625,-0.30091318398490546,-5.959174946391582,8.933542639112472
1740587855899669800,11.399669677734375,-0.053335284346342084,-6.307820041757822,8.926593842887877
1740587855909652700,11.40965283203125,0.3134919489204883,-6.462073614880442,8.89747646947503
1740587855919635000,11.419635009765624,0.5189465708397328,-6.425051751953363,8.7814003590554
1740587855929616600,11.42961669921875,0.504961446237564,-6.560353371846675,8.358139290904997
1740587855939598800,11.439598876953125,0.30648718472495673,-7.007142615100741,7.539056365671754
1740587855949581600,11.44958154296875,0.10894903501868247,-7.530394335788488,6.777882608571648
1740587855959563800,11.459563720703125,0.0746142192184925,-7.667420295256376,6.594570698747038
1740587855969545700,11.469545654296875,0.20638518076762555,-7.198832477170228,7.063725503066181
1740587855979527700,11.479527587890624,0.450161203905195,-6.269654269492626,7.733903230467439
1740587855989510700,11.4895107421875,0.5972049917794764,-5.143111076718569,8.052278275254368
1740587855999492600,11.49949267578125,0.6756454912878572,-4.089214017960429,7.991828190466761
1740587856009474800,11.509474853515625,0.8335923659704625,-3.082925098073482,7.770208469557762
1740587856019456500,11.51945654296875,1.022878381768614,-2.140014133119583,7.566794267424941
1740587856029439700,11.529439697265625,1.2807600871481,-1.3163830430626868,7.206459903308748
1740587856039421700,11.539421630859374,1.5098013363599776,-0.6684580640017986,6.692539490067959
1740587856049403600,11.549403564453126,1.3365607386946676,-0.18171733410954474,5.895087381884455
1740587856059385900,11.5593857421875,0.9660800974868238,0.2251049326762557,5.130805721896887
1740587856069368800,11.569368896484375,0.38819370029196143,0.5513365361824631,4.505393603417277
1740587856079350800,11.579350830078125,-0.2336826452769339,0.8926791995808482,4.076647381854057
1740587856089332700,11.589332763671875,-0.7029388641439378,1.1760741164013744,3.9550831954121586
1740587856099314700,11.599314697265624,-0.8419478141225873,1.4754597985580562,3.8261329903721806
1740587856109297000,11.609296875,-0.799100021521002,1.6115166207328437,3.445376600474119
1740587856119279600,11.619279541015626,-0.5776316917814314,1.708068384862691,2.978373421230912
1740587856129261800,11.62926171875,-0.36760201703161,2.0366551731929183,2.658732302030921
1740587856139243800,11.639243896484375,-0.353626537040621,2.549082425266504,2.3130016328066585
1740587856149225700,11.649225830078125,-0.45592444360703227,3.0131270469650624,1.8442869734704492
1740587856159208700,11.659208740234375,-0.5015894855864346,3.376245781102776,1.360217508614063
1740587856169190700,11.669190673828124,-0.5499066495098174,3.777422735477984,0.9933183791548013
1740587856179172900,11.6791728515625,-0.7335165193676948,4.14713896818459,0.7645698292791843
1740587856189154600,11.689154541015625,-0.8835258790493011,4.517970468656719,0.6491629964232445
1740587856199137800,11.6991376953125,-1.045125138759613,4.886593353168666,0.49270519125461576
1740587856209119700,11.70911962890625,-1.1913488424226641,5.319648377841711,0.3801210146039724
1740587856219101700,11.719101806640625,-1.3488792452588676,5.7917900890171525,0.23973931496739387
1740587856229084000,11.729083984375,-1.5559179214991627,6.233296423432231,0.10519289735555648
1740587856239067000,11.73906689453125,-1.7700187912106513,6.676919311609864,-0.021630232527852056
1740587856249048800,11.749048828125,-1.9785355771794915,7.121291556850076,-0.1354512574970722
1740587856259030800,11.75903076171875,-2.1617409578897058,7.530206704261898,-0.28392332460880276
1740587856269012700,11.7690126953125,-2.268300613553822,7.8857707852363585,-0.48339843372702596
1740587856278995700,11.77899560546875,-2.3328597410954535,8.189887003046273,-0.6755243491262197
1740587856288977700,11.788977783203125,-2.393794540660083,8.474032445973158,-0.8164332875072956
1740587856298959600,11.798959716796874,-2.38081990827471,8.786682098850607,-0.9113315853416919
1740587856308941800,11.80894189453125,-2.3250727404810485,9.094360977578162,-0.9757873986393213
1740587856318924500,11.818924560546876,-2.2292738405451176,9.368571886467933,-1.0380863261640072
1740587856328906800,11.82890673828125,-2.128764424830675,9.56609936864972,-1.1667594678282738
1740587856338889000,11.838888916015625,-2.0344202537477014,9.68646820782721,-1.2863719356805086
1740587856348870700,11.84887060546875,-1.9132336684465407,9.795318458646536,-1.3683353486180305
1740587856358854000,11.85885400390625,-1.843966947735846,9.797363116216658,-1.5526111350387335
1740587856368835600,11.868835693359374,-1.7925450957953928,9.710636434400081,-1.7786106784671545
1740587856378817800,11.87881787109375,-1.8376178709700703,9.634281508994102,-1.8814637346982954
1740587856388799700,11.8887998046875,-1.816813421741873,9.686759299728275,-1.6221557959079742
1740587856398782700,11.89878271484375,-1.6156922989822924,9.935864408934115,-1.1950555879861116
1740587856408765000,11.908764892578125,-1.2459411410927772,10.331008220624923,-0.8414742052614689
1740587856418746600,11.91874658203125,-0.842264478856325,10.535376947003602,-0.7130529925316572
1740587856428728800,11.928728759765624,-0.5857341880857944,10.495631796592473,-0.8315116141736507
1740587856438711800,11.9387119140625,-0.3448690839588642,10.353999804633855,-1.0398971749782562
1740587856448693800,11.94869384765625,-0.1442225929737091,10.128239915180206,-1.3331331023335455
1740587856458676000,11.958676025390625,-0.056753714487701654,9.605738136076926,-1.8379741370618343
1740587856468657700,11.96865771484375,0.02166238123178482,8.840227811077236,-2.2342314629524944
1740587856478641000,11.978640869140625,0.039257805285602805,8.094708134704828,-2.369566400593519
1740587856488622600,11.98862255859375,0.21032281247749923,7.401610719487071,-2.195514486545324
1740587856498604800,11.998604736328126,0.6422350968562066,6.824453221088647,-1.6186708764016626
1740587856508587000,12.0085869140625,1.0963291832309217,6.407354767221212,-0.80256784376204
1740587856518569700,12.01856982421875,1.464526755002886,6.006720541420578,-0.08344459140598773
1740587856528552000,12.028552001953125,1.7935364449203013,5.73823151730895,0.5043360078155994
1740587856538533600,12.03853369140625,2.103571531385183,5.695511735001206,1.0595260045558215
1740587856548515800,12.048515869140624,2.3548469703674315,5.81393353176415,1.5822773745059966
1740587856558498800,12.058498779296874,2.410348492836952,5.948550676524639,2.0124609353959557
1740587856568480800,12.068480712890626,2.310827795898914,5.917988365000486,2.4865409211575984
1740587856578462700,12.078462646484375,2.063832226192951,5.758582231420278,3.0456752716094253
1740587856588444700,12.088444580078125,1.7006804665684698,5.454073214900493,3.615852994123101
1740587856598427600,12.098427734375,1.2606884822390974,4.942232530543208,4.113993654429913
1740587856608409900,12.108409912109375,0.7062509113013744,4.300746644619107,4.478855140581727
1740587856618391800,12.118391845703124,0.1388448454581201,3.641120121848583,4.787018003433943
1740587856628373800,12.128373779296876,-0.45282443176507947,2.8790099606812,4.899682259583473
1740587856638356700,12.138356689453126,-0.9708827485281973,1.9524632705509661,4.811952538204193
1740587856648338700,12.148338623046875,-1.2786942406594752,0.9402990288898349,4.680660153952241
1740587856658320600,12.158320556640625,-1.3262310678601263,0.04355652539283037,4.590193116563558
1740587856668302800,12.168302734375,-1.2358113767445087,-0.6832230869352817,4.480809781780839
1740587856678285800,12.178285888671875,-1.0789270167268812,-1.2683435270369052,4.355871150469779
1740587856688267800,12.188267822265624,-1.0005636010427028,-1.702034219264984,4.163489214482904
1740587856698249700,12.198249755859376,-1.0043360322535038,-2.099368818998337,3.909753522866964
1740587856708231700,12.208231689453125,-1.0267279698688536,-2.555211137279868,3.6111855868339537
1740587856718214000,12.2182138671875,-0.9877988120157271,-2.9537673877626656,3.4276977359205483
1740587856728195600,12.228195556640625,-0.8873124118506908,-3.2729262764036653,3.4873481947630642
1740587856738177800,12.238177734375,-0.8022646230317652,-3.7109710721880194,3.426461472123861
1740587856748160800,12.248160888671874,-0.6703343792676926,-4.090404104527831,3.366729180216789
1740587856758142700,12.258142822265626,-0.5830710332911462,-4.347734021243453,3.419968018451333
1740587856768125000,12.268125,-0.4806464316051453,-4.560511095005274,3.4089965425819155
1740587856778106600,12.278106689453125,-0.471328056704998,-4.805962357878685,3.2472236798703666
1740587856788089900,12.28808984375,-0.5340075079798698,-4.969510998091101,3.106825613620877
1740587856798071800,12.29807177734375,-0.673850862956047,-5.1192701824039215,3.030733138543367
1740587856808053800,12.3080537109375,-0.7810825726628303,-5.422491497200727,2.9424913759887215
1740587856818036000,12.318035888671876,-0.7540893517971038,-5.750306570506096,3.037307840758562
1740587856828018700,12.328018798828126,-0.5976386339563876,-6.02840864161551,3.2934985243111847
1740587856838001000,12.3380009765625,-0.3644623307663947,-6.18051760392487,3.5717280211925506
1740587856847982800,12.34798291015625,-0.13475224238224326,-6.20243074504733,3.984270126929879
1740587856857964800,12.35796484375,0.0031517420291900635,-6.130649118906259,4.5817625573486085
1740587856867947800,12.36794775390625,0.03493453525900841,-6.161273974272609,5.141702378964424
1740587856877929700,12.3779296875,0.027245880452543496,-6.364069752246141,5.677485664445162
1740587856887911700,12.38791162109375,-0.05330605825185775,-6.662697309511899,6.009614509296417
1740587856897893600,12.3978935546875,-0.06455562041029334,-7.037147292742133,6.352000544267892
1740587856907876600,12.407876708984375,0.06003872750774025,-7.240178048515319,6.979350937333702
1740587856917858800,12.41785888671875,0.22049700048938392,-7.066997072082757,8.002987297862768
1740587856927840800,12.4278408203125,0.3567478839315474,-6.590206658318638,9.35415991475582
1740587856937822700,12.43782275390625,0.40521278576254843,-5.9459115601927035,10.579303767013549
1740587856947806000,12.447805908203126,0.2261770188871771,-5.516943804833293,11.326392884659766
1740587856957787600,12.45778759765625,-0.08602072550430893,-5.408566432222724,11.49492691206932
1740587856967769900,12.467769775390625,-0.5043839386105538,-5.7234325921058655,10.905795482760666
1740587856977751800,12.477751708984375,-0.9338203343950211,-6.19099925045073,10.189653292042017
1740587856987734800,12.48773486328125,-1.234033261156082,-6.5466013253480195,9.717484108337759
1740587856997716700,12.497716796875,-1.354286949521303,-6.8269917996555565,9.350959657409787
1740587857007698700,12.50769873046875,-1.271144409801811,-6.928766997522115,9.159813985219598
1740587857017681000,12.517680908203126,-0.950804348552227,-6.634149260419607,9.073416389226914
1740587857027663600,12.52766357421875,-0.4342554865039885,-5.885894021603464,9.111839935645461
1740587857037645800,12.537645751953125,0.042646717071533204,-4.823227380934357,9.047468293499946
1740587857047627800,12.547627685546875,0.5614741915762425,-3.728070675548911,8.788334542232752
1740587857057609700,12.557609619140624,1.161322245210409,-2.7477573239177464,8.003222275662422
1740587857067593000,12.567593017578124,1.3983425104774534,-1.5857739844501018,7.627318586492538
1740587857077574700,12.57757470703125,1.645354154535383,-0.5228589219778775,7.016064172703027
1740587857087556900,12.587556884765625,1.6905809512279926,0.30717385181486606,6.339629722994566
1740587857097538800,12.597538818359375,1.5565245090901851,0.9137930070191621,5.6483490018099545
1740587857107521800,12.607521728515625,1.4150012382030486,1.428059457218647,4.972896548876166
1740587857117504000,12.61750390625,1.3963947374105452,1.8100117789030075,4.135077358990907
1740587857127485700,12.627485595703124,1.3486159181475639,2.0679273865520953,3.1055653844267126
1740587857137468000,12.637468017578126,1.1298282057940958,2.308166467735171,2.2916619076579807
1740587857147450600,12.64745068359375,0.7760697129368782,2.5716984539613126,1.608565661972761
1740587857157432800,12.657432861328125,0.37508886565566063,2.7873528367251157,1.0397492909401655
1740587857167414800,12.667414794921875,0.0637445962883532,2.913357343702018,0.5595365015119314
1740587857177396700,12.677396728515625,-0.1334510235905647,2.9934157998010513,0.3020890958964825
1740587857187379700,12.687379638671874,-0.3069920655071735,3.191519912827015,0.3319365371495485
1740587857197361700,12.697361572265624,-0.5135843862194568,3.6076930685430764,0.5114005393743515
1740587857207343900,12.70734375,-0.7775672580182552,3.9318750460430976,0.5408265403449535
1740587857217325600,12.71732568359375,-0.9789994194883853,4.179780424070358,0.362697001594305
