time,seconds_elapsed,z,y,x
1740006563634237000,0.03323681640625,-0.3358306884765625,-0.4351806640625,0.4366912841796875
1740006563644219600,0.0432197265625,-0.35986328125,-0.518402099609375,0.153961181640625
1740006563654202600,0.05320263671875,-0.477935791015625,-0.468841552734375,0.2196807861328125
1740006563664185900,0.063185791015625,-0.5630645751953125,-0.4138031005859375,0.43524169921875
1740006563674168800,0.0731689453125,-0.6560516357421875,-0.486602783203125,0.4814605712890625
1740006563684151600,0.083151611328125,-0.6571502685546875,-0.50140380859375,0.4097137451171875
1740006563694134800,0.093134765625,-0.6076812744140625,-0.4283447265625,0.3015289306640625
1740006563704116700,0.10311669921875,-0.6120147705078125,-0.380218505859375,0.31463623046875
1740006563714099700,0.113099609375,-0.772979736328125,-0.3800048828125,0.4185028076171875
1740006563724082700,0.123082763671875,-0.974578857421875,-0.421844482421875,0.47906494140625
1740006563734065700,0.133065673828125,-1.0786895751953125,-0.4009857177734375,0.5056610107421875
1740006563744049000,0.143048828125,-1.1136627197265625,-0.35235595703125,0.4729156494140625
1740006563754031600,0.153031494140625,-1.07000732421875,-0.32769775390625,0.4255218505859375
1740006563764014800,0.163014892578125,-0.9795074462890625,-0.2681427001953125,0.4019775390625
1740006563773997800,0.172997802734375,-0.867889404296875,-0.205810546875,0.44110107421875
1740006563783979800,0.182979736328125,-0.7105560302734375,-0.1777496337890625,0.4679412841796875
1740006563793962800,0.192962646484375,-0.5131988525390625,-0.1477813720703125,0.5213165283203125
1740006563803945700,0.20294580078125,-0.1888427734375,0.015716552734375,0.705596923828125
1740006563813929000,0.212928955078125,-0.0876007080078125,-0.0442962646484375,0.640594482421875
1740006563823911700,0.22291162109375,-0.2665557861328125,-0.2919769287109375,0.4518585205078125
1740006563833894700,0.232894775390625,-0.4889984130859375,-0.46405029296875,0.3278350830078125
1740006563843877600,0.242877685546875,-0.75384521484375,-0.423309326171875,0.2641754150390625
1740006563853860600,0.252860595703125,-0.91070556640625,-0.13836669921875,0.3539581298828125
1740006563863843300,0.26284326171875,-0.971282958984375,0.170745849609375,0.4852447509765625
1740006563873825500,0.272825439453125,-1.0171661376953125,0.3680572509765625,0.513824462890625
1740006563883808500,0.28280859375,-1.0417022705078125,0.447967529296875,0.50189208984375
1740006563893791500,0.29279150390625,-1.021636962890625,0.4575653076171875,0.5430755615234375
1740006563903774500,0.3027744140625,-0.9701995849609375,0.476806640625,0.6442108154296875
1740006563913757400,0.31275732421875,-0.9067840576171875,0.500396728515625,0.6970672607421875
1740006563923740700,0.32274072265625,-0.85272216796875,0.5227508544921875,0.779022216796875
1740006563933723400,0.332723388671875,-0.8506927490234375,0.571441650390625,0.9403076171875
1740006563943706600,0.34270654296875,-0.8194580078125,0.63555908203125,1.1240997314453125
1740006563953689600,0.352689697265625,-0.749542236328125,0.6838226318359375,1.1556549072265625
1740006563963671600,0.362671630859375,-0.6674041748046875,0.6727294921875,1.1461639404296875
1740006563973654500,0.372654541015625,-0.7777862548828125,0.68341064453125,0.978240966796875
1740006563983637500,0.382637451171875,-0.868011474609375,0.6539154052734375,0.8466033935546875
1740006563993620700,0.392620849609375,-0.879608154296875,0.637542724609375,0.7568817138671875
1740006564003603500,0.402603515625,-0.8966217041015625,0.68780517578125,0.6461639404296875
1740006564013586400,0.41258642578125,-0.894073486328125,0.718902587890625,0.668365478515625
1740006564023569700,0.422569580078125,-0.891571044921875,0.782073974609375,0.7628326416015625
1740006564033552400,0.432552490234375,-0.8989410400390625,0.8051605224609375,0.9127960205078125
1740006564043535400,0.442535400390625,-0.8948211669921875,0.8320159912109375,1.0103607177734375
1740006564053517600,0.452517578125,-0.8227996826171875,0.8333587646484375,1.0031585693359375
1740006564063500500,0.46250048828125,-0.7346954345703125,0.81488037109375,0.9905242919921875
1740006564073483500,0.4724833984375,-0.6518707275390625,0.7924957275390625,1.008392333984375
1740006564083466500,0.482466552734375,-0.5336456298828125,0.822845458984375,1.0647735595703125
1740006564093449500,0.492449462890625,-0.4291534423828125,0.8760528564453125,1.13568115234375
1740006564103432400,0.502432373046875,-0.3043212890625,0.8657989501953125,1.190582275390625
1740006564113415400,0.51241552734375,-0.000244140625,0.7831878662109375,1.2025146484375
1740006564123398700,0.522398681640625,0.328094482421875,0.648468017578125,1.2979278564453125
1740006564133381600,0.532381591796875,0.4701690673828125,0.578033447265625,1.4574127197265625
1740006564143363600,0.542363525390625,0.45635986328125,0.3566436767578125,1.504150390625
1740006564153346600,0.5523466796875,0.3730926513671875,0.196258544921875,1.376007080078125
1740006564163329500,0.56232958984375,0.260711669921875,0.2186431884765625,1.256683349609375
1740006564173312500,0.5723125,0.1305389404296875,0.29736328125,1.245513916015625
1740006564183295500,0.58229541015625,0.050079345703125,0.4075469970703125,1.22119140625
1740006564193278500,0.592278564453125,0.0155181884765625,0.4985198974609375,1.2078094482421875
1740006564203261700,0.60226171875,-0.0058135986328125,0.58673095703125,1.189178466796875
1740006564213244400,0.612244384765625,-0.0292816162109375,0.6113739013671875,1.119964599609375
1740006564223227400,0.622227294921875,-0.063140869140625,0.593109130859375,1.0435943603515625
1740006564233209600,0.632209716796875,-0.0784149169921875,0.5993194580078125,1.02679443359375
1740006564243192300,0.6421923828125,-0.0723419189453125,0.6702423095703125,1.1327667236328125
1740006564253175600,0.652175537109375,-0.1032257080078125,0.77392578125,1.2998199462890625
1740006564263158500,0.662158447265625,-0.14697265625,0.8784027099609375,1.4424896240234375
1740006564273141500,0.6721416015625,-0.1434478759765625,0.979644775390625,1.5597076416015625
1740006564283124500,0.68212451171875,-0.1439971923828125,1.0501251220703125,1.5884857177734375
1740006564293107500,0.692107421875,-0.2283782958984375,1.0845947265625,1.477020263671875
1740006564303090700,0.702090576171875,-0.340789794921875,1.0369415283203125,1.2805938720703125
1740006564313073700,0.71207373046875,-0.4429779052734375,0.91839599609375,1.1351165771484375
1740006564323055600,0.7220556640625,-0.571624755859375,0.78778076171875,1.0574951171875
1740006564333038600,0.73203857421875,-0.690521240234375,0.6839752197265625,1.054534912109375
1740006564343021600,0.742021484375,-0.740966796875,0.609130859375,1.1269378662109375
1740006564353004500,0.752004638671875,-0.731903076171875,0.5341949462890625,1.1964263916015625
1740006564362987500,0.761987548828125,-0.6854705810546875,0.4435577392578125,1.2447357177734375
1740006564372970500,0.771970458984375,-0.59906005859375,0.3922119140625,1.3230133056640625
1740006564382953500,0.781953369140625,-0.4892578125,0.3685302734375,1.37799072265625
1740006564392936400,0.7919365234375,-0.3901519775390625,0.361236572265625,1.4290771484375
1740006564402918700,0.801918701171875,-0.3282318115234375,0.424072265625,1.4707794189453125
1740006564412901600,0.811901611328125,-0.2785186767578125,0.5018157958984375,1.4481048583984375
1740006564422884400,0.82188427734375,-0.220977783203125,0.4910430908203125,1.329864501953125
1740006564432867600,0.83186767578125,-0.1566009521484375,0.4555511474609375,1.1614227294921875
1740006564442850600,0.8418505859375,-0.0814361572265625,0.478790283203125,1.0350189208984375
1740006564452833500,0.85183349609375,-0.01019287109375,0.491729736328125,0.921142578125
1740006564462816500,0.86181640625,0.00390625,0.461578369140625,0.8140106201171875
1740006564472799500,0.871799560546875,-0.029083251953125,0.4310150146484375,0.7520751953125
1740006564482782700,0.88178271484375,-0.0727081298828125,0.3948822021484375,0.6955413818359375
1740006564492764400,0.891764404296875,-0.12408447265625,0.36456298828125,0.666900634765625
1740006564502747600,0.90174755859375,-0.1624908447265625,0.3322906494140625,0.6742095947265625
1740006564512730600,0.911730712890625,-0.183197021484375,0.30072021484375,0.666351318359375
1740006564522713300,0.92171337890625,-0.2020416259765625,0.264617919921875,0.651702880859375
1740006564532696600,0.931696533203125,-0.1970367431640625,0.2277374267578125,0.623870849609375
1740006564542679600,0.941679443359375,-0.167755126953125,0.190521240234375,0.58721923828125
1740006564552662500,0.95166259765625,-0.13385009765625,0.1570892333984375,0.5578155517578125
1740006564562645500,0.9616455078125,-0.1094818115234375,0.1309814453125,0.540191650390625
1740006564572628500,0.97162841796875,-0.097442626953125,0.1095428466796875,0.5528564453125
1740006564582610700,0.981610595703125,-0.0781707763671875,0.096954345703125,0.57666015625
1740006564592593400,0.991593505859375,-0.062408447265625,0.107574462890625,0.608612060546875
1740006564602576400,1.001576416015625,-0.063995361328125,0.12066650390625,0.644927978515625
1740006564612559600,1.0115595703125,-0.0796966552734375,0.112060546875,0.6568603515625
1740006564622542600,1.02154248046875,-0.1034088134765625,0.0919647216796875,0.66864013671875
1740006564632525600,1.031525634765625,-0.13397216796875,0.088897705078125,0.689239501953125
1740006564642508500,1.041508544921875,-0.16552734375,0.0893707275390625,0.69854736328125
1740006564652491500,1.051491455078125,-0.183074951171875,0.0968780517578125,0.7162628173828125
1740006564662474800,1.061474853515625,-0.1806182861328125,0.109832763671875,0.7326202392578125
1740006564672456400,1.07145654296875,-0.1615753173828125,0.1257171630859375,0.749237060546875
1740006564682439700,1.081439697265625,-0.1318511962890625,0.1450958251953125,0.7604827880859375
1740006564692422700,1.091422607421875,-0.094757080078125,0.1687164306640625,0.7725830078125
1740006564702405400,1.1014052734375,-0.0668182373046875,0.200653076171875,0.8001861572265625
1740006564712388600,1.111388671875,-0.0577392578125,0.251983642578125,0.854736328125
1740006564722371600,1.12137158203125,-0.07391357421875,0.2983551025390625,0.928558349609375
1740006564732354600,1.1313544921875,-0.105987548828125,0.3303680419921875,1.0096282958984375
1740006564742337500,1.141337646484375,-0.1533355712890625,0.38006591796875,1.1004486083984375
1740006564752320500,1.151320556640625,-0.2202606201171875,0.4401702880859375,1.2149200439453125
1740006564762302700,1.161302734375,-0.289398193359375,0.4975738525390625,1.3063812255859375
1740006564772285400,1.171285400390625,-0.346435546875,0.51348876953125,1.359344482421875
1740006564782268400,1.181268310546875,-0.4052886962890625,0.5204315185546875,1.441192626953125
1740006564792251600,1.191251708984375,-0.44891357421875,0.5470428466796875,1.5065765380859375
1740006564802234400,1.201234375,-0.46368408203125,0.5564727783203125,1.511077880859375
1740006564812217600,1.211217529296875,-0.4720611572265625,0.555389404296875,1.463592529296875
1740006564822200600,1.22120068359375,-0.483306884765625,0.5570831298828125,1.3851165771484375
1740006564832183600,1.23118359375,-0.4849395751953125,0.544647216796875,1.282257080078125
1740006564842167000,1.2411669921875,-0.485687255859375,0.524566650390625,1.194549560546875
1740006564852149000,1.25114892578125,-0.498992919921875,0.51666259765625,1.154632568359375
1740006564862132000,1.261132080078125,-0.512908935546875,0.5290679931640625,1.1583709716796875
1740006564872115200,1.271115234375,-0.50531005859375,0.5623779296875,1.1792449951171875
1740006564882098000,1.281097900390625,-0.4703826904296875,0.6094818115234375,1.1942901611328125
1740006564892081000,1.291080810546875,-0.4256591796875,0.6563262939453125,1.187103271484375
1740006564902064000,1.301064208984375,-0.3822174072265625,0.69366455078125,1.1581878662109375
1740006564912046800,1.311046875,-0.3425445556640625,0.7183074951171875,1.116455078125
1740006564922030000,1.321030029296875,-0.3086395263671875,0.7169189453125,1.0535125732421875
1740006564932012000,1.331011962890625,-0.2671356201171875,0.7053375244140625,0.987823486328125
1740006564941995000,1.3409951171875,-0.2088623046875,0.7060699462890625,0.9338836669921875
1740006564951978000,1.35097802734375,-0.15789794921875,0.6906890869140625,0.8669281005859375
1740006564961961000,1.3609609375,-0.1215057373046875,0.651092529296875,0.8143463134765625
1740006564971944200,1.370944091796875,-0.08624267578125,0.55499267578125,0.7366485595703125
1740006564981927000,1.380927001953125,-0.022308349609375,0.466888427734375,0.6453704833984375
1740006564991910000,1.390909912109375,0.023040771484375,0.4109039306640625,0.60076904296875
1740006565001893000,1.40089306640625,0.04974365234375,0.3525238037109375,0.578765869140625
1740006565011876000,1.4108759765625,0.053955078125,0.2830657958984375,0.5832672119140625
1740006565021858000,1.420858154296875,0.025115966796875,0.2233734130859375,0.6096343994140625
1740006565031841000,1.430841064453125,-0.0238037109375,0.1885223388671875,0.6104583740234375
1740006565041824000,1.440823974609375,-0.09844970703125,0.165252685546875,0.59674072265625
1740006565051807000,1.450806884765625,-0.1691131591796875,0.143035888671875,0.5996551513671875
1740006565061790000,1.4607900390625,-0.2181243896484375,0.1201171875,0.595855712890625
1740006565071773000,1.47077294921875,-0.247222900390625,0.1067657470703125,0.5919189453125
1740006565081756200,1.480756103515625,-0.2719268798828125,0.11041259765625,0.58746337890625
1740006565091739000,1.49073876953125,-0.263336181640625,0.119110107421875,0.56927490234375
1740006565101722000,1.50072216796875,-0.2058868408203125,0.158477783203125,0.5496673583984375
1740006565111704000,1.5107041015625,-0.1430816650390625,0.230682373046875,0.54833984375
1740006565121687000,1.52068701171875,-0.10791015625,0.2996826171875,0.557647705078125
1740006565131670000,1.530669921875,-0.0669708251953125,0.33648681640625,0.5306549072265625
1740006565141653000,1.540653076171875,-0.02447509765625,0.3544464111328125,0.482666015625
1740006565151636200,1.55063623046875,0.0423126220703125,0.36102294921875,0.4558258056640625
1740006565161619000,1.560618896484375,0.0816802978515625,0.390899658203125,0.4013519287109375
1740006565171602000,1.570601806640625,0.0317535400390625,0.429962158203125,0.3918609619140625
1740006565181585200,1.580585205078125,0.1337127685546875,0.40704345703125,0.4244842529296875
1740006565191566800,1.59056689453125,0.220672607421875,0.4024200439453125,0.4164276123046875
1740006565201550000,1.600550048828125,0.21722412109375,0.4494781494140625,0.426910400390625
1740006565211533000,1.610532958984375,0.2550201416015625,0.4662017822265625,0.5168914794921875
1740006565221516000,1.62051611328125,0.27862548828125,0.4940185546875,0.5655670166015625
1740006565231499000,1.6304990234375,0.276092529296875,0.5443267822265625,0.60455322265625
1740006565241482000,1.64048193359375,0.2770233154296875,0.60693359375,0.647186279296875
1740006565251465000,1.65046484375,0.2402801513671875,0.680694580078125,0.7060089111328125
1740006565261448000,1.660447998046875,0.16607666015625,0.7429962158203125,0.789825439453125
1740006565271431000,1.670430908203125,0.07879638671875,0.8011474609375,0.90020751953125
1740006565281413000,1.6804130859375,0.0079803466796875,0.88861083984375,1.0579833984375
1740006565291396000,1.69039599609375,-0.0216064453125,1.0114288330078125,1.2236175537109375
1740006565301379000,1.700379150390625,-0.0423126220703125,1.147216796875,1.3740997314453125
1740006565311362000,1.710362060546875,-0.066436767578125,1.2650299072265625,1.494415283203125
1740006565321345000,1.720344970703125,-0.11199951171875,1.325439453125,1.561920166015625
1740006565331328000,1.730327880859375,-0.1849212646484375,1.3134307861328125,1.568572998046875
1740006565341311000,1.74031103515625,-0.2758941650390625,1.257537841796875,1.5473785400390625
1740006565351294000,1.7502939453125,-0.37298583984375,1.2009429931640625,1.5504608154296875
1740006565361277200,1.760277099609375,-0.460968017578125,1.1490020751953125,1.5621490478515625
1740006565371259000,1.7702587890625,-0.53594970703125,1.0656280517578125,1.554595947265625
1740006565381242000,1.7802421875,-0.583343505859375,0.9801025390625,1.558746337890625
1740006565391225000,1.79022509765625,-0.637542724609375,0.89739990234375,1.5917510986328125
1740006565401207800,1.800207763671875,-0.695892333984375,0.808929443359375,1.6763458251953125
1740006565411191000,1.81019091796875,-0.6836090087890625,0.6620635986328125,1.7501373291015625
1740006565421174000,1.820174072265625,-0.7026519775390625,0.6287841796875,1.83013916015625
1740006565431157000,1.830156982421875,-0.7000885009765625,0.5833740234375,1.8722686767578125
1740006565441140000,1.840139892578125,-0.664276123046875,0.5027618408203125,1.864410400390625
1740006565451123000,1.850123046875,-0.5842132568359375,0.4182281494140625,1.785736083984375
1740006565461105200,1.860105224609375,-0.466064453125,0.3561553955078125,1.6435699462890625
1740006565471087900,1.870087890625,-0.3456268310546875,0.328643798828125,1.5041656494140625
1740006565481071000,1.880071044921875,-0.2174835205078125,0.3231964111328125,1.3716278076171875
1740006565491054000,1.89005419921875,-0.10858154296875,0.3035888671875,1.189697265625
1740006565501037000,1.900037109375,-0.0242156982421875,0.2670135498046875,0.9993743896484375
1740006565511020000,1.91002001953125,0.037841796875,0.2250213623046875,0.8482818603515625
1740006565521003000,1.9200029296875,0.0489654541015625,0.1726226806640625,0.74871826171875
1740006565530986000,1.929986083984375,0.0110321044921875,0.116180419921875,0.6861572265625
1740006565540968000,1.939968017578125,-0.0283203125,0.07257080078125,0.627838134765625
1740006565550951000,1.949950927734375,-0.0677642822265625,0.0419769287109375,0.5771331787109375
1740006565560934100,1.95993408203125,-0.1150665283203125,0.0148468017578125,0.5518798828125
1740006565570917000,1.969917236328125,-0.148834228515625,-0.0041961669921875,0.5437164306640625
1740006565580899800,1.97989990234375,-0.1595306396484375,-0.013580322265625,0.53643798828125
1740006565590883000,1.989883056640625,-0.16339111328125,-0.014617919921875,0.538177490234375
1740006565600866000,1.999865966796875,-0.1593780517578125,-0.018524169921875,0.5430755615234375
1740006565610849000,2.00984912109375,-0.14013671875,-0.0272674560546875,0.53131103515625
1740006565620832000,2.01983203125,-0.109100341796875,-0.0277557373046875,0.5139923095703125
1740006565630814000,2.02981396484375,-0.0778045654296875,-0.023773193359375,0.5065460205078125
1740006565640797200,2.039797119140625,-0.0433502197265625,-0.016357421875,0.510711669921875
1740006565650780000,2.04977978515625,-0.00469970703125,0.00201416015625,0.5362091064453125
1740006565660763100,2.05976318359375,0.0469512939453125,0.037078857421875,0.5659942626953125
1740006565670746000,2.06974609375,0.0786590576171875,0.08270263671875,0.5849456787109375
1740006565680728800,2.079728759765625,0.0821990966796875,0.111480712890625,0.6125640869140625
1740006565690712000,2.089712158203125,0.097015380859375,0.1181640625,0.6152191162109375
1740006565700695000,2.099695068359375,0.1237335205078125,0.1318511962890625,0.60711669921875
1740006565710677000,2.109677001953125,0.13238525390625,0.1680450439453125,0.654754638671875
1740006565720660000,2.119659912109375,0.108734130859375,0.1919097900390625,0.7348785400390625
1740006565730643000,2.129642822265625,0.0922393798828125,0.196258544921875,0.8147125244140625
1740006565740626200,2.139626220703125,0.06988525390625,0.202972412109375,0.938446044921875
1740006565750609000,2.14960888671875,0.0281982421875,0.222747802734375,1.1103363037109375
1740006565760592000,2.159591796875,-0.017120361328125,0.2600860595703125,1.2976837158203125
1740006565770575000,2.1695751953125,-0.06146240234375,0.311431884765625,1.515045166015625
1740006565780558000,2.17955810546875,-0.1140289306640625,0.3582305908203125,1.667144775390625
1740006565790541000,2.189541015625,-0.193511962890625,0.366302490234375,1.7591705322265625
1740006565800523000,2.19952294921875,-0.2610015869140625,0.3520050048828125,1.8254547119140625
1740006565810506000,2.209506103515625,-0.2772216796875,0.3771514892578125,1.8780517578125
1740006565820489000,2.219489013671875,-0.263336181640625,0.4625244140625,1.962371826171875
1740006565830472000,2.229471923828125,-0.23699951171875,0.551727294921875,2.032257080078125
1740006565840455200,2.239455078125,-0.203369140625,0.6111297607421875,2.0329132080078125
1740006565850438000,2.24943798828125,-0.1788330078125,0.6450958251953125,1.9829254150390625
1740006565860420900,2.2594208984375,-0.1533050537109375,0.66802978515625,1.921356201171875
1740006565870404000,2.269404052734375,-0.12261962890625,0.6831817626953125,1.8539276123046875
1740006565880385800,2.2793857421875,-0.11553955078125,0.68829345703125,1.76324462890625
1740006565890369000,2.289369140625,-0.1294097900390625,0.6375579833984375,1.6475677490234375
1740006565900352000,2.29935205078125,-0.1268310546875,0.5848846435546875,1.57098388671875
1740006565910335000,2.3093349609375,-0.0966339111328125,0.579376220703125,1.5474853515625
1740006565920318000,2.31931787109375,-0.0591888427734375,0.604583740234375,1.5416412353515625
1740006565930301000,2.329301025390625,-0.027069091796875,0.64215087890625,1.548187255859375
1740006565940284000,2.339283935546875,-0.007415771484375,0.68511962890625,1.556427001953125
1740006565950267100,2.34926708984375,-0.003936767578125,0.733001708984375,1.559478759765625
1740006565960249900,2.359249755859375,-0.0115966796875,0.775665283203125,1.5535736083984375
1740006565970232000,2.369232177734375,-0.0260772705078125,0.7834625244140625,1.5214080810546875
1740006565980215000,2.379215087890625,-0.0052032470703125,0.7905426025390625,1.468170166015625
1740006565990198000,2.389197998046875,0.02374267578125,0.7900238037109375,1.397918701171875
1740006566000181000,2.399180908203125,0.039337158203125,0.7615203857421875,1.32794189453125
1740006566010164000,2.4091640625,0.0703277587890625,0.72955322265625,1.2649993896484375
1740006566020147200,2.419147216796875,0.1117706298828125,0.6981658935546875,1.2038726806640625
1740006566030130000,2.4291298828125,0.132080078125,0.6689300537109375,1.1463775634765625
1740006566040113000,2.43911279296875,0.1281585693359375,0.6158599853515625,1.0696868896484375
1740006566050096000,2.44909619140625,0.1239166259765625,0.556549072265625,0.9957427978515625
1740006566060077800,2.459077880859375,0.10784912109375,0.4922943115234375,0.9410552978515625
1740006566070061000,2.46906103515625,0.08551025390625,0.43597412109375,0.9092559814453125
1740006566080044000,2.4790439453125,0.0555419921875,0.4157562255859375,0.91058349609375
1740006566090027000,2.489027099609375,-0.0150909423828125,0.428070068359375,0.947601318359375
1740006566100010000,2.499010009765625,-0.1048736572265625,0.41693115234375,0.9892425537109375
1740006566109993000,2.508992919921875,-0.1613006591796875,0.4001007080078125,0.9932098388671875
1740006566119976000,2.518975830078125,-0.181182861328125,0.3995513916015625,0.9680023193359375
1740006566129959000,2.528958984375,-0.1973114013671875,0.4169769287109375,0.9405975341796875
1740006566139940900,2.53894091796875,-0.2019195556640625,0.4408721923828125,0.899505615234375
1740006566149924000,2.548924072265625,-0.1987152099609375,0.461395263671875,0.8423309326171875
1740006566159906800,2.55890673828125,-0.1951446533203125,0.476043701171875,0.7902679443359375
1740006566169890000,2.56889013671875,-0.19415283203125,0.482757568359375,0.750152587890625
1740006566179873000,2.578873046875,-0.1913604736328125,0.48284912109375,0.72283935546875
1740006566189856000,2.58885595703125,-0.173004150390625,0.486785888671875,0.7003631591796875
1740006566199839000,2.5988388671875,-0.1442718505859375,0.5033111572265625,0.670623779296875
1740006566209822000,2.608822021484375,-0.1162872314453125,0.5108642578125,0.636932373046875
1740006566219805000,2.618804931640625,-0.098175048828125,0.4992218017578125,0.5936126708984375
1740006566229787000,2.628786865234375,-0.0842437744140625,0.47698974609375,0.547210693359375
1740006566239769900,2.638769775390625,-0.0614166259765625,0.4620361328125,0.5216522216796875
1740006566249753000,2.648753173828125,-0.0477752685546875,0.4521484375,0.5405120849609375
1740006566259736000,2.658736083984375,-0.0314483642578125,0.4382171630859375,0.5721282958984375
1740006566269718800,2.66871875,0.0224151611328125,0.436065673828125,0.5628814697265625
1740006566279702000,2.678701904296875,0.079559326171875,0.446075439453125,0.546722412109375
1740006566289685000,2.68868505859375,0.1021575927734375,0.443572998046875,0.52447509765625
1740006566299668000,2.69866796875,0.110015869140625,0.4303436279296875,0.500518798828125
1740006566309650000,2.70864990234375,0.121917724609375,0.4261474609375,0.492584228515625
1740006566319633000,2.7186328125,0.1121673583984375,0.429229736328125,0.515716552734375
1740006566329616100,2.7286162109375,0.082611083984375,0.434661865234375,0.5667724609375
1740006566339598800,2.738598876953125,0.0528564453125,0.4523468017578125,0.6207427978515625
1740006566349582000,2.74858203125,0.03936767578125,0.4836578369140625,0.673187255859375
1740006566359565000,2.75856494140625,0.0377197265625,0.532958984375,0.6939544677734375
1740006566369548000,2.768548095703125,0.0222320556640625,0.57061767578125,0.6909942626953125
1740006566379531000,2.778531005859375,-0.0028533935546875,0.581878662109375,0.6951751708984375
1740006566389514000,2.788513916015625,-0.02935791015625,0.5749969482421875,0.7074127197265625
1740006566399496200,2.79849609375,-0.05255126953125,0.5756683349609375,0.733978271484375
1740006566409479000,2.80847900390625,-0.0797882080078125,0.596099853515625,0.815826416015625
1740006566419462000,2.8184619140625,-0.1180877685546875,0.6044769287109375,0.893310546875
1740006566429445000,2.828445068359375,-0.1601715087890625,0.598236083984375,0.9480133056640625
1740006566439428000,2.838427978515625,-0.1994476318359375,0.59246826171875,0.982635498046875
1740006566449410800,2.848410888671875,-0.23663330078125,0.6051025390625,1.0468292236328125
1740006566459394000,2.85839404296875,-0.290374755859375,0.5841827392578125,1.111419677734375
1740006566469377000,2.868376953125,-0.3219451904296875,0.558349609375,1.182525634765625
1740006566479359700,2.87835986328125,-0.3013763427734375,0.570037841796875,1.2376556396484375
1740006566489342000,2.888342041015625,-0.26513671875,0.618621826171875,1.320770263671875
1740006566499325000,2.898324951171875,-0.2344818115234375,0.688507080078125,1.4032440185546875
1740006566509308200,2.90830810546875,-0.201568603515625,0.7476654052734375,1.4366607666015625
1740006566519291000,2.918290771484375,-0.1890106201171875,0.79931640625,1.474884033203125
1740006566529274000,2.928274169921875,-0.2079010009765625,0.8497161865234375,1.5162353515625
1740006566539257000,2.938257080078125,-0.2533416748046875,0.8870391845703125,1.5640869140625
1740006566549239800,2.94823974609375,-0.3134765625,0.8899078369140625,1.6663360595703125
1740006566559223000,2.95822314453125,-0.3173675537109375,0.9064483642578125,1.751129150390625
1740006566569205000,2.968205078125,-0.296783447265625,0.92254638671875,1.783721923828125
1740006566579188000,2.97818798828125,-0.3085174560546875,0.9051666259765625,1.7613983154296875
1740006566589171000,2.9881708984375,-0.341949462890625,0.8634185791015625,1.6699676513671875
1740006566599154000,2.99815380859375,-0.3885345458984375,0.8127288818359375,1.542724609375
1740006566609137200,3.00813720703125,-0.4526824951171875,0.6923828125,1.4285888671875
1740006566619119900,3.018119873046875,-0.4895782470703125,0.7071380615234375,1.3828582763671875
1740006566629102800,3.028102783203125,-0.5107574462890625,0.612640380859375,1.368865966796875
1740006566639086000,3.038086181640625,-0.526611328125,0.5107421875,1.4429931640625
1740006566649069000,3.048069091796875,-0.5038299560546875,0.45306396484375,1.562835693359375
1740006566659051000,3.058051025390625,-0.4541168212890625,0.39166259765625,1.6220245361328125
1740006566669034000,3.068033935546875,-0.41357421875,0.3208465576171875,1.62347412109375
1740006566679017000,3.078016845703125,-0.3740386962890625,0.2413330078125,1.580108642578125
1740006566689000000,3.088,-0.3283538818359375,0.178436279296875,1.499176025390625
1740006566698983000,3.09798291015625,-0.2674407958984375,0.1355743408203125,1.414886474609375
1740006566708966100,3.107966064453125,-0.214385986328125,0.1003570556640625,1.36480712890625
1740006566718949000,3.11794921875,-0.1552581787109375,0.0836181640625,1.3199920654296875
1740006566728931800,3.127931884765625,-0.0998992919921875,0.08642578125,1.2777252197265625
1740006566738914000,3.1379140625,-0.0837249755859375,0.0654296875,1.249237060546875
1740006566748897000,3.14789697265625,-0.078704833984375,0.028167724609375,1.22039794921875
1740006566758880000,3.1578798828125,-0.0652313232421875,0.003265380859375,1.2010345458984375
1740006566768863000,3.167863037109375,-0.06414794921875,-0.0080718994140625,1.1973114013671875
1740006566778846000,3.177845947265625,-0.078887939453125,-0.0056915283203125,1.208831787109375
1740006566788829200,3.1878291015625,-0.0961151123046875,-0.0025482177734375,1.2083740234375
1740006566798812000,3.19781201171875,-0.091949462890625,-0.0095977783203125,1.1864471435546875
1740006566808795000,3.207794921875,-0.052398681640625,-0.0222625732421875,1.183380126953125
1740006566818778000,3.217778076171875,-0.0389556884765625,-0.0175933837890625,1.203887939453125
1740006566828759800,3.227759765625,-0.0557403564453125,-0.0012054443359375,1.2552642822265625
1740006566838743000,3.237742919921875,-0.069061279296875,0.030487060546875,1.2897186279296875
1740006566848726000,3.24772607421875,-0.0855560302734375,0.0610809326171875,1.3148345947265625
1740006566858709000,3.257708984375,-0.10736083984375,0.0630035400390625,1.3458709716796875
1740006566868692000,3.26769189453125,-0.098907470703125,0.0611572265625,1.3740234375
1740006566878675000,3.277675048828125,-0.0827789306640625,0.0634765625,1.4142303466796875
1740006566888658000,3.287657958984375,-0.077667236328125,0.05755615234375,1.4600982666015625
1740006566898641200,3.29764111328125,-0.069427490234375,0.0639495849609375,1.515045166015625
1740006566908624000,3.307623779296875,-0.0444183349609375,0.1067962646484375,1.580352783203125
1740006566918606000,3.317606201171875,-0.0400390625,0.16864013671875,1.628387451171875
1740006566928589000,3.327589111328125,-0.0636138916015625,0.22247314453125,1.64056396484375
1740006566938572000,3.337572021484375,-0.09130859375,0.2588043212890625,1.6172332763671875
1740006566948555000,3.347554931640625,-0.1300048828125,0.2900238037109375,1.5856170654296875
1740006566958538000,3.3575380859375,-0.1801300048828125,0.3104248046875,1.56903076171875
1740006566968521200,3.367521240234375,-0.2097930908203125,0.3071746826171875,1.529296875
1740006566978504000,3.37750390625,-0.193572998046875,0.2855682373046875,1.4647979736328125
1740006566988487000,3.38748681640625,-0.1580352783203125,0.26849365234375,1.420501708984375
1740006566998469000,3.39746923828125,-0.1290130615234375,0.28302001953125,1.4206695556640625
1740006567008451800,3.407451904296875,-0.0935211181640625,0.3303985595703125,1.4315185546875
1740006567018435000,3.41743505859375,-0.0643157958984375,0.3929290771484375,1.444122314453125
1740006567028418000,3.42741796875,-0.0597686767578125,0.4507293701171875,1.4613037109375
1740006567038401000,3.437401123046875,-0.0574188232421875,0.520416259765625,1.4995880126953125
1740006567048384000,3.447384033203125,-0.0608062744140625,0.6031341552734375,1.55596923828125
1740006567058367000,3.457366943359375,-0.0678558349609375,0.671417236328125,1.6118011474609375
1740006567068350000,3.467349853515625,-0.0580596923828125,0.724334716796875,1.665069580078125
1740006567078333200,3.477333251953125,-0.04986572265625,0.781951904296875,1.7247314453125
1740006567088315100,3.487315185546875,-0.0430145263671875,0.8455352783203125,1.776031494140625
1740006567098298000,3.497298095703125,-0.0419769287109375,0.903350830078125,1.8197021484375
1740006567108281000,3.507281005859375,-0.0653533935546875,0.9581298828125,1.8270263671875
1740006567118264000,3.51726416015625,-0.1030731201171875,0.9600067138671875,1.7619171142578125
1740006567128247000,3.5272470703125,-0.124603271484375,0.903717041015625,1.6462249755859375
1740006567138230000,3.53722998046875,-0.1298980712890625,0.856170654296875,1.5360870361328125
1740006567148213000,3.547212890625,-0.1373291015625,0.8129730224609375,1.4521942138671875
1740006567158196000,3.557196044921875,-0.1474609375,0.768280029296875,1.3925018310546875
1740006567168179000,3.567178955078125,-0.1662139892578125,0.7271270751953125,1.35211181640625
1740006567178161000,3.577160888671875,-0.1932525634765625,0.71221923828125,1.3508758544921875
1740006567188143900,3.587143798828125,-0.2496337890625,0.718170166015625,1.384796142578125
1740006567198127000,3.597127197265625,-0.32574462890625,0.7105712890625,1.477325439453125
1740006567208110000,3.607110107421875,-0.366424560546875,0.70989990234375,1.4897613525390625
1740006567218092800,3.6170927734375,-0.37255859375,0.6938934326171875,1.3528900146484375
1740006567228076000,3.627075927734375,-0.3461151123046875,0.6686248779296875,1.2030792236328125
1740006567238059000,3.63705908203125,-0.2879180908203125,0.648834228515625,1.0253448486328125
1740006567248042000,3.6470419921875,-0.1540069580078125,0.630279541015625,0.8398895263671875
1740006567258024000,3.65702392578125,-0.011627197265625,0.61602783203125,0.703155517578125
1740006567268007200,3.667007080078125,0.05047607421875,0.584259033203125,0.6143646240234375
1740006567277990100,3.676990234375,0.038604736328125,0.5298309326171875,0.577301025390625
1740006567287972900,3.686972900390625,-0.0135498046875,0.461334228515625,0.6118621826171875
1740006567297956000,3.6969560546875,-0.0982666015625,0.4128570556640625,0.668975830078125
1740006567307939000,3.70693896484375,-0.1677398681640625,0.3958587646484375,0.7247467041015625
1740006567317922000,3.716922119140625,-0.209014892578125,0.4019317626953125,0.75897216796875
1740006567327905000,3.726905029296875,-0.2275848388671875,0.406280517578125,0.74957275390625
1740006567337888000,3.736887939453125,-0.232635498046875,0.4004364013671875,0.681640625
1740006567347871000,3.74687109375,-0.2241668701171875,0.4028472900390625,0.588958740234375
1740006567357853000,3.75685302734375,-0.2037506103515625,0.4223175048828125,0.5553741455078125
1740006567367836000,3.7668359375,-0.1991424560546875,0.435516357421875,0.5521240234375
1740006567377819100,3.776819091796875,-0.2075347900390625,0.433197021484375,0.5470733642578125
1740006567387802000,3.786802001953125,-0.1948699951171875,0.446258544921875,0.5658416748046875
1740006567397784800,3.796784912109375,-0.175811767578125,0.452728271484375,0.6108551025390625
1740006567407768000,3.80676806640625,-0.182891845703125,0.4503631591796875,0.6602783203125
1740006567417751000,3.8167509765625,-0.2091827392578125,0.4141693115234375,0.71502685546875
1740006567427734000,3.826734130859375,-0.24371337890625,0.3837432861328125,0.6977996826171875
1740006567437716000,3.836716064453125,-0.33685302734375,0.4257965087890625,0.638702392578125
1740006567447700000,3.846699951171875,-0.3821258544921875,0.44512939453125,0.7086181640625
1740006567457683200,3.85668310546875,-0.3450164794921875,0.51812744140625,0.6883544921875
1740006567467666000,3.866666015625,-0.3394622802734375,0.5392608642578125,0.6525726318359375
1740006567477648100,3.876648193359375,-0.3325653076171875,0.5053558349609375,0.6681060791015625
1740006567487631000,3.886631103515625,-0.27862548828125,0.468841552734375,0.65130615234375
1740006567497613800,3.89661376953125,-0.265228271484375,0.4456024169921875,0.6134033203125
1740006567507597000,3.90659716796875,-0.298065185546875,0.4340667724609375,0.5741424560546875
1740006567517580000,3.916580078125,-0.329498291015625,0.447906494140625,0.5343780517578125
1740006567527563000,3.92656298828125,-0.3404388427734375,0.47784423828125,0.526519775390625
1740006567537546000,3.9365458984375,-0.33648681640625,0.503875732421875,0.5666351318359375
1740006567547529000,3.946529052734375,-0.360992431640625,0.518157958984375,0.6400604248046875
1740006567557511200,3.95651123046875,-0.4156036376953125,0.5155792236328125,0.772918701171875
1740006567567494000,3.966493896484375,-0.4409637451171875,0.5227508544921875,0.93505859375
1740006567577476900,3.976476806640625,-0.39990234375,0.5497589111328125,1.0768585205078125
1740006567587460000,3.986460205078125,-0.3314361572265625,0.5741424560546875,1.22222900390625
1740006567597443000,3.996443115234375,-0.271392822265625,0.5981597900390625,1.371856689453125
1740006567607426000,4.006426025390625,-0.22052001953125,0.6046600341796875,1.4976043701171875
1740006567617409000,4.016408935546875,-0.174652099609375,0.6078643798828125,1.5992431640625
1740006567627392000,4.02639208984375,-0.127349853515625,0.617401123046875,1.65380859375
1740006567637375200,4.036375244140625,-0.114288330078125,0.6038360595703125,1.708526611328125
1740006567647357000,4.04635693359375,-0.1468048095703125,0.5673828125,1.7873687744140625
1740006567657340200,4.056340087890625,-0.2021636962890625,0.5312652587890625,1.86395263671875
1740006567667323100,4.0663232421875,-0.2774200439453125,0.4570159912109375,1.91912841796875
1740006567677305900,4.076305908203125,-0.3473358154296875,0.3651580810546875,1.8960113525390625
1740006567687289000,4.0862890625,-0.3804473876953125,0.29736328125,1.7823333740234375
1740006567697272000,4.09627197265625,-0.3759918212890625,0.2440338134765625,1.5912322998046875
1740006567707255000,4.106255126953125,-0.37542724609375,0.191375732421875,1.4030609130859375
1740006567717238000,4.116238037109375,-0.409820556640625,0.12945556640625,1.2701873779296875
1740006567727221000,4.126220947265625,-0.4682769775390625,0.060638427734375,1.2194366455078125
1740006567737203200,4.136203125,-0.5097198486328125,0.0224609375,1.2322540283203125
1740006567747186000,4.14618603515625,-0.51434326171875,0.0081024169921875,1.2541961669921875
1740006567757169000,4.1561689453125,-0.5085296630859375,-0.0083160400390625,1.260955810546875
1740006567767152000,4.166152099609375,-0.4656524658203125,-0.0431365966796875,1.244598388671875
1740006567777135000,4.176135009765625,-0.38897705078125,-0.06390380859375,1.2052764892578125
1740006567787118000,4.1861181640625,-0.2905426025390625,-0.087158203125,1.122406005859375
1740006567797101000,4.19610107421875,-0.1904754638671875,-0.11419677734375,1.0172119140625
1740006567807084000,4.206083984375,-0.1438446044921875,-0.1405181884765625,0.94805908203125
1740006567817066000,4.21606591796875,-0.1477813720703125,-0.1558685302734375,0.924285888671875
1740006567827049000,4.226049072265625,-0.1869659423828125,-0.14251708984375,0.9849090576171875
1740006567837032200,4.2360322265625,-0.20172119140625,-0.1367034912109375,1.0764007568359375
1740006567847015400,4.246015380859375,-0.203948974609375,-0.1382904052734375,1.1196746826171875
1740006567856998400,4.255998291015625,-0.2046051025390625,-0.1399383544921875,1.1285247802734375
1740006567866981600,4.265981689453125,-0.2208099365234375,-0.1656341552734375,1.071807861328125
1740006567876964400,4.27596435546875,-0.2274169921875,-0.18597412109375,1.033447265625
1740006567886946600,4.285946533203125,-0.2219085693359375,-0.19976806640625,1.068206787109375
1740006567896929500,4.295929443359375,-0.2367095947265625,-0.21282958984375,1.157989501953125
1740006567906912300,4.305912353515625,-0.2557220458984375,-0.2261199951171875,1.2523345947265625
1740006567916895500,4.3158955078125,-0.279815673828125,-0.2215576171875,1.322662353515625
1740006567926878500,4.32587841796875,-0.2930908203125,-0.197296142578125,1.36029052734375
1740006567936861400,4.335861328125,-0.3006134033203125,-0.197174072265625,1.3830108642578125
1740006567946844400,4.345844482421875,-0.2940826416015625,-0.1945953369140625,1.3956756591796875
1740006567956827400,4.355827392578125,-0.3070220947265625,-0.1797637939453125,1.423309326171875
1740006567966809600,4.3658095703125,-0.32415771484375,-0.19354248046875,1.47296142578125
1740006567976792300,4.375792236328125,-0.3333892822265625,-0.2167205810546875,1.5695037841796875
1740006567986775300,4.385775390625,-0.324066162109375,-0.2194366455078125,1.6648101806640625
1740006567996758500,4.395758544921875,-0.2867279052734375,-0.201812744140625,1.746185302734375
1740006568006741200,4.4057412109375,-0.23956298828125,-0.1651611328125,1.801666259765625
1740006568016724200,4.41572412109375,-0.2129974365234375,-0.131103515625,1.8235626220703125
1740006568026707500,4.42570751953125,-0.2090301513671875,-0.1034698486328125,1.79364013671875
1740006568036690400,4.4356904296875,-0.2074737548828125,-0.078765869140625,1.7052001953125
1740006568046673400,4.44567333984375,-0.2159423828125,-0.071044921875,1.5673370361328125
1740006568056655400,4.4556552734375,-0.2797088623046875,-0.103546142578125,1.485748291015625
1740006568066638600,4.465638671875,-0.4042816162109375,-0.134765625,1.50616455078125
1740006568076621300,4.475621337890625,-0.4835968017578125,-0.0959320068359375,1.523712158203125
1740006568086604300,4.485604248046875,-0.467132568359375,-0.045135498046875,1.5225677490234375
1740006568096587500,4.49558740234375,-0.4053955078125,0.017669677734375,1.525634765625
1740006568106570500,4.505570556640625,-0.3314361572265625,0.10699462890625,1.5436859130859375
1740006568116553200,4.51555322265625,-0.2597198486328125,0.206390380859375,1.56646728515625
1740006568126536400,4.525536376953125,-0.2129669189453125,0.286712646484375,1.5695953369140625
1740006568136519400,4.53551953125,-0.1952056884765625,0.3158111572265625,1.5402679443359375
1740006568146501400,4.54550146484375,-0.207275390625,0.32745361328125,1.527130126953125
1740006568156484400,4.555484375,-0.2493896484375,0.35626220703125,1.541107177734375
1740006568166467300,4.56546728515625,-0.2866363525390625,0.373504638671875,1.557647705078125
1740006568176450600,4.575450439453125,-0.303497314453125,0.379974365234375,1.5689849853515625
1740006568186433300,4.585433349609375,-0.3039398193359375,0.386962890625,1.546051025390625
1740006568196416300,4.595416259765625,-0.2844390869140625,0.3784332275390625,1.48040771484375
1740006568206399500,4.6053994140625,-0.24603271484375,0.3487396240234375,1.4216766357421875
1740006568216382500,4.615382568359375,-0.20391845703125,0.3171234130859375,1.3710479736328125
1740006568226365400,4.625365478515625,-0.1659393310546875,0.2770843505859375,1.2833404541015625
1740006568236347400,4.635347412109375,-0.1484222412109375,0.2223968505859375,1.2027130126953125
1740006568246330600,4.64533056640625,-0.136016845703125,0.1801300048828125,1.1575927734375
1740006568256313300,4.655313232421875,-0.134307861328125,0.1590423583984375,1.135345458984375
1740006568266296300,4.66529638671875,-0.1475982666015625,0.1558990478515625,1.115631103515625
1740006568276279600,4.675279541015625,-0.1602020263671875,0.1617584228515625,1.0947723388671875
1740006568286262500,4.685262451171875,-0.1720733642578125,0.1771697998046875,1.0831298828125
1740006568296245200,4.695245361328125,-0.1835174560546875,0.1968841552734375,1.0867156982421875
1740006568306228500,4.705228515625,-0.1866302490234375,0.2367095947265625,1.076934814453125
1740006568316210400,4.71521044921875,-0.1824951171875,0.27374267578125,1.0540924072265625
1740006568326193400,4.725193359375,-0.1857452392578125,0.30926513671875,1.037109375
1740006568336176400,4.73517626953125,-0.2041473388671875,0.3546142578125,1.0185699462890625
1740006568346159400,4.745159423828125,-0.2129669189453125,0.4278717041015625,0.9754486083984375
1740006568356142300,4.755142333984375,-0.2377471923828125,0.483123779296875,0.90435791015625
1740006568366125300,4.765125244140625,-0.2682952880859375,0.4900970458984375,0.8254852294921875
1740006568376108300,4.7751083984375,-0.26629638671875,0.47381591796875,0.7473297119140625
1740006568386091500,4.785091552734375,-0.226318359375,0.45965576171875,0.7182464599609375
1740006568396074200,4.79507421875,-0.1695404052734375,0.45806884765625,0.7315826416015625
1740006568406056400,4.805056396484375,-0.1069183349609375,0.4656219482421875,0.76470947265625
1740006568416039400,4.815039306640625,-0.045867919921875,0.48321533203125,0.7904510498046875
1740006568426022400,4.8250224609375,0.0143585205078125,0.5071563720703125,0.797576904296875
1740006568436005400,4.83500537109375,0.05364990234375,0.522705078125,0.78955078125
1740006568445988400,4.84498828125,0.0675048828125,0.528106689453125,0.7581787109375
1740006568455971600,4.8549716796875,0.0648345947265625,0.533111572265625,0.727813720703125
1740006568465954300,4.864954345703125,0.0328216552734375,0.5325469970703125,0.7165985107421875
1740006568475937300,4.874937255859375,-0.0285186767578125,0.5260467529296875,0.7252044677734375
1740006568485920500,4.88492041015625,-0.09222412109375,0.5222625732421875,0.7517242431640625
1740006568495902200,4.894902099609375,-0.135498046875,0.526580810546875,0.755950927734375
1740006568505885400,4.904885498046875,-0.1545257568359375,0.5472412109375,0.7636871337890625
1740006568515868400,4.914868408203125,-0.1474456787109375,0.5915374755859375,0.79290771484375
1740006568525851400,4.924851318359375,-0.11767578125,0.655548095703125,0.828857421875
1740006568535834400,4.93483447265625,-0.1009674072265625,0.7144317626953125,0.8578643798828125
1740006568545817300,4.9448173828125,-0.11688232421875,0.7024688720703125,0.862640380859375
1740006568555800300,4.95480029296875,-0.1229705810546875,0.67926025390625,0.8336181640625
1740006568565783600,4.964783447265625,-0.1230621337890625,0.70611572265625,0.8692626953125
1740006568575766300,4.974766357421875,-0.1190185546875,0.7118377685546875,0.9265899658203125
1740006568585748500,4.98474853515625,-0.080780029296875,0.716217041015625,0.9944000244140625
1740006568595731500,4.9947314453125,-0.049163818359375,0.677825927734375,1.045562744140625
1740006568605714400,5.00471435546875,-0.0734405517578125,0.5783538818359375,1.0583038330078125
1740006568615697400,5.014697509765625,-0.11724853515625,0.4709625244140625,1.08001708984375
1740006568625680400,5.024680419921875,-0.08599853515625,0.3925933837890625,1.125
1740006568635663600,5.03466357421875,0.063873291015625,0.3947601318359375,1.2123260498046875
1740006568645646300,5.044646240234375,0.22943115234375,0.4773101806640625,1.325408935546875
1740006568655629300,5.05462939453125,0.3325042724609375,0.538299560546875,1.4048919677734375
1740006568665612500,5.064612548828125,0.3602294921875,0.5265350341796875,1.443115234375
1740006568675594200,5.07459423828125,0.30682373046875,0.4972076416015625,1.4814910888671875
1740006568685577500,5.084577392578125,0.2347869873046875,0.5089111328125,1.540771484375
1740006568695560400,5.094560546875,0.200714111328125,0.55474853515625,1.61260986328125
1740006568705543400,5.10454345703125,0.1714630126953125,0.585723876953125,1.6526641845703125
1740006568715526400,5.1145263671875,0.1189422607421875,0.58453369140625,1.6442108154296875
1740006568725509400,5.12450927734375,0.0523834228515625,0.5443115234375,1.6379852294921875
1740006568735492400,5.134492431640625,0.0005340576171875,0.4861297607421875,1.6128082275390625
1740006568745475300,5.144475341796875,-0.0435943603515625,0.4174346923828125,1.573577880859375
1740006568755457300,5.154457275390625,-0.073760986328125,0.3436126708984375,1.525054931640625
1740006568765440500,5.1644404296875,-0.0904998779296875,0.281219482421875,1.45587158203125
1740006568775423200,5.17442333984375,-0.0969390869140625,0.232177734375,1.3541717529296875
1740006568785406500,5.184406494140625,-0.109375,0.195648193359375,1.250732421875
1740006568795389400,5.194389404296875,-0.13018798828125,0.1787261962890625,1.1683502197265625
1740006568805372400,5.204372314453125,-0.1396942138671875,0.16339111328125,1.1110992431640625
1740006568815355400,5.21435546875,-0.1488037109375,0.14990234375,1.0942840576171875
1740006568825338400,5.22433837890625,-0.16326904296875,0.141448974609375,1.1234588623046875
1740006568835321300,5.2343212890625,-0.1525421142578125,0.1292877197265625,1.165496826171875
1740006568845302500,5.244302490234375,-0.0953369140625,0.09478759765625,1.2108306884765625
1740006568855285800,5.25428564453125,-0.0056915283203125,0.0420379638671875,1.212677001953125
1740006568865268700,5.264268798828125,0.114013671875,0.0099639892578125,1.1992950439453125
1740006568875251500,5.27425146484375,0.212005615234375,-0.0020294189453125,1.17303466796875
1740006568885234700,5.284234619140625,0.2570037841796875,-0.0099639892578125,1.1121368408203125
1740006568895217700,5.2942177734375,0.28179931640625,0.0071258544921875,1.0524139404296875
1740006568905200600,5.30420068359375,0.2978515625,0.02056884765625,1.0236968994140625
1740006568915183600,5.31418359375,0.3175811767578125,0.020965576171875,1.014923095703125
1740006568925166600,5.32416650390625,0.3227386474609375,0.02166748046875,1.04071044921875
1740006568935148800,5.334148681640625,0.2901458740234375,0.0209808349609375,1.0911102294921875
1740006568945131500,5.344131591796875,0.2263336181640625,0.016326904296875,1.133056640625
1740006568955114500,5.354114501953125,0.158599853515625,0.0104827880859375,1.1652679443359375
1740006568965097700,5.36409765625,0.113311767578125,0.0238494873046875,1.2172088623046875
1740006568975080700,5.374080810546875,0.0724639892578125,0.0525665283203125,1.2869873046875
1740006568985063700,5.384063720703125,0.025634765625,0.07232666015625,1.3286895751953125
1740006568995046700,5.394046630859375,-0.01495361328125,0.0729522705078125,1.3408966064453125
1740006569005029600,5.404029541015625,-0.0439453125,0.0721435546875,1.347564697265625
1740006569015011600,5.414011474609375,-0.0735626220703125,0.0819854736328125,1.3829345703125
1740006569024994600,5.42399462890625,-0.1064605712890625,0.0851287841796875,1.42578125
1740006569034977800,5.433977783203125,-0.143218994140625,0.063873291015625,1.4807586669921875
1740006569044960800,5.443960693359375,-0.174041748046875,0.023956298828125,1.5577239990234375
1740006569054943500,5.453943603515625,-0.1717376708984375,-0.009490966796875,1.6450653076171875
1740006569064926700,5.4639267578125,-0.1238555908203125,-0.00225830078125,1.7447509765625
1740006569074909700,5.47390966796875,-0.0509490966796875,0.037689208984375,1.822479248046875
1740006569084892700,5.483892578125,0.016387939453125,0.083526611328125,1.8437042236328125
1740006569094875600,5.493875732421875,0.0351409912109375,0.089630126953125,1.79046630859375
1740006569104857600,5.503857666015625,0.0042572021484375,0.0464324951171875,1.7117156982421875
1740006569114840800,5.5138408203125,-0.0309600830078125,-0.01434326171875,1.6489105224609375
1740006569124823600,5.523823486328125,-0.041748046875,-0.0689697265625,1.571044921875
1740006569134806500,5.533806640625,-0.033660888671875,-0.1044158935546875,1.4913787841796875
1740006569144789800,5.543789794921875,-0.0170440673828125,-0.0973968505859375,1.459442138671875
1740006569154772700,5.553772705078125,0.0038909912109375,-0.0441741943359375,1.4754486083984375
1740006569164755500,5.56375537109375,0.0237274169921875,0.0428466796875,1.53741455078125
1740006569174738700,5.57373876953125,0.040313720703125,0.1462860107421875,1.619415283203125
1740006569184721700,5.5837216796875,0.070159912109375,0.2602691650390625,1.7000579833984375
1740006569194703600,5.59370361328125,0.090362548828125,0.3690032958984375,1.7394866943359375
1740006569204686600,5.6036865234375,0.073028564453125,0.435699462890625,1.740081787109375
1740006569214669800,5.613669921875,0.0339202880859375,0.49688720703125,1.7723541259765625
1740006569224652800,5.62365283203125,-0.0173187255859375,0.5640106201171875,1.7711639404296875
1740006569234635500,5.633635498046875,-0.0837554931640625,0.5987701416015625,1.78125
1740006569244618800,5.64361865234375,-0.1262664794921875,0.617095947265625,1.8118896484375
1740006569254601700,5.653601806640625,-0.1401824951171875,0.62445068359375,1.804901123046875
1740006569264584400,5.66358447265625,-0.168212890625,0.6580047607421875,1.766693115234375
1740006569274566700,5.673566650390625,-0.1865386962890625,0.6599884033203125,1.6389007568359375
1740006569284549600,5.683549560546875,-0.2112274169921875,0.63226318359375,1.4765625
1740006569294532600,5.69353271484375,-0.212249755859375,0.583221435546875,1.299957275390625
1740006569304515600,5.703515625,-0.2053375244140625,0.5443267822265625,1.1679534912109375
1740006569314498600,5.71349853515625,-0.200103759765625,0.5244293212890625,1.073974609375
1740006569324481800,5.723481689453125,-0.18133544921875,0.495208740234375,0.999359130859375
1740006569334464500,5.733464599609375,-0.164520263671875,0.435516357421875,0.9387054443359375
1740006569344447500,5.743447509765625,-0.151031494140625,0.3790130615234375,0.91314697265625
1740006569354430700,5.7534306640625,-0.134674072265625,0.3410186767578125,0.9463958740234375
1740006569364412700,5.76341259765625,-0.12579345703125,0.3604583740234375,1.01123046875
1740006569374395600,5.773395751953125,-0.1114349365234375,0.3766021728515625,1.0336456298828125
1740006569384378600,5.783378662109375,-0.10028076171875,0.358642578125,1.004974365234375
1740006569394361900,5.79336181640625,-0.0832977294921875,0.34246826171875,0.9524688720703125
1740006569404344600,5.803344482421875,-0.065765380859375,0.345123291015625,0.918792724609375
1740006569414327600,5.81332763671875,-0.060791015625,0.3559722900390625,0.9047698974609375
1740006569424310800,5.823310791015625,-0.0594024658203125,0.368804931640625,0.897430419921875
1740006569434293800,5.833293701171875,-0.0583953857421875,0.3850555419921875,0.8834381103515625
1740006569444276500,5.8432763671875,-0.0574798583984375,0.387481689453125,0.885711669921875
1740006569454258700,5.8532587890625,-0.0529937744140625,0.38153076171875,0.9125518798828125
1740006569464241700,5.86324169921875,-0.0292510986328125,0.3997650146484375,0.9160614013671875
1740006569474224600,5.873224609375,-0.0113983154296875,0.4285888671875,0.898681640625
1740006569484207600,5.88320751953125,-0.0102691650390625,0.449737548828125,0.8653106689453125
1740006569494190600,5.893190673828125,-0.025360107421875,0.4567413330078125,0.810028076171875
1740006569504173800,5.903173828125,-0.0510711669921875,0.4576416015625,0.7705535888671875
1740006569514156500,5.913156494140625,-0.0784912109375,0.4738616943359375,0.757537841796875
1740006569524139500,5.923139404296875,-0.1036834716796875,0.488250732421875,0.7521514892578125
1740006569534122800,5.933122802734375,-0.1172943115234375,0.5081634521484375,0.73309326171875
1740006569544104700,5.943104736328125,-0.13543701171875,0.53887939453125,0.7093658447265625
1740006569554087700,5.953087646484375,-0.1624298095703125,0.5628662109375,0.673797607421875
1740006569564070700,5.963070556640625,-0.183563232421875,0.57696533203125,0.642364501953125
1740006569574054000,5.973053955078125,-0.206634521484375,0.5843505859375,0.6378631591796875
1740006569584036600,5.98303662109375,-0.2165679931640625,0.6063385009765625,0.6739654541015625
1740006569594019600,5.99301953125,-0.20745849609375,0.6424713134765625,0.7319488525390625
1740006569604002800,6.0030029296875,-0.187530517578125,0.6657257080078125,0.7794189453125
1740006569613985500,6.012985595703125,-0.1603851318359375,0.6576995849609375,0.7910919189453125
1740006569623967700,6.0229677734375,-0.1527557373046875,0.628936767578125,0.7832489013671875
1740006569633950700,6.03295068359375,-0.1456146240234375,0.6150360107421875,0.7735595703125
1740006569643933400,6.042933349609375,-0.133056640625,0.599945068359375,0.747100830078125
1740006569653916700,6.052916748046875,-0.1272735595703125,0.5609130859375,0.735748291015625
1740006569663899600,6.062899658203125,-0.1089019775390625,0.52294921875,0.7686920166015625
1740006569673882600,6.072882568359375,-0.0823974609375,0.5084381103515625,0.83404541015625
1740006569683865600,6.082865478515625,-0.0620574951171875,0.4945526123046875,0.901641845703125
1740006569693848600,6.0928486328125,-0.043121337890625,0.47540283203125,0.9756011962890625
1740006569703831600,6.10283154296875,-0.027191162109375,0.47247314453125,1.075653076171875
1740006569713813500,6.1128134765625,0.0059356689453125,0.482635498046875,1.19110107421875
1740006569723796500,6.12279638671875,0.039825439453125,0.5064239501953125,1.2999267578125
1740006569733779700,6.13277978515625,0.05596923828125,0.543212890625,1.39508056640625
1740006569743762700,6.1427626953125,0.0455474853515625,0.5708770751953125,1.46484375
1740006569753745700,6.15274560546875,0.0125274658203125,0.5841064453125,1.5171051025390625
1740006569763728600,6.162728759765625,-0.0377349853515625,0.588653564453125,1.567901611328125
1740006569773711600,6.172711669921875,-0.0962982177734375,0.580169677734375,1.630889892578125
1740006569783694800,6.18269482421875,-0.157379150390625,0.5511932373046875,1.691741943359375
1740006569793677600,6.192677490234375,-0.1932373046875,0.497100830078125,1.722900390625
1740006569803659800,6.20265966796875,-0.193084716796875,0.4323883056640625,1.6883544921875
1740006569813642800,6.212642822265625,-0.158172607421875,0.3729400634765625,1.598724365234375
1740006569823625500,6.22262548828125,-0.1326141357421875,0.32232666015625,1.51727294921875
1740006569833608700,6.232608642578125,-0.1312713623046875,0.26373291015625,1.4341278076171875
1740006569843592000,6.242592041015625,-0.109619140625,0.2056121826171875,1.3489532470703125
1740006569853575000,6.252574951171875,-0.0707550048828125,0.1646575927734375,1.28692626953125
1740006569863558100,6.26255810546875,-0.0467681884765625,0.1213531494140625,1.250701904296875
1740006569873540900,6.272540771484375,-0.037841796875,0.076416015625,1.22674560546875
1740006569883523000,6.282523193359375,-0.0258941650390625,0.03466796875,1.1926727294921875
1740006569893506000,6.292506103515625,-0.0137939453125,0.016143798828125,1.1671600341796875
1740006569903488800,6.30248876953125,-0.0172271728515625,0.00537109375,1.15020751953125
1740006569913472000,6.312471923828125,-0.034759521484375,-0.002197265625,1.14031982421875
1740006569923455000,6.322455078125,-0.0617218017578125,-0.0099029541015625,1.130950927734375
1740006569933438000,6.33243798828125,-0.1009368896484375,-0.0205535888671875,1.1092071533203125
1740006569943421000,6.3424208984375,-0.13458251953125,-0.03314208984375,1.0676422119140625
1740006569953404000,6.35240380859375,-0.152130126953125,-0.043121337890625,1.04913330078125
1740006569963387100,6.36238720703125,-0.152313232421875,-0.035430908203125,1.0720062255859375
1740006569973368800,6.372368896484375,-0.1453704833984375,-0.01727294921875,1.0986785888671875
1740006569983352000,6.38235205078125,-0.1330108642578125,-0.0231781005859375,1.1225433349609375
1740006569993335000,6.3923349609375,-0.0951995849609375,-0.0319366455078125,1.1129608154296875
1740006570003318000,6.402318115234375,-0.060028076171875,-0.01336669921875,1.1460418701171875
1740006570013301000,6.412301025390625,-0.0335540771484375,-0.0110626220703125,1.1854705810546875
1740006570023284000,6.422283935546875,-0.007354736328125,-0.0200958251953125,1.22442626953125
1740006570033267000,6.432266845703125,0.0048828125,-0.0194854736328125,1.256866455078125
1740006570043250200,6.442250244140625,0.0025787353515625,-0.004425048828125,1.30804443359375
1740006570053233000,6.45223291015625,-0.00225830078125,0.0095672607421875,1.3732147216796875
1740006570063215000,6.462215087890625,-0.008697509765625,0.0240020751953125,1.432830810546875
1740006570073198000,6.472197998046875,-0.027130126953125,0.046173095703125,1.5009613037109375
1740006570083180800,6.482180908203125,-0.063262939453125,0.0329437255859375,1.5710601806640625
1740006570093164000,6.4921640625,-0.0645904541015625,0.0035552978515625,1.6339569091796875
1740006570103147000,6.50214697265625,-0.0366973876953125,-0.01995849609375,1.68927001953125
1740006570113130000,6.5121298828125,-0.0196685791015625,-0.0536346435546875,1.7338409423828125
1740006570123113000,6.522113037109375,-0.0075531005859375,-0.0826873779296875,1.76617431640625
1740006570133096000,6.532095947265625,0.00518798828125,-0.074798583984375,1.7958221435546875
1740006570143078100,6.542078125,-0.003814697265625,-0.0482025146484375,1.81781005859375
1740006570153060900,6.552060791015625,-0.0420074462890625,-0.0297088623046875,1.798919677734375
1740006570163044000,6.562044189453125,-0.090362548828125,-0.0181732177734375,1.7484893798828125
1740006570173027000,6.572027099609375,-0.1443328857421875,-0.0191650390625,1.6828155517578125
1740006570183010000,6.582010009765625,-0.1720733642578125,-0.038055419921875,1.6133270263671875
1740006570192993000,6.591992919921875,-0.1669158935546875,-0.06011962890625,1.5323028564453125
1740006570202976000,6.60197607421875,-0.1428985595703125,-0.0719451904296875,1.4483642578125
1740006570212959000,6.611958984375,-0.105072021484375,-0.074920654296875,1.3942718505859375
1740006570222942000,6.62194189453125,-0.0653839111328125,-0.060272216796875,1.3622589111328125
1740006570232924000,6.631923828125,-0.025390625,-0.026458740234375,1.3628082275390625
1740006570242907100,6.6419072265625,0.0055999755859375,0.029510498046875,1.384307861328125
1740006570252889900,6.651889892578125,0.02447509765625,0.0938873291015625,1.411163330078125
1740006570262872800,6.661872802734375,0.0254669189453125,0.1581878662109375,1.4467620849609375
1740006570272856000,6.67185595703125,0.01470947265625,0.234222412109375,1.497222900390625
1740006570282839000,6.681839111328125,-0.003143310546875,0.314666748046875,1.544891357421875
1740006570292821800,6.69182177734375,-0.02386474609375,0.3866729736328125,1.561737060546875
1740006570302805000,6.701804931640625,-0.0514678955078125,0.4391632080078125,1.5558929443359375
1740006570312788000,6.7117880859375,-0.0846405029296875,0.4657135009765625,1.5183258056640625
1740006570322770000,6.72177001953125,-0.1157684326171875,0.465087890625,1.4551239013671875
1740006570332753000,6.7317529296875,-0.1405029296875,0.455352783203125,1.3867034912109375
1740006570342736100,6.741736083984375,-0.156463623046875,0.4380645751953125,1.3395538330078125
1740006570352719000,6.751718994140625,-0.1612701416015625,0.4259185791015625,1.30889892578125
1740006570362701800,6.761701904296875,-0.1741180419921875,0.4044952392578125,1.274017333984375
1740006570372685000,6.77168505859375,-0.194488525390625,0.3767547607421875,1.2363433837890625
1740006570382668000,6.78166796875,-0.20050048828125,0.349365234375,1.1804351806640625
1740006570392651000,6.791651123046875,-0.199615478515625,0.3236236572265625,1.127471923828125
1740006570402633000,6.801633056640625,-0.2058563232421875,0.30645751953125,1.1160736083984375
1740006570412616000,6.811615966796875,-0.210784912109375,0.314239501953125,1.1109619140625
1740006570422599200,6.82159912109375,-0.2148895263671875,0.310272216796875,1.0798187255859375
1740006570432582000,6.831581787109375,-0.200103759765625,0.287261962890625,1.0562591552734375
1740006570442564900,6.84156494140625,-0.18145751953125,0.30029296875,1.0657958984375
1740006570452548000,6.851548095703125,-0.1843719482421875,0.32806396484375,1.0872650146484375
1740006570462531000,6.861531005859375,-0.1939849853515625,0.337921142578125,1.0901641845703125
1740006570472513800,6.871513671875,-0.187744140625,0.34954833984375,1.077423095703125
1740006570482497000,6.8814970703125,-0.183441162109375,0.37066650390625,1.0590667724609375
1740006570492479000,6.89147900390625,-0.1887359619140625,0.3936309814453125,1.03515625
1740006570502462000,6.9014619140625,-0.1965484619140625,0.4148101806640625,1.018951416015625
1740006570512445000,6.91144482421875,-0.205413818359375,0.4251251220703125,1.0143890380859375
1740006570522428200,6.92142822265625,-0.2099609375,0.430511474609375,1.0172271728515625
1740006570532411100,6.9314111328125,-0.2088165283203125,0.4299163818359375,1.0188140869140625
1740006570542393900,6.941393798828125,-0.191253662109375,0.427520751953125,1.0283660888671875
1740006570552377000,6.951377197265625,-0.157501220703125,0.4466094970703125,1.061492919921875
1740006570562360000,6.961360107421875,-0.11529541015625,0.48016357421875,1.095855712890625
1740006570572342000,6.971342041015625,-0.06658935546875,0.5228729248046875,1.109893798828125
1740006570582325000,6.981324951171875,-0.0252532958984375,0.552825927734375,1.102081298828125
1740006570592308000,6.991307861328125,-0.0075531005859375,0.569122314453125,1.0825042724609375
1740006570602291000,7.001291015625,-0.0040130615234375,0.582244873046875,1.054046630859375
1740006570612274000,7.01127392578125,-0.005218505859375,0.5950927734375,1.018463134765625
1740006570622257000,7.0212568359375,-0.015899658203125,0.61077880859375,0.9688873291015625
1740006570632240000,7.031240234375,-0.044189453125,0.618865966796875,0.9165496826171875
1740006570642222800,7.041222900390625,-0.07110595703125,0.6304779052734375,0.884002685546875
1740006570652205800,7.051205810546875,-0.097015380859375,0.6593017578125,0.8816986083984375
1740006570662188000,7.06118798828125,-0.1246795654296875,0.6907806396484375,0.8928070068359375
1740006570672170800,7.071170654296875,-0.15643310546875,0.692840576171875,0.878265380859375
1740006570682154000,7.081154052734375,-0.1759033203125,0.66229248046875,0.8206787109375
1740006570692137000,7.091136962890625,-0.1734466552734375,0.63311767578125,0.745697021484375
1740006570702120200,7.1011201171875,-0.168975830078125,0.606353759765625,0.6798858642578125
1740006570712103000,7.11110302734375,-0.16009521484375,0.5824432373046875,0.633392333984375
1740006570722086000,7.1210859375,-0.1429290771484375,0.5602264404296875,0.607208251953125
1740006570732069000,7.131069091796875,-0.1266326904296875,0.55279541015625,0.6070709228515625
1740006570742052000,7.141052001953125,-0.12078857421875,0.54107666015625,0.6148223876953125
1740006570752034000,7.151033935546875,-0.1354827880859375,0.5091705322265625,0.6255950927734375
1740006570762017000,7.16101708984375,-0.1541595458984375,0.4761962890625,0.6490478515625
1740006570772000000,7.171,-0.1670989990234375,0.4496307373046875,0.7144622802734375
1740006570781983000,7.18098291015625,-0.155853271484375,0.4394683837890625,0.8060150146484375
1740006570791966000,7.190966064453125,-0.122283935546875,0.4367828369140625,0.9119720458984375
1740006570801949000,7.200948974609375,-0.0704345703125,0.43731689453125,1.0492706298828125
1740006570811932200,7.21093212890625,0.0006866455078125,0.4293670654296875,1.20159912109375
1740006570821915000,7.220914794921875,0.079833984375,0.4289093017578125,1.312957763671875
1740006570831897000,7.23089697265625,0.1522674560546875,0.432891845703125,1.3609619140625
1740006570841880000,7.240880126953125,0.2081451416015625,0.424713134765625,1.35894775390625
1740006570851862500,7.250862548828125,0.2355804443359375,0.4034423828125,1.3200531005859375
1740006570861845500,7.260845458984375,0.2335662841796875,0.3778228759765625,1.2552490234375
1740006570871828500,7.270828369140625,0.21087646484375,0.355224609375,1.1869964599609375
1740006570881811700,7.280811767578125,0.176483154296875,0.333709716796875,1.1251373291015625
1740006570891794400,7.29079443359375,0.1275482177734375,0.3104248046875,1.0791473388671875
1740006570901777400,7.30077734375,0.0748748779296875,0.303558349609375,1.0608062744140625
1740006570911760600,7.3107607421875,0.01141357421875,0.2981109619140625,1.0508880615234375
1740006570921742300,7.320742431640625,-0.0585174560546875,0.298919677734375,1.0442657470703125
1740006570931725600,7.3307255859375,-0.11444091796875,0.2957305908203125,1.039520263671875
1740006570941708500,7.34070849609375,-0.1589813232421875,0.27288818359375,1.0447235107421875
1740006570951691500,7.35069140625,-0.1679840087890625,0.2452239990234375,1.0619964599609375
1740006570961674500,7.360674560546875,-0.144012451171875,0.2233123779296875,1.0858154296875
1740006570971657500,7.370657470703125,-0.1147613525390625,0.1896209716796875,1.11785888671875
1740006570981640700,7.380640625,-0.077239990234375,0.16326904296875,1.151580810546875
1740006570991623700,7.390623779296875,-0.0302581787109375,0.1632080078125,1.19268798828125
1740006571001606400,7.4006064453125,0.0021209716796875,0.163299560546875,1.208740234375
1740006571011588600,7.410588623046875,0.0102691650390625,0.138641357421875,1.205413818359375
1740006571021571600,7.420571533203125,0.0136566162109375,0.123504638671875,1.220245361328125
1740006571031554600,7.430554443359375,0.0147247314453125,0.1085662841796875,1.247772216796875
1740006571041537500,7.44053759765625,0.0215301513671875,0.09130859375,1.27008056640625
1740006571051520500,7.4505205078125,0.0184783935546875,0.0734405517578125,1.272918701171875
1740006571061503500,7.46050341796875,0.00640869140625,0.071044921875,1.2742156982421875
1740006571071486500,7.470486572265625,-0.0231170654296875,0.0872802734375,1.2852630615234375
1740006571081469400,7.480469482421875,-0.0556182861328125,0.0923004150390625,1.31365966796875
1740006571091451400,7.490451416015625,-0.07421875,0.091461181640625,1.34832763671875
1740006571101434400,7.500434326171875,-0.0725860595703125,0.0941314697265625,1.383758544921875
1740006571111417600,7.51041748046875,-0.05450439453125,0.1062164306640625,1.400390625
1740006571121400600,7.520400634765625,-0.0362701416015625,0.124725341796875,1.433685302734375
1740006571131383300,7.53038330078125,-0.0493927001953125,0.1309661865234375,1.5431060791015625
1740006571141366500,7.540366455078125,-0.071380615234375,0.1339569091796875,1.66558837890625
1740006571151349500,7.550349609375,-0.0727691650390625,0.1390533447265625,1.7597503662109375
1740006571161332500,7.56033251953125,-0.0806732177734375,0.1304168701171875,1.7669677734375
1740006571171315500,7.5703154296875,-0.0560760498046875,0.130859375,1.7409210205078125
1740006571181297700,7.580297607421875,-0.0055084228515625,0.158599853515625,1.7083282470703125
1740006571191280600,7.59028076171875,0.0207977294921875,0.189697265625,1.6732940673828125
1740006571201263400,7.600263427734375,0.0136566162109375,0.194244384765625,1.6434173583984375
1740006571211246600,7.61024658203125,-0.005126953125,0.1659393310546875,1.60540771484375
1740006571221229600,7.6202294921875,-0.0165252685546875,0.1188507080078125,1.5803070068359375
1740006571231212500,7.630212646484375,-0.0249176025390625,0.0760040283203125,1.5851593017578125
1740006571241195500,7.640195556640625,-0.0243377685546875,0.0459136962890625,1.60174560546875
1740006571251178500,7.650178466796875,-0.015777587890625,-0.00994873046875,1.5891571044921875
1740006571261161500,7.660161376953125,-0.01190185546875,-0.10040283203125,1.51751708984375
1740006571271143400,7.670143310546875,-0.010498046875,-0.186798095703125,1.4287872314453125
1740006571281126400,7.68012646484375,-0.0092010498046875,-0.2294464111328125,1.3595428466796875
1740006571291109600,7.690109619140625,-0.0152130126953125,-0.223876953125,1.333892822265625
1740006571301092600,7.700092529296875,-0.016265869140625,-0.1865386962890625,1.353179931640625
1740006571311075300,7.710075439453125,-0.0140380859375,-0.127685546875,1.395904541015625
1740006571321058600,7.72005859375,-0.015289306640625,-0.0503082275390625,1.458404541015625
1740006571331041500,7.73004150390625,-0.0164031982421875,0.0379486083984375,1.52825927734375
1740006571341024500,7.7400244140625,-0.024749755859375,0.12518310546875,1.5774383544921875
1740006571351006500,7.75000634765625,-0.0308990478515625,0.212921142578125,1.6083221435546875
1740006571360989700,7.75998974609375,-0.0307464599609375,0.29681396484375,1.633087158203125
1740006571370972700,7.76997265625,-0.0304107666015625,0.3662872314453125,1.6231842041015625
1740006571380955400,7.779955322265625,-0.029022216796875,0.424530029296875,1.586273193359375
1740006571390938600,7.789938720703125,-0.0289459228515625,0.475250244140625,1.52362060546875
1740006571400921600,7.799921630859375,-0.047607421875,0.5055694580078125,1.45147705078125
1740006571410904300,7.809904296875,-0.070587158203125,0.5130157470703125,1.372161865234375
1740006571420887600,7.819887451171875,-0.0794830322265625,0.5001220703125,1.27984619140625
1740006571430870500,7.82987060546875,-0.08648681640625,0.480438232421875,1.1992645263671875
1740006571440852700,7.839852783203125,-0.089996337890625,0.4671630859375,1.13861083984375
1740006571450836500,7.84983642578125,-0.091766357421875,0.4550933837890625,1.0816650390625
1740006571460818400,7.859818359375,-0.0899658203125,0.4370269775390625,1.025390625
1740006571470801700,7.8698017578125,-0.084381103515625,0.4139862060546875,0.9849700927734375
1740006571480784400,7.879784423828125,-0.079254150390625,0.3936614990234375,0.9507904052734375
1740006571490767400,7.889767333984375,-0.073516845703125,0.3743438720703125,0.9351654052734375
1740006571500750600,7.89975048828125,-0.061065673828125,0.357574462890625,0.9464874267578125
1740006571510733600,7.909733642578125,-0.024078369140625,0.338623046875,0.9490966796875
1740006571520716500,7.919716552734375,0.024139404296875,0.334564208984375,0.959197998046875
1740006571530699500,7.929699462890625,0.042938232421875,0.34124755859375,0.98260498046875
1740006571540681700,7.939681640625,0.0295562744140625,0.35296630859375,0.9965057373046875
1740006571550664400,7.94966455078125,0.02191162109375,0.36279296875,0.9847259521484375
1740006571560647400,7.9596474609375,0.0230865478515625,0.3724365234375,0.955413818359375
1740006571570630700,7.969630615234375,0.0169525146484375,0.3856201171875,0.9333648681640625
1740006571580613600,7.979613525390625,-0.0099639892578125,0.3973388671875,0.9282073974609375
1740006571590596400,7.989596435546875,-0.03375244140625,0.398468017578125,0.93621826171875
1740006571600579600,7.99957958984375,-0.0463409423828125,0.4058074951171875,0.9569091796875
1740006571610562600,8.0095625,-0.05511474609375,0.4264068603515625,0.98736572265625
1740006571620545500,8.019545654296875,-0.06103515625,0.4495849609375,1.0186920166015625
1740006571630527500,8.029527587890625,-0.0673828125,0.4728851318359375,1.041534423828125
1740006571640510500,8.039510498046875,-0.0766143798828125,0.4959564208984375,1.051483154296875
1740006571650493700,8.04949365234375,-0.086273193359375,0.5236968994140625,1.0643157958984375
1740006571660476400,8.059476318359375,-0.0982208251953125,0.5521697998046875,1.074554443359375
1740006571670459400,8.06945947265625,-0.1041412353515625,0.5771026611328125,1.0717620849609375
1740006571680442600,8.079442626953124,-0.1092987060546875,0.5908203125,1.0557098388671875
1740006571690425600,8.089425537109374,-0.1149444580078125,0.5872039794921875,1.0287933349609375
1740006571700408600,8.09940869140625,-0.119659423828125,0.5747833251953125,1.0083465576171875
1740006571710390500,8.109390625,-0.1131591796875,0.5751190185546875,1.0127410888671875
1740006571720373500,8.11937353515625,-0.0911102294921875,0.604736328125,1.036224365234375
1740006571730356500,8.1293564453125,-0.0760345458984375,0.6430511474609375,1.0502166748046875
1740006571740339500,8.13933935546875,-0.0682525634765625,0.6612701416015625,1.05120849609375
1740006571750322700,8.14932275390625,-0.0634918212890625,0.65899658203125,1.02789306640625
1740006571760305700,8.1593056640625,-0.0615386962890625,0.639251708984375,1.0043182373046875
1740006571770288400,8.169288330078125,-0.0714874267578125,0.61224365234375,0.9703521728515625
1740006571780271600,8.179271728515625,-0.0784454345703125,0.5604705810546875,0.899261474609375
1740006571790254600,8.189254638671875,-0.0742950439453125,0.4894561767578125,0.81396484375
1740006571800236500,8.199236572265624,-0.06964111328125,0.4349365234375,0.74383544921875
1740006571810219500,8.209219482421876,-0.067626953125,0.3967437744140625,0.7122650146484375
1740006571820202500,8.219202392578126,-0.0580291748046875,0.357940673828125,0.7139129638671875
1740006571830185500,8.229185546875,-0.03546142578125,0.3201446533203125,0.734161376953125
1740006571840168400,8.23916845703125,0.0010528564453125,0.3120574951171875,0.79534912109375
1740006571850152200,8.249152099609375,0.0428009033203125,0.3310089111328125,0.874267578125
1740006571860134100,8.259134033203125,0.076507568359375,0.3471832275390625,0.9547271728515625
1740006571870117000,8.2691171875,0.103485107421875,0.351348876953125,1.0347747802734375
1740006571880100400,8.279100341796875,0.133697509765625,0.3504486083984375,1.0951690673828125
1740006571890083300,8.289083251953125,0.1622467041015625,0.3501739501953125,1.1459503173828125
1740006571900066000,8.299066162109375,0.1887054443359375,0.3407745361328125,1.18719482421875
1740006571910049300,8.30904931640625,0.21343994140625,0.3229827880859375,1.205657958984375
1740006571920032300,8.3190322265625,0.2342376708984375,0.2973175048828125,1.2071380615234375
1740006571930015200,8.32901513671875,0.248291015625,0.264251708984375,1.1920928955078125
1740006571939998200,8.338998291015624,0.2578887939453125,0.2310028076171875,1.1492919921875
1740006571949980200,8.348980224609376,0.2577667236328125,0.20562744140625,1.0990447998046875
1740006571959963400,8.35896337890625,0.2501678466796875,0.1906890869140625,1.047607421875
1740006571969946000,8.368946044921875,0.228240966796875,0.185882568359375,0.9852752685546875
1740006571979929000,8.37892919921875,0.187957763671875,0.1825714111328125,0.915740966796875
1740006571989912300,8.388912353515625,0.1347503662109375,0.180999755859375,0.858642578125
1740006571999895300,8.398895263671875,0.07098388671875,0.18011474609375,0.8183441162109375
1740006572009878300,8.408878173828125,0.0091400146484375,0.18145751953125,0.796600341796875
1740006572019861200,8.418861328125,-0.0417633056640625,0.1767425537109375,0.7957305908203125
1740006572029843500,8.428843505859374,-0.08514404296875,0.1703643798828125,0.8194122314453125
1740006572039826200,8.438826171875,-0.1090545654296875,0.1683807373046875,0.8173370361328125
1740006572049809200,8.44880908203125,-0.124359130859375,0.1702880859375,0.797760009765625
1740006572059792400,8.45879248046875,-0.14111328125,0.1648712158203125,0.7885284423828125
1740006572069775400,8.468775390625,-0.1612548828125,0.146331787109375,0.8048248291015625
1740006572079758000,8.478758056640626,-0.1634674072265625,0.1269989013671875,0.8324432373046875
1740006572089741300,8.4887412109375,-0.1706695556640625,0.1230926513671875,0.8762969970703125
1740006572099724300,8.498724365234375,-0.201690673828125,0.11224365234375,0.9150848388671875
1740006572109707000,8.50870703125,-0.206329345703125,0.08599853515625,0.93865966796875
1740006572119689200,8.518689208984375,-0.19329833984375,0.057647705078125,0.95458984375
1740006572129672200,8.528672119140625,-0.1740875244140625,0.0495147705078125,1.0022430419921875
1740006572139655400,8.538655517578125,-0.150177001953125,0.06146240234375,1.08984375
1740006572149638100,8.54863818359375,-0.1124267578125,0.076141357421875,1.1927490234375
1740006572159621000,8.55862109375,-0.0759429931640625,0.0812835693359375,1.2903289794921875
1740006572169604400,8.568604248046874,-0.0559234619140625,0.0752410888671875,1.368438720703125
1740006572179587000,8.578587158203124,-0.0456695556640625,0.071044921875,1.425811767578125
1740006572189570300,8.5885703125,-0.032958984375,0.0601348876953125,1.46343994140625
1740006572199552300,8.59855224609375,-0.0229949951171875,0.055145263671875,1.522705078125
1740006572209535200,8.60853515625,-0.0031890869140625,0.054779052734375,1.5981292724609375
1740006572219518200,8.618518310546875,0.022979736328125,0.070831298828125,1.669647216796875
1740006572229501200,8.628501220703125,0.028717041015625,0.0818634033203125,1.7263031005859375
1740006572239484400,8.638484375,-0.0126495361328125,0.0782623291015625,1.7685546875
1740006572249467100,8.648467041015625,-0.0650177001953125,0.085845947265625,1.79931640625
1740006572259450000,8.6584501953125,-0.0935516357421875,0.092437744140625,1.8548126220703125
1740006572269433300,8.668433349609375,-0.0617523193359375,0.0964508056640625,1.948974609375
1740006572279416300,8.678416259765624,0.072998046875,0.116241455078125,2.0616912841796875
1740006572289398300,8.688398193359374,0.2646484375,0.103973388671875,2.141021728515625
1740006572299381200,8.69838134765625,0.4476470947265625,0.050628662109375,2.09942626953125
1740006572309364200,8.7083642578125,0.5419158935546875,-0.0172576904296875,1.92266845703125
1740006572319347200,8.71834716796875,0.598480224609375,-0.06463623046875,1.74908447265625
1740006572329330200,8.728330078125,0.6529388427734375,-0.0679779052734375,1.6078033447265625
1740006572339313200,8.738313232421875,0.6572723388671875,-0.0540771484375,1.4633941650390625
1740006572349296400,8.74829638671875,0.6064605712890625,-0.0549774169921875,1.3292388916015625
1740006572359279000,8.758279052734375,0.5092315673828125,-0.0668182373046875,1.226318359375
1740006572369261300,8.76826123046875,0.3820037841796875,-0.0709991455078125,1.1715850830078125
1740006572379244300,8.778244384765625,0.2403717041015625,-0.0440673828125,1.1959991455078125
1740006572389227300,8.788227294921874,0.120452880859375,0.0176239013671875,1.2602691650390625
1740006572399210200,8.798210205078124,0.0230560302734375,0.0960540771484375,1.3174591064453125
1740006572409193200,8.808193115234374,-0.0597991943359375,0.181976318359375,1.36663818359375
1740006572419176400,8.818176513671874,-0.108306884765625,0.277130126953125,1.39434814453125
1740006572429159200,8.8281591796875,-0.13360595703125,0.3639984130859375,1.4198760986328125
1740006572439142100,8.83814208984375,-0.1528778076171875,0.4409637451171875,1.4268646240234375
1740006572449125400,8.84812548828125,-0.183258056640625,0.494415283203125,1.3908233642578125
1740006572459107000,8.858107177734375,-0.2158355712890625,0.5160675048828125,1.3416290283203125
1740006572469090300,8.86809033203125,-0.2456207275390625,0.5136871337890625,1.2762451171875
1740006572479073300,8.8780732421875,-0.2603912353515625,0.4954071044921875,1.2104034423828125
1740006572489056300,8.88805615234375,-0.2596435546875,0.4720916748046875,1.160552978515625
1740006572499039200,8.898039306640625,-0.2397613525390625,0.439971923828125,1.133636474609375
1740006572509022200,8.908022216796875,-0.19598388671875,0.39715576171875,1.0986785888671875
1740006572519005200,8.918005126953124,-0.1322021484375,0.366546630859375,1.05364990234375
1740006572528988200,8.92798828125,-0.0796966552734375,0.3554534912109375,1.01605224609375
1740006572538970000,8.93797021484375,-0.05126953125,0.346527099609375,0.9907989501953125
1740006572548953300,8.947953369140626,-0.0406494140625,0.32696533203125,0.9644317626953125
1740006572558936000,8.95793603515625,-0.0399017333984375,0.3014984130859375,0.949951171875
1740006572568919300,8.967919189453125,-0.055999755859375,0.2785186767578125,0.9853363037109375
1740006572578902300,8.97790234375,-0.073150634765625,0.26922607421875,1.0490570068359375
1740006572588885200,8.98788525390625,-0.07135009765625,0.2835235595703125,1.0702362060546875
1740006572598868200,8.9978681640625,-0.07281494140625,0.30657958984375,1.06494140625
1740006572608851200,9.007851318359375,-0.0935211181640625,0.3259124755859375,1.0433197021484375
1740006572618834200,9.017834228515625,-0.1186370849609375,0.3408660888671875,1.023468017578125
1740006572628816100,9.027816162109374,-0.132293701171875,0.370635986328125,1.0133056640625
1740006572638799000,9.037799072265624,-0.136505126953125,0.4117431640625,1.017578125
1740006572648782300,9.0477822265625,-0.14227294921875,0.4473419189453125,1.0265655517578125
1740006572658765300,9.057765380859376,-0.147705078125,0.4747772216796875,1.0211334228515625
1740006572668748000,9.067748046875,-0.153228759765625,0.491668701171875,1.0125274658203125
1740006572678731300,9.077731201171876,-0.1488494873046875,0.5070037841796875,1.01483154296875
1740006572688714200,9.08771435546875,-0.1342010498046875,0.52130126953125,1.0065460205078125
1740006572698697200,9.097697265625,-0.1031036376953125,0.5412750244140625,0.9982147216796875
1740006572708679200,9.10767919921875,-0.07379150390625,0.562164306640625,0.993927001953125
1740006572718662100,9.117662109375,-0.0400390625,0.58807373046875,0.9877166748046875
1740006572728645400,9.127645263671875,-0.0081329345703125,0.6156158447265625,0.972412109375
1740006572738628000,9.137628173828125,0.020965576171875,0.6410064697265625,0.9548187255859375
1740006572748611300,9.147611328125,0.0313720703125,0.663818359375,0.933074951171875
1740006572758594300,9.15759423828125,0.0257720947265625,0.6816253662109375,0.90155029296875
1740006572768577300,9.167577392578124,0.0066375732421875,0.6939239501953125,0.86724853515625
1740006572778560300,9.177560302734374,-0.0279388427734375,0.70135498046875,0.8427734375
1740006572788543200,9.187543212890626,-0.071868896484375,0.7196807861328125,0.84747314453125
1740006572798525400,9.197525390625,-0.1194305419921875,0.7484130859375,0.88421630859375
1740006572808508200,9.207508056640625,-0.155426025390625,0.75628662109375,0.9113922119140625
1740006572818491100,9.2174912109375,-0.177215576171875,0.7200164794921875,0.8868560791015625
1740006572828474400,9.227474365234375,-0.17041015625,0.6613311767578125,0.86663818359375
1740006572838457300,9.237457275390625,-0.1049957275390625,0.6154632568359375,0.8828887939453125
1740006572848439600,9.247439453125,-0.0063934326171875,0.5748443603515625,0.901153564453125
1740006572858422500,9.257422607421875,0.0787353515625,0.5352935791015625,0.89776611328125
1740006572868405500,9.267405517578124,0.1354522705078125,0.49530029296875,0.8803253173828125
1740006572878387500,9.277387451171874,0.1706390380859375,0.446868896484375,0.8532867431640625
1740006572888370400,9.287370361328126,0.1844635009765625,0.395355224609375,0.83807373046875
1740006572898353700,9.297353759765626,0.1842498779296875,0.3530426025390625,0.85809326171875
1740006572908336600,9.307336669921876,0.181793212890625,0.333465576171875,0.9145965576171875
1740006572918319400,9.3173193359375,0.1790618896484375,0.34075927734375,1.0047760009765625
1740006572928302600,9.327302490234375,0.1854705810546875,0.3603363037109375,1.0948638916015625
1740006572938285600,9.33728564453125,0.2159881591796875,0.3869476318359375,1.1428985595703125
1740006572948268300,9.347268310546875,0.2528228759765625,0.40966796875,1.1721649169921875
1740006572958250500,9.35725048828125,0.2658843994140625,0.43646240234375,1.1895751953125
1740006572968233500,9.3672333984375,0.25152587890625,0.4654998779296875,1.1880950927734375
1740006572978216400,9.377216552734374,0.2243804931640625,0.4631805419921875,1.1546173095703125
1740006572988199400,9.387199462890624,0.1793975830078125,0.4257354736328125,1.1094818115234375
1740006572998182700,9.3971826171875,0.1246795654296875,0.381317138671875,1.062286376953125
1740006573008165600,9.40716552734375,0.08087158203125,0.344757080078125,1.0215606689453125
1740006573018148400,9.4171484375,0.0453643798828125,0.310394287109375,0.9938201904296875
1740006573028131600,9.427131591796876,0.0167388916015625,0.279876708984375,0.96148681640625
1740006573038114600,9.437114501953126,0.001708984375,0.2511444091796875,0.914764404296875
1740006573048096500,9.447096435546875,-0.0041656494140625,0.2364501953125,0.8632965087890625
1740006573058079500,9.45707958984375,-0.0229949951171875,0.2403717041015625,0.8164215087890625
1740006573068062500,9.4670625,-0.0496063232421875,0.247467041015625,0.792266845703125
1740006573078045700,9.477045654296875,-0.0720977783203125,0.2498016357421875,0.7888031005859375
1740006573088028400,9.4870283203125,-0.08740234375,0.247955322265625,0.8127593994140625
1740006573098011400,9.497011474609375,-0.1011199951171875,0.24658203125,0.869842529296875
1740006573107994600,9.50699462890625,-0.1017913818359375,0.2462005615234375,0.951202392578125
1740006573117977600,9.5169775390625,-0.0813446044921875,0.209869384765625,1.000030517578125
1740006573127959600,9.52695947265625,-0.0538177490234375,0.170684814453125,1.0332183837890625
1740006573137942500,9.536942626953126,-0.0188751220703125,0.1473846435546875,1.058746337890625
1740006573147925500,9.546925537109376,0.0156402587890625,0.1426544189453125,1.089996337890625
1740006573157908500,9.556908447265625,0.0442657470703125,0.155120849609375,1.14141845703125
1740006573167891500,9.566891357421875,0.061248779296875,0.158172607421875,1.1986236572265625
1740006573177874700,9.576874755859375,0.0783538818359375,0.1597137451171875,1.22857666015625
1740006573187857700,9.586857666015625,0.0775146484375,0.157623291015625,1.2396240234375
1740006573197840400,9.59684033203125,0.0632476806640625,0.15802001953125,1.27044677734375
1740006573207823600,9.60682373046875,0.0485687255859375,0.1842193603515625,1.310546875
1740006573217805600,9.6168056640625,0.0241241455078125,0.2046051025390625,1.352783203125
1740006573227788500,9.62678857421875,0.0021209716796875,0.2022247314453125,1.3957672119140625
1740006573237771500,9.636771484375,-0.0085296630859375,0.215484619140625,1.4547119140625
1740006573247754500,9.64675439453125,0.021240234375,0.2307891845703125,1.52252197265625
1740006573257737700,9.65673779296875,0.0537567138671875,0.2228240966796875,1.56854248046875
1740006573267720400,9.666720458984376,0.0926361083984375,0.2023773193359375,1.5906219482421875
1740006573277703400,9.676703369140625,0.17987060546875,0.2203826904296875,1.622589111328125
1740006573287686700,9.686686767578125,0.2503662109375,0.2749176025390625,1.665283203125
1740006573297668400,9.69666845703125,0.2670135498046875,0.314697265625,1.7146453857421875
1740006573307651600,9.706651611328125,0.2274627685546875,0.312713623046875,1.75592041015625
1740006573317634600,9.716634521484375,0.1616973876953125,0.311767578125,1.84857177734375
1740006573327617300,9.7266171875,0.084381103515625,0.32952880859375,1.9779815673828125
1740006573337600500,9.7366005859375,0.0274810791015625,0.3119964599609375,2.0713653564453125
1740006573347583500,9.74658349609375,0.01080322265625,0.2607269287109375,2.0586090087890625
1740006573357566700,9.756566650390624,0.0245208740234375,0.185882568359375,1.934478759765625
1740006573367549400,9.766549560546874,0.060791015625,0.1062469482421875,1.758056640625
1740006573377531600,9.77653173828125,0.1022491455078125,0.032440185546875,1.5712738037109375
1740006573387514600,9.7865146484375,0.1202239990234375,-0.032989501953125,1.3965911865234375
1740006573397497300,9.796497314453125,0.1214141845703125,-0.082733154296875,1.2678375244140625
1740006573407480600,9.80648046875,0.127410888671875,-0.105224609375,1.185943603515625
1740006573417463600,9.816463623046875,0.136871337890625,-0.1034088134765625,1.1501617431640625
1740006573427446500,9.826446533203125,0.1516876220703125,-0.091217041015625,1.1562042236328125
1740006573437429500,9.836429443359375,0.1712493896484375,-0.0603485107421875,1.17913818359375
1740006573447412500,9.84641259765625,0.1698455810546875,-0.0079498291015625,1.1967315673828125
1740006573457395500,9.8563955078125,0.163604736328125,0.052001953125,1.21575927734375
1740006573467377400,9.86637744140625,0.1643524169921875,0.115570068359375,1.228271484375
1740006573477360400,9.8763603515625,0.14276123046875,0.1835784912109375,1.252349853515625
1740006573487343600,9.886343505859376,0.12091064453125,0.2520294189453125,1.269561767578125
1740006573497326600,9.89632666015625,0.0762176513671875,0.2991943359375,1.261016845703125
1740006573507309300,9.906309326171876,0.0452117919921875,0.3303680419921875,1.2443695068359375
1740006573517292500,9.91629248046875,0.00537109375,0.35400390625,1.2382659912109375
1740006573527275500,9.926275634765625,-0.0279693603515625,0.3636627197265625,1.2322998046875
1740006573537258800,9.9362587890625,-0.0580902099609375,0.37322998046875,1.2135162353515625
1740006573547240400,9.946240478515625,-0.0819244384765625,0.386688232421875,1.1857147216796875
1740006573557223700,9.9562236328125,-0.0763092041015625,0.38690185546875,1.15350341796875
1740006573567206700,9.96620654296875,-0.04510498046875,0.3767547607421875,1.1403656005859375
1740006573577189400,9.976189453125,0.0129852294921875,0.3749847412109375,1.1097869873046875
1740006573587172600,9.986172607421874,0.065948486328125,0.381439208984375,1.0578155517578125
1740006573597155600,9.996155517578124,0.1058807373046875,0.381256103515625,1.0071258544921875
1740006573607138600,10.006138671875,0.136322021484375,0.379425048828125,0.9598541259765625
1740006573617121500,10.01612158203125,0.1359710693359375,0.3681793212890625,0.912506103515625
1740006573627103500,10.026103515625,0.118804931640625,0.3487091064453125,0.883087158203125
1740006573637086700,10.036086669921875,0.112945556640625,0.3347625732421875,0.8869781494140625
1740006573647069400,10.0460693359375,0.10858154296875,0.3493194580078125,0.917510986328125
1740006573657052400,10.056052490234375,0.093414306640625,0.3902435302734375,0.9852142333984375
1740006573667035600,10.06603564453125,0.076446533203125,0.4346771240234375,1.0464630126953125
1740006573677018600,10.0760185546875,0.072235107421875,0.4725189208984375,1.0831756591796875
1740006573687001300,10.08600146484375,0.0557098388671875,0.51165771484375,1.102447509765625
1740006573696984600,10.095984619140625,0.0217132568359375,0.538055419921875,1.093170166015625
1740006573706966500,10.105966552734374,-0.00048828125,0.533294677734375,1.0593719482421875
1740006573716949500,10.115949462890624,-0.0120697021484375,0.496856689453125,1.023590087890625
1740006573726932500,10.125932373046876,-0.029815673828125,0.459442138671875,1.0183563232421875
1740006573736915700,10.135915771484376,-0.043243408203125,0.4486846923828125,1.0544891357421875
1740006573746898400,10.1458984375,-0.0507354736328125,0.46075439453125,1.1168670654296875
1740006573756881400,10.15588134765625,-0.0477294921875,0.48272705078125,1.1913299560546875
1740006573766864600,10.16586474609375,-0.0435028076171875,0.501556396484375,1.2596588134765625
1740006573776847600,10.17584765625,-0.045806884765625,0.5141143798828125,1.312957763671875
1740006573786830300,10.185830322265625,-0.0444793701171875,0.5298919677734375,1.329132080078125
1740006573796812500,10.1958125,-0.042022705078125,0.548065185546875,1.316162109375
1740006573806795500,10.20579541015625,-0.0385894775390625,0.5508270263671875,1.2741241455078125
1740006573816778500,10.215778564453124,-0.0319671630859375,0.5558013916015625,1.230804443359375
1740006573826761500,10.225761474609374,-0.020751953125,0.5766448974609375,1.2147674560546875
1740006573836744400,10.235744384765624,-0.0011749267578125,0.6151123046875,1.221282958984375
1740006573846727700,10.245727783203124,0.0323333740234375,0.655426025390625,1.2234954833984375
1740006573856710700,10.255710693359376,0.0637359619140625,0.669158935546875,1.195770263671875
1740006573866693400,10.265693359375,0.082366943359375,0.6457977294921875,1.13232421875
1740006573876675600,10.275675537109375,0.085296630859375,0.6028594970703125,1.05108642578125
1740006573886658600,10.285658447265625,0.0809783935546875,0.555267333984375,0.9620361328125
1740006573896641500,10.2956416015625,0.0752105712890625,0.505584716796875,0.85699462890625
1740006573906624500,10.30562451171875,0.070587158203125,0.4560699462890625,0.760009765625
1740006573916607700,10.315607666015625,0.0724334716796875,0.423065185546875,0.694305419921875
1740006573926590700,10.3255908203125,0.0755767822265625,0.420013427734375,0.644989013671875
1740006573936573400,10.335573486328125,0.0846710205078125,0.42523193359375,0.612060546875
1740006573946556700,10.345556640625,0.1094512939453125,0.431915283203125,0.633575439453125
1740006573956538600,10.35553857421875,0.1281890869140625,0.448089599609375,0.6952972412109375
1740006573966521600,10.365521484375,0.13995361328125,0.4655914306640625,0.7424468994140625
1740006573976504600,10.375504638671876,0.1631622314453125,0.4850616455078125,0.7794647216796875
1740006573986487600,10.385487548828126,0.1811370849609375,0.501922607421875,0.8236541748046875
1740006573996470800,10.395470703125,0.187530517578125,0.484619140625,0.8619384765625
1740006574006453500,10.40545361328125,0.1983642578125,0.440521240234375,0.90606689453125
1740006574016436500,10.4154365234375,0.225006103515625,0.4024810791015625,0.95538330078125
1740006574026419700,10.425419677734375,0.259429931640625,0.3687744140625,0.984130859375
1740006574036401400,10.4354013671875,0.2643890380859375,0.33050537109375,0.9754791259765625
1740006574046384600,10.445384521484375,0.23687744140625,0.2943572998046875,0.928741455078125
1740006574056367600,10.45536767578125,0.195556640625,0.26043701171875,0.8627166748046875
1740006574066350600,10.4653505859375,0.1448974609375,0.236968994140625,0.79052734375
1740006574076333600,10.47533349609375,0.1053924560546875,0.2255096435546875,0.73388671875
1740006574086316500,10.485316650390626,0.060089111328125,0.2296142578125,0.691864013671875
1740006574096299800,10.4952998046875,0.005523681640625,0.228240966796875,0.6561279296875
1740006574106282800,10.50528271484375,-0.0423126220703125,0.227264404296875,0.619598388671875
1740006574116264700,10.5152646484375,-0.0743255615234375,0.225250244140625,0.5910797119140625
1740006574126247700,10.52524755859375,-0.092987060546875,0.22119140625,0.5772705078125
1740006574136230700,10.535230712890625,-0.0955657958984375,0.2072906494140625,0.5706634521484375
1740006574146213600,10.545213623046875,-0.0771331787109375,0.199188232421875,0.5767059326171875
1740006574156196600,10.555196533203125,-0.0478057861328125,0.193817138671875,0.6083526611328125
1740006574166179600,10.5651796875,-0.020111083984375,0.184234619140625,0.6410369873046875
1740006574176162800,10.575162841796875,0.0167694091796875,0.1745452880859375,0.6659393310546875
1740006574186145500,10.5851455078125,0.0522918701171875,0.174468994140625,0.684539794921875
1740006574196128500,10.59512841796875,0.072967529296875,0.186614990234375,0.7021484375
1740006574206110700,10.60511083984375,0.0914306640625,0.204681396484375,0.716217041015625
1740006574216093400,10.615093505859376,0.1015167236328125,0.2234954833984375,0.7326507568359375
1740006574226076700,10.62507666015625,0.1015167236328125,0.248626708984375,0.75946044921875
1740006574236059600,10.6350595703125,0.104278564453125,0.2912750244140625,0.809722900390625
1740006574246042400,10.64504248046875,0.101470947265625,0.338043212890625,0.88995361328125
1740006574256025600,10.655025634765625,0.1132354736328125,0.382720947265625,0.956634521484375
1740006574266008600,10.665008544921875,0.1270751953125,0.4082489013671875,1.022491455078125
1740006574275991600,10.674991455078125,0.1347503662109375,0.4180450439453125,1.1077728271484375
1740006574285973500,10.684973388671875,0.1252899169921875,0.4281463623046875,1.225372314453125
1740006574295956700,10.694956787109374,0.1074676513671875,0.4324798583984375,1.36993408203125
1740006574305939700,10.704939697265624,0.085174560546875,0.4828033447265625,1.5640869140625
1740006574315922400,10.71492236328125,0.014739990234375,0.5610198974609375,1.81268310546875
1740006574325905700,10.72490576171875,-0.0847015380859375,0.6037445068359375,2.025604248046875
1740006574335888600,10.734888671875,-0.23016357421875,0.5510101318359375,2.144927978515625
1740006574345871600,10.74487158203125,-0.3841094970703125,0.39276123046875,2.134613037109375
1740006574355854600,10.7548544921875,-0.43560791015625,0.2422332763671875,2.08740234375
1740006574365836500,10.76483642578125,-0.3815155029296875,0.2132720947265625,2.1527557373046875
1740006574375819800,10.77481982421875,-0.2837066650390625,0.2789764404296875,2.314208984375
1740006574385802500,10.784802490234375,-0.184234619140625,0.300384521484375,2.3876495361328125
1740006574395785500,10.794785400390625,-0.0807037353515625,0.2412261962890625,2.3447723388671875
1740006574405768700,10.804768798828125,0.005462646484375,0.156524658203125,2.2030487060546875
1740006574415751700,10.814751708984375,0.09423828125,0.0937042236328125,2.0047607421875
1740006574425734400,10.824734375,0.1999359130859375,0.0485382080078125,1.785736083984375
1740006574435717600,10.834717529296874,0.26336669921875,-0.0117645263671875,1.5408782958984375
1740006574445699600,10.844699462890626,0.2677154541015625,-0.0723724365234375,1.323516845703125
1740006574455682600,10.8546826171875,0.254425048828125,-0.0908050537109375,1.2079315185546875
1740006574465665500,10.86466552734375,0.242645263671875,-0.0537261962890625,1.1704864501953125
1740006574475648800,10.874648681640625,0.2247772216796875,0.0091400146484375,1.1854248046875
1740006574485631700,10.8846318359375,0.20147705078125,0.0702667236328125,1.216644287109375
1740006574495614500,10.894614501953125,0.1688079833984375,0.14044189453125,1.2320709228515625
1740006574505597700,10.90459765625,0.114715576171875,0.2056427001953125,1.243560791015625
1740006574515580700,10.91458056640625,0.0524444580078125,0.2347564697265625,1.2474365234375
1740006574525562600,10.924562744140625,0.0075225830078125,0.245635986328125,1.2386932373046875
1740006574535545600,10.934545654296874,-0.017120361328125,0.2549591064453125,1.2220611572265625
1740006574545528600,10.944528564453124,-0.035858154296875,0.2544403076171875,1.20458984375
1740006574555511800,10.95451171875,-0.05120849609375,0.250091552734375,1.191253662109375
1740006574565494500,10.96449462890625,-0.0718994140625,0.2508392333984375,1.20843505859375
1740006574575477500,10.9744775390625,-0.0972137451171875,0.25433349609375,1.240264892578125
1740006574585460700,10.984460693359376,-0.108062744140625,0.2515716552734375,1.242889404296875
1740006574595443700,10.994443603515625,-0.1231536865234375,0.2327117919921875,1.2176666259765625
1740006574605425700,11.00442578125,-0.136322021484375,0.2039337158203125,1.168365478515625
1740006574615408600,11.01440869140625,-0.1257476806640625,0.1690521240234375,1.1047210693359375
1740006574625391600,11.0243916015625,-0.094085693359375,0.15338134765625,1.0496826171875
1740006574635374600,11.03437451171875,-0.067840576171875,0.161590576171875,1.015350341796875
1740006574645357600,11.044357666015625,-0.0349578857421875,0.178497314453125,0.9891815185546875
1740006574655340500,11.054340576171874,-0.0109405517578125,0.1952056884765625,0.96295166015625
1740006574665323500,11.064323486328124,-0.0063934326171875,0.211639404296875,0.9445037841796875
1740006574675306500,11.074306396484374,-0.0193939208984375,0.2188568115234375,0.9391021728515625
1740006574685288700,11.084288818359376,-0.0367584228515625,0.2305908203125,0.941070556640625
1740006574695271400,11.094271484375,-0.047576904296875,0.24481201171875,0.94537353515625
1740006574705254700,11.104254638671875,-0.039886474609375,0.262115478515625,0.9460296630859375
1740006574715237600,11.114237548828125,-0.0245208740234375,0.279754638671875,0.938385009765625
1740006574725220600,11.124220703125,-0.021881103515625,0.2965087890625,0.921356201171875
1740006574735203600,11.13420361328125,-0.0232391357421875,0.320404052734375,0.9115142822265625
1740006574745186600,11.1441865234375,-0.0232086181640625,0.35504150390625,0.921356201171875
1740006574755169500,11.15416943359375,-0.0308074951171875,0.390777587890625,0.938751220703125
1740006574765151500,11.1641513671875,-0.040435791015625,0.4161834716796875,0.944793701171875
1740006574775134500,11.174134521484374,-0.050994873046875,0.4379425048828125,0.95916748046875
1740006574785117700,11.18411767578125,-0.0598907470703125,0.4591522216796875,0.9823150634765625
1740006574795100700,11.1941005859375,-0.0557861328125,0.4776153564453125,1.0101776123046875
1740006574805083400,11.20408349609375,-0.0455780029296875,0.4954986572265625,1.0428924560546875
1740006574815066600,11.214066650390626,-0.036865234375,0.51495361328125,1.086181640625
1740006574825049600,11.224049560546876,-0.0265045166015625,0.543609619140625,1.134918212890625
1740006574835032600,11.234032470703125,-0.01727294921875,0.58209228515625,1.1885986328125
1740006574845015600,11.244015625,-0.015167236328125,0.6236419677734375,1.235260009765625
1740006574854998000,11.253998046875,-0.029205322265625,0.6564788818359375,1.260772705078125
1740006574864981000,11.26398095703125,-0.062652587890625,0.6703033447265625,1.2600250244140625
1740006574874964000,11.2739638671875,-0.106964111328125,0.657989501953125,1.227508544921875
1740006574884947000,11.283947021484375,-0.144866943359375,0.6544647216796875,1.2236328125
1740006574894930200,11.29393017578125,-0.1667022705078125,0.6978912353515625,1.2721710205078125
1740006574904913000,11.303912841796874,-0.1743927001953125,0.7580413818359375,1.306976318359375
1740006574914896100,11.313896240234374,-0.1874237060546875,0.7919464111328125,1.3004608154296875
1740006574924879000,11.323879150390624,-0.2103271484375,0.7941741943359375,1.258514404296875
1740006574934861000,11.333861083984376,-0.24444580078125,0.7690582275390625,1.2047119140625
1740006574944844000,11.343843994140625,-0.2751007080078125,0.7291412353515625,1.13189697265625
1740006574954827000,11.353826904296875,-0.30181884765625,0.674560546875,1.0526275634765625
1740006574964810200,11.363810302734375,-0.3226165771484375,0.603912353515625,0.994659423828125
1740006574974793000,11.37379296875,-0.3235931396484375,0.543975830078125,0.953460693359375
1740006574984776000,11.38377587890625,-0.292694091796875,0.509735107421875,0.9284820556640625
1740006574994759200,11.39375927734375,-0.234619140625,0.4894256591796875,0.9220123291015625
1740006575004742000,11.403741943359375,-0.1628875732421875,0.482177734375,0.95458984375
1740006575014724000,11.41372412109375,-0.077117919921875,0.505706787109375,1.019805908203125
1740006575024707000,11.42370703125,0.0205535888671875,0.552398681640625,1.0992584228515625
1740006575034690000,11.43368994140625,0.136444091796875,0.6069183349609375,1.18359375
1740006575044673000,11.443673095703126,0.2535552978515625,0.6479034423828125,1.2391815185546875
1740006575054656000,11.453656005859376,0.335205078125,0.6488189697265625,1.2226715087890625
1740006575064639000,11.463638916015626,0.3987884521484375,0.5889129638671875,1.1438751220703125
1740006575074622000,11.4736220703125,0.4549713134765625,0.503570556640625,1.03338623046875
1740006575084605000,11.48360498046875,0.506988525390625,0.4461822509765625,0.9181060791015625
1740006575094587100,11.493587158203125,0.54315185546875,0.39935302734375,0.8000946044921875
1740006575104569900,11.50356982421875,0.562774658203125,0.3563995361328125,0.69647216796875
1740006575114553000,11.513552978515625,0.573822021484375,0.3146514892578125,0.6041107177734375
1740006575124536000,11.5235361328125,0.5546875,0.2686614990234375,0.52520751953125
1740006575134519000,11.53351904296875,0.517333984375,0.2396087646484375,0.48529052734375
1740006575144502000,11.543501953125,0.4758453369140625,0.2431793212890625,0.4820404052734375
1740006575154485000,11.553485107421874,0.426727294921875,0.270965576171875,0.471221923828125
1740006575164468000,11.563468017578124,0.3769683837890625,0.311798095703125,0.4371185302734375
1740006575174450000,11.573449951171876,0.3326263427734375,0.3682403564453125,0.3841400146484375
1740006575184433000,11.583432861328125,0.2912139892578125,0.4286041259765625,0.325408935546875
1740006575194416000,11.593416015625,0.231170654296875,0.4766387939453125,0.282745361328125
1740006575204399000,11.603399169921875,0.1504058837890625,0.4963531494140625,0.2630157470703125
1740006575214381800,11.6133818359375,0.0601654052734375,0.4867706298828125,0.2826690673828125
1740006575224365000,11.623364990234375,-0.025390625,0.44830322265625,0.366912841796875
1740006575234348000,11.63334814453125,-0.082061767578125,0.40924072265625,0.4988555908203125
1740006575244331000,11.6433310546875,-0.117034912109375,0.3907318115234375,0.678955078125
1740006575254313000,11.65331298828125,-0.143585205078125,0.37738037109375,0.8934783935546875
1740006575264296000,11.6632958984375,-0.1649932861328125,0.346435546875,1.0674896240234375
1740006575274279200,11.673279052734374,-0.1880645751953125,0.3170928955078125,1.1977996826171875
1740006575284262000,11.683261962890626,-0.2026519775390625,0.287689208984375,1.2632293701171875
1740006575294245000,11.6932451171875,-0.1929931640625,0.2564544677734375,1.2588958740234375
1740006575304228000,11.70322802734375,-0.16607666015625,0.2484283447265625,1.2378082275390625
1740006575314211000,11.713211181640625,-0.141204833984375,0.2638397216796875,1.216705322265625
1740006575324194000,11.723194091796875,-0.1204376220703125,0.288970947265625,1.2216796875
1740006575334176000,11.733176025390625,-0.1147308349609375,0.3175048828125,1.2666778564453125
1740006575344159200,11.7431591796875,-0.1201934814453125,0.3368682861328125,1.3264007568359375
1740006575354142000,11.753141845703125,-0.12591552734375,0.3504180908203125,1.395050048828125
1740006575364125000,11.763125,-0.13177490234375,0.3578033447265625,1.4911041259765625
1740006575374108200,11.773108154296875,-0.1287078857421875,0.3521270751953125,1.5892486572265625
1740006575384091100,11.783091064453124,-0.1120758056640625,0.3442535400390625,1.649658203125
1740006575394073900,11.793073974609374,-0.09722900390625,0.33074951171875,1.6662750244140625
1740006575404057000,11.80305712890625,-0.0800018310546875,0.3123779296875,1.6652679443359375
1740006575414039000,11.8130390625,-0.0626678466796875,0.2952880859375,1.6829833984375
1740006575424022000,11.82302197265625,-0.0410919189453125,0.2964019775390625,1.7632904052734375
1740006575434005000,11.8330048828125,-0.0283966064453125,0.317108154296875,1.87261962890625
1740006575443988000,11.842988037109375,-0.006500244140625,0.3255615234375,1.96575927734375
1740006575453971000,11.852970947265625,0.0340728759765625,0.3060150146484375,1.9977874755859375
1740006575463954000,11.862953857421875,0.0821990966796875,0.265411376953125,1.957733154296875
1740006575473937200,11.872937255859375,0.1268157958984375,0.206756591796875,1.8651275634765625
1740006575483920100,11.882920166015625,0.161895751953125,0.13201904296875,1.7103424072265625
1740006575493902800,11.89290283203125,0.175537109375,0.044189453125,1.5135498046875
1740006575503886000,11.902885986328124,0.1831512451171875,-0.0273895263671875,1.3490753173828125
1740006575513868000,11.912867919921876,0.186767578125,-0.0441741943359375,1.271759033203125
1740006575523851000,11.92285107421875,0.1871337890625,-0.019866943359375,1.2700347900390625
1740006575533834000,11.932833984375,0.20111083984375,0.0351409912109375,1.304107666015625
1740006575543817000,11.94281689453125,0.2205810546875,0.1064605712890625,1.3551177978515625
1740006575553800200,11.95280029296875,0.2245025634765625,0.185394287109375,1.40350341796875
1740006575563783000,11.962782958984375,0.2245025634765625,0.2654266357421875,1.4521484375
1740006575573766000,11.972765869140625,0.2248992919921875,0.3403778076171875,1.4885406494140625
1740006575583749000,11.9827490234375,0.220367431640625,0.398712158203125,1.48809814453125
1740006575593730800,11.992730712890625,0.2056732177734375,0.4286041259765625,1.4434051513671875
1740006575603714000,12.002714111328125,0.171600341796875,0.4376220703125,1.3759613037109375
1740006575613697000,12.012697021484374,0.1293487548828125,0.4392242431640625,1.31927490234375
1740006575623680000,12.022679931640624,0.090118408203125,0.44097900390625,1.2877044677734375
1740006575633663000,12.0326630859375,0.073394775390625,0.43798828125,1.268157958984375
1740006575643646000,12.04264599609375,0.0579071044921875,0.43280029296875,1.25836181640625
1740006575653629200,12.052629150390626,0.042724609375,0.4261322021484375,1.2305755615234375
1740006575663612200,12.062612060546876,0.0299072265625,0.4110107421875,1.179290771484375
1740006575673594000,12.072593994140625,0.0161285400390625,0.3975372314453125,1.123016357421875
1740006575683577000,12.0825771484375,0.00567626953125,0.398834228515625,1.0942535400390625
1740006575693560000,12.09256005859375,-0.012298583984375,0.4129180908203125,1.1093902587890625
1740006575703543000,12.10254296875,-0.0179290771484375,0.42340087890625,1.0922088623046875
1740006575713526000,12.112526123046875,-0.005035400390625,0.4181671142578125,1.0461273193359375
1740006575723509000,12.122509033203125,0.0173492431640625,0.3984375,0.992095947265625
1740006575733492200,12.1324921875,0.0479278564453125,0.392669677734375,0.954132080078125
1740006575743475000,12.142474853515624,0.0450592041015625,0.4074859619140625,0.94781494140625
1740006575753457200,12.15245703125,0.0153045654296875,0.417388916015625,0.960723876953125
1740006575763440000,12.162440185546876,-0.011474609375,0.42266845703125,0.970367431640625
1740006575773422800,12.1724228515625,-0.0273590087890625,0.431640625,0.971160888671875
1740006575783406000,12.182406005859375,-0.0359344482421875,0.450775146484375,0.96612548828125
1740006575793389000,12.19238916015625,-0.0355682373046875,0.477783203125,0.9625091552734375
1740006575803372000,12.2023720703125,-0.0284423828125,0.506866455078125,0.966339111328125
1740006575813355000,12.21235498046875,-0.0076141357421875,0.53155517578125,0.949981689453125
1740006575823337000,12.2223369140625,0.01507568359375,0.549346923828125,0.910858154296875
1740006575833320200,12.2323203125,0.02923583984375,0.5583343505859375,0.8639678955078125
1740006575843303000,12.242302978515625,0.0394439697265625,0.5625457763671875,0.8115997314453125
1740006575853285600,12.25228564453125,0.0417633056640625,0.566131591796875,0.7547454833984375
1740006575863268600,12.2622685546875,0.03192138671875,0.5614166259765625,0.7047271728515625
1740006575873251600,12.27225146484375,0.015594482421875,0.54736328125,0.6738433837890625
1740006575883233500,12.282233642578126,0.007598876953125,0.5360260009765625,0.663787841796875
1740006575893216500,12.292216552734375,-0.0010223388671875,0.5393218994140625,0.681793212890625
1740006575903199700,12.30219970703125,-0.0081329345703125,0.5560455322265625,0.728759765625
1740006575913182700,12.3121826171875,-0.0167083740234375,0.574554443359375,0.7750701904296875
1740006575923165400,12.32216552734375,-0.02325439453125,0.5843505859375,0.8077545166015625
1740006575933148700,12.332148681640625,-0.030517578125,0.5877685546875,0.8024749755859375
1740006575943131600,12.342131591796875,-0.0350189208984375,0.5860748291015625,0.7895050048828125
1740006575953114600,12.352114501953125,-0.0319671630859375,0.5967864990234375,0.7922210693359375
1740006575963096600,12.3620966796875,-0.0104522705078125,0.6236419677734375,0.8052215576171875
1740006575973079800,12.372079833984374,0.0180206298828125,0.656005859375,0.8319549560546875
1740006575983062800,12.382062744140624,0.0452880859375,0.6732940673828125,0.8434600830078125
1740006575993045500,12.39204541015625,0.0516204833984375,0.669921875,0.865325927734375
1740006576003028700,12.40202880859375,0.0367889404296875,0.655059814453125,0.9180450439453125
1740006576013011700,12.41201171875,0.0198822021484375,0.620574951171875,0.9300384521484375
1740006576022994700,12.42199462890625,-0.0017852783203125,0.557830810546875,0.9228515625
1740006576032977700,12.431977783203125,-0.01318359375,0.5092010498046875,0.950103759765625
1740006576042959600,12.441959716796875,-0.019012451171875,0.48419189453125,1.0052337646484375
1740006576052942800,12.45194287109375,-0.0102996826171875,0.4647064208984375,1.067779541015625
1740006576062925600,12.461925537109375,0.0172882080078125,0.450286865234375,1.12945556640625
1740006576072908500,12.471908447265625,0.0556182861328125,0.4505462646484375,1.2025604248046875
1740006576082891800,12.481891845703124,0.1112213134765625,0.4727935791015625,1.2735748291015625
1740006576092874800,12.491874755859374,0.1688232421875,0.4998931884765625,1.3256683349609375
1740006576102857500,12.501857421875,0.18634033203125,0.5379638671875,1.3629608154296875
1740006576112840700,12.5118408203125,0.168365478515625,0.5659942626953125,1.38531494140625
1740006576122822700,12.52182275390625,0.1352996826171875,0.5580902099609375,1.382904052734375
1740006576132805600,12.5318056640625,0.10028076171875,0.5095672607421875,1.3990325927734375
1740006576142788600,12.54178857421875,0.0838470458984375,0.4521331787109375,1.4039764404296875
1740006576152771600,12.551771484375,0.1081085205078125,0.3986663818359375,1.3740386962890625
1740006576162754600,12.561754638671875,0.1361846923828125,0.352569580078125,1.3221435546875
1740006576172737500,12.571737548828125,0.1512451171875,0.31744384765625,1.2568511962890625
1740006576182720800,12.581720703125,0.152008056640625,0.2902984619140625,1.1795806884765625
1740006576192702500,12.591702392578124,0.14849853515625,0.28253173828125,1.0838775634765625
1740006576202685700,12.601685791015624,0.1313323974609375,0.2864532470703125,1.000885009765625
1740006576212668700,12.611668701171874,0.0935821533203125,0.2866058349609375,0.9503326416015625
1740006576222651600,12.621651611328126,0.0360260009765625,0.272308349609375,0.9225311279296875
1740006576232634600,12.631634521484376,-0.0182342529296875,0.2458343505859375,0.9321441650390625
1740006576242617600,12.64161767578125,-0.05047607421875,0.2142791748046875,0.9517822265625
1740006576252600600,12.6516005859375,-0.0433349609375,0.194366455078125,0.9784088134765625
1740006576262583800,12.661583740234375,-0.01629638671875,0.1818389892578125,1.021575927734375
1740006576272565500,12.6715654296875,0.00421142578125,0.15289306640625,1.05706787109375
1740006576282548700,12.681548828125,0.0253753662109375,0.1068878173828125,1.058074951171875
1740006576292531700,12.69153173828125,0.0489501953125,0.0544281005859375,1.0516357421875
1740006576302514400,12.701514404296875,0.0736083984375,0.0189971923828125,1.05389404296875
1740006576312497700,12.71149755859375,0.08868408203125,0.0080108642578125,1.07672119140625
1740006576322480600,12.721480712890624,0.093353271484375,0.0106048583984375,1.077392578125
1740006576332463600,12.731463623046874,0.109405517578125,0.014556884765625,1.0758056640625
1740006576342446600,12.741446533203124,0.1456298828125,0.01983642578125,1.0692291259765625
1740006576352428800,12.7514287109375,0.1815185546875,0.0165557861328125,1.0631256103515625
1740006576362411800,12.761411865234376,0.20220947265625,-0.003753662109375,1.063323974609375
1740006576372394500,12.77139453125,0.1992034912109375,-0.0166473388671875,1.0777740478515625
1740006576382377700,12.781377685546875,0.1654205322265625,-0.0228424072265625,1.114013671875
1740006576392360700,12.791360595703125,0.1236724853515625,-0.024871826171875,1.1479034423828125
1740006576402343700,12.80134375,0.0873565673828125,-0.0153656005859375,1.175262451171875
1740006576412326700,12.81132666015625,0.0499725341796875,0.0052032470703125,1.23492431640625
1740006576422309600,12.8213095703125,-0.00677490234375,0.038421630859375,1.304168701171875
1740006576432291800,12.831291748046874,-0.0557708740234375,0.0704498291015625,1.3626708984375
1740006576442274600,12.841274658203124,-0.107025146484375,0.1027679443359375,1.4271240234375
1740006576452257500,12.851257568359374,-0.1685638427734375,0.116180419921875,1.5164794921875
1740006576462240800,12.86124072265625,-0.217559814453125,0.11444091796875,1.571258544921875
1740006576472223700,12.8712236328125,-0.2418975830078125,0.1270599365234375,1.611236572265625
1740006576482206500,12.88120654296875,-0.2566070556640625,0.1585540771484375,1.7112274169921875
1740006576492189700,12.891189697265625,-0.270751953125,0.21112060546875,1.832855224609375
1740006576502172700,12.901172607421875,-0.27581787109375,0.2569427490234375,1.9222412109375
1740006576512154600,12.911154541015625,-0.262603759765625,0.25897216796875,1.9525299072265625
1740006576522137600,12.9211376953125,-0.23583984375,0.2194366455078125,1.9108123779296875
1740006576532120800,12.931120849609375,-0.210296630859375,0.162139892578125,1.8157501220703125
1740006576542103800,12.941103759765625,-0.1971435546875,0.0816650390625,1.708770751953125
1740006576552086500,12.95108642578125,-0.19134521484375,-0.0259857177734375,1.5717315673828125
1740006576562069800,12.96106982421875,-0.18560791015625,-0.127105712890625,1.441558837890625
1740006576572052700,12.971052734375,-0.1748199462890625,-0.178558349609375,1.3676605224609375
1740006576582035500,12.981035400390626,-0.17083740234375,-0.158782958984375,1.3804168701171875
1740006576592017700,12.991017578125,-0.1585845947265625,-0.0692291259765625,1.453826904296875
1740006576602000600,13.001000732421875,-0.127197265625,0.040252685546875,1.533416748046875
1740006576611983600,13.010983642578125,-0.0982818603515625,0.150787353515625,1.6015472412109375
1740006576621966600,13.020966552734375,-0.0485687255859375,0.275054931640625,1.6799774169921875
1740006576631949600,13.030949462890625,0.0095672607421875,0.4064178466796875,1.75634765625
