time,seconds_elapsed,z,y,x
1740006563634237000,0.03323681640625,-0.8831625580787659,0.058870505541563034,0.945248544216156
1740006563644219600,0.0432197265625,-1.0505520105361938,-0.43387553095817566,1.0703833103179932
1740006563654202600,0.05320263671875,-0.9138504266738892,-0.9623774886131287,1.115466594696045
1740006563664185900,0.063185791015625,-0.6958139538764954,-1.125623345375061,0.9472086429595947
1740006563674168800,0.0731689453125,-0.550141453742981,-0.4433833062648773,0.3627172112464905
1740006563684151600,0.083151611328125,-0.361636757850647,0.5025432705879211,-0.36009931564331055
1740006563694134800,0.093134765625,-0.24408350884914398,0.9147446751594543,-0.8541231751441956
1740006563704116700,0.10311669921875,0.025584455579519272,0.8232805728912354,-1.0880928039550781
1740006563714099700,0.113099609375,0.23482929170131683,0.8986400365829468,-1.0743721723556519
1740006563724082700,0.123082763671875,0.37167900800704956,1.0517619848251343,-0.8565242886543274
1740006563734065700,0.133065673828125,0.3591831922531128,1.1883163452148438,-0.44191110134124756
1740006563744049000,0.143048828125,0.16555620729923248,1.2326630353927612,0.0745282992720604
1740006563754031600,0.153031494140625,-0.1090250238776207,1.2129793167114258,0.595057487487793
1740006563764014800,0.163014892578125,-0.31172168254852295,1.2878061532974243,1.0307234525680542
1740006563773997800,0.172997802734375,-0.3778117299079895,1.4304500818252563,1.343935251235962
1740006563783979800,0.182979736328125,-0.31781524419784546,1.4922679662704468,1.4572484493255615
1740006563793962800,0.192962646484375,-0.017770474776625633,1.299421787261963,1.2044109106063843
1740006563803945700,0.20294580078125,0.4044761061668396,0.8192756772041321,0.3514954447746277
1740006563813929000,0.212928955078125,0.38565927743911743,0.6536036133766174,-0.9009156823158264
1740006563823911700,0.22291162109375,-0.07717254757881165,0.5451024770736694,-2.20963454246521
1740006563833894700,0.232894775390625,-0.7742363214492798,0.5100376605987549,-3.279430389404297
1740006563843877600,0.242877685546875,-1.238438367843628,0.24059289693832397,-3.964883804321289
1740006563853860600,0.252860595703125,-1.4228779077529907,-0.22652634978294373,-4.282266139984131
1740006563863843300,0.26284326171875,-1.5476164817810059,-0.5420377254486084,-4.27079439163208
1740006563873825500,0.272825439453125,-1.717440128326416,-0.3126322031021118,-3.9983022212982178
1740006563883808500,0.28280859375,-1.8770725727081299,0.5319414138793945,-3.547124147415161
1740006563893791500,0.29279150390625,-2.0344581604003906,1.6754499673843384,-3.011996030807495
1740006563903774500,0.3027744140625,-2.210462808609009,2.7489266395568848,-2.464506149291992
1740006563913757400,0.31275732421875,-2.2675113677978516,3.5658042430877686,-1.9245109558105469
1740006563923740700,0.32274072265625,-2.1305809020996094,4.267263889312744,-1.490770697593689
1740006563933723400,0.332723388671875,-1.8856046199798584,5.035812854766846,-1.3148289918899536
1740006563943706600,0.34270654296875,-1.7639402151107788,5.58170223236084,-1.3976589441299438
1740006563953689600,0.352689697265625,-1.786131501197815,5.832051753997803,-1.6358221769332886
1740006563963671600,0.362671630859375,-1.9123355150222778,5.841552257537842,-1.8379305601119995
1740006563973654500,0.372654541015625,-2.309084177017212,6.062840461730957,-1.8405300378799438
1740006563983637500,0.382637451171875,-2.9168057441711426,6.508448600769043,-1.6253905296325684
1740006563993620700,0.392620849609375,-3.6419758796691895,7.078136920928955,-1.1722161769866943
1740006564003603500,0.402603515625,-4.3957929611206055,7.80235481262207,-0.5247961282730103
1740006564013586400,0.41258642578125,-5.19434118270874,8.490628242492676,0.32991451025009155
1740006564023569700,0.422569580078125,-5.790921688079834,8.794881820678711,1.3838677406311035
1740006564033552400,0.432552490234375,-6.036506652832031,8.640018463134766,2.5588812828063965
1740006564043535400,0.442535400390625,-6.128452777862549,8.221328735351562,3.7077713012695312
1740006564053517600,0.452517578125,-6.2038655281066895,7.764799118041992,4.755218029022217
1740006564063500500,0.46250048828125,-6.1976318359375,7.389695644378662,5.710637092590332
1740006564073483500,0.4724833984375,-6.029140472412109,7.041971683502197,6.592861652374268
1740006564083466500,0.482466552734375,-5.754665851593018,6.591278076171875,7.374038219451904
1740006564093449500,0.492449462890625,-5.3876824378967285,5.91921329498291,7.987513542175293
1740006564103432400,0.502432373046875,-4.9808855056762695,4.730393886566162,8.082704544067383
1740006564113415400,0.51241552734375,-4.534623622894287,3.2062439918518066,7.3394927978515625
1740006564123398700,0.522398681640625,-4.067947864532471,1.7546868324279785,5.824078559875488
1740006564133381600,0.532381591796875,-3.3603315353393555,0.3600572347640991,4.1968793869018555
1740006564143363600,0.542363525390625,-2.5339903831481934,-0.7718698382377625,2.8179686069488525
1740006564153346600,0.5523466796875,-1.8738850355148315,-1.5436134338378906,1.6092164516448975
1740006564163329500,0.56232958984375,-1.3249609470367432,-2.0884060859680176,0.672828733921051
1740006564173312500,0.5723125,-0.8437935709953308,-2.569413185119629,-0.006850715726613998
1740006564183295500,0.58229541015625,-0.4444296360015869,-3.0024147033691406,-0.5591834187507629
1740006564193278500,0.592278564453125,-0.13153725862503052,-3.398780584335327,-1.0612648725509644
1740006564203261700,0.60226171875,0.09619338065385818,-3.6878130435943604,-1.51884126663208
1740006564213244400,0.612244384765625,0.2183224856853485,-3.7710304260253906,-1.927639126777649
1740006564223227400,0.622227294921875,0.25515106320381165,-3.7295918464660645,-2.318283796310425
1740006564233209600,0.632209716796875,0.2968151569366455,-3.5331406593322754,-2.7353508472442627
1740006564243192300,0.6421923828125,0.4364817142486572,-3.131512403488159,-3.149385929107666
1740006564253175600,0.652175537109375,0.6919488906860352,-2.6420013904571533,-3.5459907054901123
1740006564263158500,0.662158447265625,0.9853943586349487,-2.0553336143493652,-4.003725051879883
1740006564273141500,0.6721416015625,1.2815676927566528,-1.5867975950241089,-4.575459003448486
1740006564283124500,0.68212451171875,1.3740580081939697,-1.3938697576522827,-5.163732051849365
1740006564293107500,0.692107421875,1.2046265602111816,-1.555098056793213,-5.670626163482666
1740006564303090700,0.702090576171875,0.9064084887504578,-1.9448567628860474,-6.010705471038818
1740006564313073700,0.71207373046875,0.629562497138977,-2.3182315826416016,-6.026147842407227
1740006564323055600,0.7220556640625,0.4120256304740906,-2.497607946395874,-5.683490753173828
1740006564333038600,0.73203857421875,0.2676498293876648,-2.5046474933624268,-5.0130085945129395
1740006564343021600,0.742021484375,0.22136513888835907,-2.301417827606201,-4.104183197021484
1740006564353004500,0.752004638671875,0.2640244662761688,-1.7870739698410034,-3.0794034004211426
1740006564362987500,0.761987548828125,0.4271095097064972,-1.0298858880996704,-2.0408706665039062
1740006564372970500,0.771970458984375,0.6580039858818054,-0.11223439872264862,-1.1179002523422241
1740006564382953500,0.781953369140625,1.008225679397583,0.6127337217330933,-0.2442891001701355
1740006564392936400,0.7919365234375,1.421512246131897,1.0923466682434082,0.5758952498435974
1740006564402918700,0.801918701171875,1.79619562625885,1.1581286191940308,1.3049497604370117
1740006564412901600,0.811901611328125,2.127331018447876,0.9600727558135986,1.8583239316940308
1740006564422884400,0.82188427734375,2.3780677318573,0.8103762269020081,2.0746872425079346
1740006564432867600,0.83186767578125,2.5943610668182373,0.828082263469696,1.9215258359909058
1740006564442850600,0.8418505859375,2.761752128601074,0.8037875294685364,1.5053919553756714
1740006564452833500,0.85183349609375,2.8130741119384766,0.5654860138893127,1.041272521018982
1740006564462816500,0.86181640625,2.767857313156128,0.13140197098255157,0.6685240268707275
1740006564472799500,0.871799560546875,2.647331714630127,-0.3051793575286865,0.3969454765319824
1740006564482782700,0.88178271484375,2.527259349822998,-0.6435747146606445,0.23405830562114716
1740006564492764400,0.891764404296875,2.49668025970459,-0.8981878161430359,0.18960028886795044
1740006564502747600,0.90174755859375,2.5563597679138184,-1.0939700603485107,0.26000627875328064
1740006564512730600,0.911730712890625,2.6587066650390625,-1.2198747396469116,0.4164177179336548
1740006564522713300,0.92171337890625,2.7452280521392822,-1.2847179174423218,0.6262873411178589
1740006564532696600,0.931696533203125,2.796499729156494,-1.323694109916687,0.829144299030304
1740006564542679600,0.941679443359375,2.7971229553222656,-1.2800925970077515,0.9975991249084473
1740006564552662500,0.95166259765625,2.7048826217651367,-1.1571460962295532,1.1225053071975708
1740006564562645500,0.9616455078125,2.5514883995056152,-0.9503804445266724,1.2071137428283691
1740006564572628500,0.97162841796875,2.403531789779663,-0.721765398979187,1.243580937385559
1740006564582610700,0.981610595703125,2.31823992729187,-0.49190157651901245,1.225287914276123
1740006564592593400,0.991593505859375,2.2971043586730957,-0.22382484376430511,1.138676643371582
1740006564602576400,1.001576416015625,2.318854570388794,0.0427064523100853,1.004198670387268
1740006564612559600,1.0115595703125,2.3174285888671875,0.19268369674682617,0.8657912611961365
1740006564622542600,1.02154248046875,2.250120162963867,0.20593824982643127,0.767500102519989
1740006564632525600,1.031525634765625,2.0924317836761475,0.14011715352535248,0.7136030793190002
1740006564642508500,1.041508544921875,1.8802005052566528,0.03185407072305679,0.6947034001350403
1740006564652491500,1.051491455078125,1.649753212928772,-0.08519984781742096,0.6808826923370361
1740006564662474800,1.061474853515625,1.421329379081726,-0.19125650823116302,0.6223559975624084
1740006564672456400,1.07145654296875,1.1714768409729004,-0.28502801060676575,0.4920099675655365
1740006564682439700,1.081439697265625,0.8502514362335205,-0.37311527132987976,0.26694461703300476
1740006564692422700,1.091422607421875,0.4528809189796448,-0.41603609919548035,-0.05571732297539711
1740006564702405400,1.1014052734375,0.008942095562815666,-0.4482235908508301,-0.43878453969955444
1740006564712388600,1.111388671875,-0.4347682297229767,-0.5228831768035889,-0.8177217245101929
1740006564722371600,1.12137158203125,-0.8374845385551453,-0.6358571648597717,-1.1414135694503784
1740006564732354600,1.1313544921875,-1.1502448320388794,-0.746048092842102,-1.3893338441848755
1740006564742337500,1.141337646484375,-1.3192617893218994,-0.8436585068702698,-1.5406469106674194
1740006564752320500,1.151320556640625,-1.3261357545852661,-0.9186387658119202,-1.5960724353790283
1740006564762302700,1.161302734375,-1.2322704792022705,-0.9592093825340271,-1.5627809762954712
1740006564772285400,1.171285400390625,-1.0202527046203613,-0.9346672892570496,-1.4533774852752686
1740006564782268400,1.181268310546875,-0.7059829831123352,-0.8458167314529419,-1.2651125192642212
1740006564792251600,1.191251708984375,-0.3624354600906372,-0.7730453610420227,-1.0030626058578491
1740006564802234400,1.201234375,-0.05772401764988899,-0.7132976055145264,-0.6872670650482178
1740006564812217600,1.211217529296875,0.17908240854740143,-0.5707566738128662,-0.35274845361709595
1740006564822200600,1.22120068359375,0.29858455061912537,-0.28968480229377747,-0.01824371889233589
1740006564832183600,1.23118359375,0.3086659610271454,0.11571194976568222,0.309438556432724
1740006564842167000,1.2411669921875,0.2975030541419983,0.5968719124794006,0.6577062606811523
1740006564852149000,1.25114892578125,0.33972054719924927,1.0900260210037231,1.0603599548339844
1740006564862132000,1.261132080078125,0.4820854067802429,1.5468838214874268,1.5053308010101318
1740006564872115200,1.271115234375,0.7293151617050171,1.9489893913269043,1.9690041542053223
1740006564882098000,1.281097900390625,1.0459719896316528,2.31038761138916,2.413985013961792
1740006564892081000,1.291080810546875,1.366957187652588,2.65346360206604,2.8259992599487305
1740006564902064000,1.301064208984375,1.6400675773620605,2.9975454807281494,3.187373399734497
1740006564912046800,1.311046875,1.820883870124817,3.279045820236206,3.510958194732666
1740006564922030000,1.321030029296875,1.8958452939987183,3.4469752311706543,3.785944700241089
1740006564932012000,1.331011962890625,1.8654553890228271,3.479957103729248,3.9899489879608154
1740006564941995000,1.3409951171875,1.7314538955688477,3.385443925857544,4.092057704925537
1740006564951978000,1.35097802734375,1.5475152730941772,3.1546192169189453,4.094573497772217
1740006564961961000,1.3609609375,1.287752389907837,2.9020614624023438,3.9749698638916016
1740006564971944200,1.370944091796875,0.8788548707962036,2.5407960414886475,3.6668148040771484
1740006564981927000,1.380927001953125,0.40882158279418945,2.083695888519287,3.195998191833496
1740006564991910000,1.390909912109375,0.01176424790173769,1.5936832427978516,2.6075339317321777
1740006565001893000,1.40089306640625,-0.23784664273262024,1.1101703643798828,1.9916516542434692
1740006565011876000,1.4108759765625,-0.367235004901886,0.6570162177085876,1.426344633102417
1740006565021858000,1.420858154296875,-0.44837725162506104,0.2633272409439087,0.9924535751342773
1740006565031841000,1.430841064453125,-0.4955061376094818,-0.030950192362070084,0.7352972030639648
1740006565041824000,1.440823974609375,-0.4513714611530304,-0.17057280242443085,0.6694310903549194
1740006565051807000,1.450806884765625,-0.30418092012405396,-0.15856674313545227,0.7664918303489685
1740006565061790000,1.4607900390625,-0.10553175210952759,-0.04352936893701553,0.9688878059387207
1740006565071773000,1.47077294921875,0.1011817455291748,0.11610210686922073,1.254517674446106
1740006565081756200,1.480756103515625,0.3182253837585449,0.1946781426668167,1.5704578161239624
1740006565091739000,1.49073876953125,0.5003262162208557,0.0972711592912674,1.8263252973556519
1740006565101722000,1.50072216796875,0.6436705589294434,-0.125602126121521,1.9767606258392334
1740006565111704000,1.5107041015625,0.7896216511726379,-0.3245258927345276,2.0204038619995117
1740006565121687000,1.52068701171875,0.9116314649581909,-0.4553736448287964,1.9941729307174683
1740006565131670000,1.530669921875,0.9739108085632324,-0.5322628617286682,1.9271024465560913
1740006565141653000,1.540653076171875,0.9560815095901489,-0.5264850854873657,1.8289096355438232
1740006565151636200,1.55063623046875,0.8887351751327515,-0.42250731587409973,1.674504041671753
1740006565161619000,1.560618896484375,0.7122810482978821,-0.782517671585083,1.5066159963607788
1740006565171602000,1.570601806640625,0.47673138976097107,-0.9584410190582275,1.2295202016830444
1740006565181585200,1.580585205078125,0.2298494428396225,-1.040587306022644,0.812177300453186
1740006565191566800,1.59056689453125,-0.06179891899228096,-1.3671412467956543,0.28003671765327454
1740006565201550000,1.600550048828125,-0.34173548221588135,-1.6530756950378418,-0.3638429343700409
1740006565211533000,1.610532958984375,-0.5957368612289429,-1.8769258260726929,-1.0782135725021362
1740006565221516000,1.62051611328125,-0.8520642518997192,-2.079613208770752,-1.815846562385559
1740006565231499000,1.6304990234375,-1.1349178552627563,-2.1752469539642334,-2.5321435928344727
1740006565241482000,1.64048193359375,-1.4298455715179443,-2.1533358097076416,-3.21525239944458
1740006565251465000,1.65046484375,-1.6967358589172363,-2.0179319381713867,-3.8095571994781494
1740006565261448000,1.660447998046875,-1.894081950187683,-1.8040721416473389,-4.282067775726318
1740006565271431000,1.670430908203125,-1.9500994682312012,-1.4802498817443848,-4.6344709396362305
1740006565281413000,1.6804130859375,-1.8856773376464844,-1.0673060417175293,-4.91677713394165
1740006565291396000,1.69039599609375,-1.7955399751663208,-0.5620063543319702,-5.168824195861816
1740006565301379000,1.700379150390625,-1.7721800804138184,0.01203881949186325,-5.419973373413086
1740006565311362000,1.710362060546875,-1.8542077541351318,0.5472779870033264,-5.653740882873535
1740006565321345000,1.720344970703125,-2.038032054901123,0.9195551872253418,-5.831848621368408
1740006565331328000,1.730327880859375,-2.296980142593384,1.1234526634216309,-5.906532287597656
1740006565341311000,1.74031103515625,-2.6064271926879883,1.223144292831421,-5.865798473358154
1740006565351294000,1.7502939453125,-2.9475786685943604,1.2673237323760986,-5.71842622756958
1740006565361277200,1.760277099609375,-3.2986650466918945,1.1742146015167236,-5.467024326324463
1740006565371259000,1.7702587890625,-3.616631031036377,0.901401698589325,-5.107466220855713
1740006565381242000,1.7802421875,-3.8671369552612305,0.6118047833442688,-4.638357639312744
1740006565391225000,1.79022509765625,-4.012292861938477,0.4762807786464691,-4.023826599121094
1740006565401207800,1.800207763671875,-4.026311874389648,0.47248098254203796,-3.390892744064331
1740006565411191000,1.81019091796875,-3.8477365970611572,0.4419878125190735,-2.52755069732666
1740006565421174000,1.820174072265625,-3.439936637878418,0.4068303406238556,-1.5178837776184082
1740006565431157000,1.830156982421875,-2.8974056243896484,0.4675344228744507,-0.48543086647987366
1740006565441140000,1.840139892578125,-2.2937052249908447,0.5834962129592896,0.5155301690101624
1740006565451123000,1.850123046875,-1.7109081745147705,0.5858778357505798,1.4004807472229004
1740006565461105200,1.860105224609375,-1.1733824014663696,0.45495179295539856,2.0505809783935547
1740006565471087900,1.870087890625,-0.7294797897338867,0.28520217537879944,2.4073500633239746
1740006565481071000,1.880071044921875,-0.45578163862228394,0.20100633800029755,2.4075510501861572
1740006565491054000,1.89005419921875,-0.3234688639640808,0.23342926800251007,2.0615367889404297
1740006565501037000,1.900037109375,-0.2984151840209961,0.2848477065563202,1.5139122009277344
1740006565511020000,1.91002001953125,-0.3268742561340332,0.1867818683385849,0.9718322157859802
1740006565521003000,1.9200029296875,-0.39687517285346985,-0.08335401117801666,0.5550704002380371
1740006565530986000,1.929986083984375,-0.49302753806114197,-0.41548535227775574,0.2637466788291931
1740006565540968000,1.939968017578125,-0.5992205739021301,-0.6834859251976013,0.06681205332279205
1740006565550951000,1.949950927734375,-0.6660448908805847,-0.8274404406547546,-0.024746092036366463
1740006565560934100,1.95993408203125,-0.6871187090873718,-0.8811662197113037,-0.002918558195233345
1740006565570917000,1.969917236328125,-0.6709429621696472,-0.9003087878227234,0.11361391097307205
1740006565580899800,1.97989990234375,-0.6371921896934509,-0.8735581040382385,0.2956617474555969
1740006565590883000,1.989883056640625,-0.5897748470306396,-0.7981600165367126,0.5224424004554749
1740006565600866000,1.999865966796875,-0.5368280410766602,-0.6903030872344971,0.7613271474838257
1740006565610849000,2.00984912109375,-0.4857099652290344,-0.5679478645324707,0.971106231212616
1740006565620832000,2.01983203125,-0.4476432800292969,-0.42602667212486267,1.1202126741409302
1740006565630814000,2.02981396484375,-0.4161628484725952,-0.2633139193058014,1.1979188919067383
1740006565640797200,2.039797119140625,-0.38932085037231445,-0.11922919005155563,1.1945343017578125
1740006565650780000,2.04977978515625,-0.3490373492240906,0.015083878301084042,1.1144285202026367
1740006565660763100,2.05976318359375,-0.30842095613479614,0.10110317915678024,0.9579587578773499
1740006565670746000,2.06974609375,-0.2709771692752838,0.16460013389587402,0.7536618113517761
1740006565680728800,2.079728759765625,-0.28548234701156616,0.14644242823123932,0.49943989515304565
1740006565690712000,2.089712158203125,-0.3662525713443756,-0.0004021373169962317,0.2164955586194992
1740006565700695000,2.099695068359375,-0.5009328722953796,-0.12332379817962646,-0.0833396315574646
1740006565710677000,2.109677001953125,-0.6609643697738647,-0.1483953297138214,-0.3887815773487091
1740006565720660000,2.119659912109375,-0.8232065439224243,-0.08634873479604721,-0.6972752213478088
1740006565730643000,2.129642822265625,-0.9589342474937439,0.05663318559527397,-0.9900311827659607
1740006565740626200,2.139626220703125,-1.0032676458358765,0.29081398248672485,-1.2202974557876587
1740006565750609000,2.14960888671875,-0.9568852186203003,0.6302514672279358,-1.3796883821487427
1740006565760592000,2.159591796875,-0.8676866292953491,1.0192713737487793,-1.467684030532837
1740006565770575000,2.1695751953125,-0.7430669665336609,1.2703670263290405,-1.5002366304397583
1740006565780558000,2.17955810546875,-0.5463607907295227,1.2981253862380981,-1.477757453918457
1740006565790541000,2.189541015625,-0.2355150580406189,1.175361156463623,-1.4124966859817505
1740006565800523000,2.19952294921875,0.18349765241146088,0.9162272810935974,-1.3443852663040161
1740006565810506000,2.209506103515625,0.6519445180892944,0.6223011016845703,-1.3138515949249268
1740006565820489000,2.219489013671875,1.138936996459961,0.32370349764823914,-1.3055968284606934
1740006565830472000,2.229471923828125,1.6090768575668335,-0.008653675206005573,-1.2654489278793335
1740006565840455200,2.239455078125,2.010186195373535,-0.41801881790161133,-1.1508989334106445
1740006565850438000,2.24943798828125,2.334035873413086,-0.8401032090187073,-0.9486302137374878
1740006565860420900,2.2594208984375,2.5843589305877686,-1.1620575189590454,-0.6876471042633057
1740006565870404000,2.269404052734375,2.776329517364502,-1.3705947399139404,-0.3806453347206116
1740006565880385800,2.2793857421875,2.9072606563568115,-1.4797910451889038,-0.030402913689613342
1740006565890369000,2.289369140625,2.9950644969940186,-1.4812579154968262,0.332753986120224
1740006565900352000,2.29935205078125,3.074197292327881,-1.3814642429351807,0.6644741296768188
1740006565910335000,2.3093349609375,3.184354543685913,-1.2212047576904297,0.9175684452056885
1740006565920318000,2.31931787109375,3.3154306411743164,-1.0332849025726318,1.0856951475143433
1740006565930301000,2.329301025390625,3.4632673263549805,-0.8199782371520996,1.1858062744140625
1740006565940284000,2.339283935546875,3.6218442916870117,-0.588777482509613,1.2397408485412598
1740006565950267100,2.34926708984375,3.732832670211792,-0.3657393753528595,1.2831692695617676
1740006565960249900,2.359249755859375,3.8384833335876465,-0.25384318828582764,1.3823145627975464
1740006565970232000,2.369232177734375,3.8910000324249268,-0.2644396424293518,1.5209670066833496
1740006565980215000,2.379215087890625,3.853912830352783,-0.3070105314254761,1.633477807044983
1740006565990198000,2.389197998046875,3.7419991493225098,-0.3320402503013611,1.6903642416000366
1740006566000181000,2.399180908203125,3.5852649211883545,-0.35459110140800476,1.6897445917129517
1740006566010164000,2.4091640625,3.4195826053619385,-0.42925068736076355,1.5980249643325806
1740006566020147200,2.419147216796875,3.2828264236450195,-0.5058045983314514,1.4043023586273193
1740006566030130000,2.4291298828125,3.1486728191375732,-0.5066272616386414,1.127997636795044
1740006566040113000,2.43911279296875,2.966869831085205,-0.47078055143356323,0.7613093256950378
1740006566050096000,2.44909619140625,2.7541394233703613,-0.4825724959373474,0.3448388874530792
1740006566060077800,2.459077880859375,2.5186479091644287,-0.6142610311508179,-0.06263302266597748
1740006566070061000,2.46906103515625,2.312695264816284,-0.8516610860824585,-0.45206892490386963
1740006566080044000,2.4790439453125,2.217545509338379,-1.0903607606887817,-0.7662228941917419
1740006566090027000,2.489027099609375,2.234556198120117,-1.2641847133636475,-0.9613886475563049
1740006566100010000,2.499010009765625,2.3160758018493652,-1.482161045074463,-1.0390427112579346
1740006566109993000,2.508992919921875,2.422870397567749,-1.786250352859497,-1.0312860012054443
1740006566119976000,2.518975830078125,2.5294082164764404,-2.1091861724853516,-0.9646669626235962
1740006566129959000,2.528958984375,2.613058567047119,-2.3686065673828125,-0.8625723123550415
1740006566139940900,2.53894091796875,2.667543649673462,-2.5399787425994873,-0.7346351146697998
1740006566149924000,2.548924072265625,2.6913185119628906,-2.6257681846618652,-0.579369068145752
1740006566159906800,2.55890673828125,2.6794705390930176,-2.64245867729187,-0.40464627742767334
1740006566169890000,2.56889013671875,2.645902633666992,-2.6324522495269775,-0.19685393571853638
1740006566179873000,2.578873046875,2.608875036239624,-2.637011766433716,0.031260449439287186
1740006566189856000,2.58885595703125,2.545271635055542,-2.634486436843872,0.24218733608722687
1740006566199839000,2.5988388671875,2.442139148712158,-2.6016504764556885,0.41043519973754883
1740006566209822000,2.608822021484375,2.3070013523101807,-2.5223283767700195,0.5501161217689514
1740006566219805000,2.618804931640625,2.142359495162964,-2.4079713821411133,0.6729975938796997
1740006566229787000,2.628786865234375,1.9708867073059082,-2.2810113430023193,0.7750083804130554
1740006566239769900,2.638769775390625,1.815040111541748,-2.146132230758667,0.8484828472137451
1740006566249753000,2.648753173828125,1.706243634223938,-2.0373151302337646,0.889668345451355
1740006566259736000,2.658736083984375,1.620540738105774,-2.023165702819824,0.8624306321144104
1740006566269718800,2.66871875,1.5126116275787354,-2.094233751296997,0.7411095499992371
1740006566279702000,2.678701904296875,1.375990629196167,-2.1445982456207275,0.5322902798652649
1740006566289685000,2.68868505859375,1.2142027616500854,-2.091977834701538,0.2648865282535553
1740006566299668000,2.69866796875,1.026694655418396,-1.9471288919448853,-0.0530879870057106
1740006566309650000,2.70864990234375,0.7960034012794495,-1.748989462852478,-0.37472060322761536
1740006566319633000,2.7186328125,0.5595844984054565,-1.5174773931503296,-0.6631300449371338
1740006566329616100,2.7286162109375,0.34985947608947754,-1.310082197189331,-0.8838616013526917
1740006566339598800,2.738598876953125,0.19790509343147278,-1.1754703521728516,-1.062416672706604
1740006566349582000,2.74858203125,0.07239164412021637,-1.0879154205322266,-1.265192985534668
1740006566359565000,2.75856494140625,-0.08494258671998978,-0.9625974297523499,-1.5203025341033936
1740006566369548000,2.768548095703125,-0.2637794315814972,-0.7999653816223145,-1.8169323205947876
1740006566379531000,2.778531005859375,-0.47791144251823425,-0.6061029434204102,-2.0800888538360596
1740006566389514000,2.788513916015625,-0.7511562705039978,-0.3979702591896057,-2.2649154663085938
1740006566399496200,2.79849609375,-1.0892040729522705,-0.06345061212778091,-2.3602654933929443
1740006566409479000,2.80847900390625,-1.3733431100845337,0.39426741003990173,-2.3706326484680176
1740006566419462000,2.8184619140625,-1.602834939956665,0.9363964796066284,-2.3042054176330566
1740006566429445000,2.828445068359375,-1.769993543624878,1.5323556661605835,-2.170286178588867
1740006566439428000,2.838427978515625,-1.860680341720581,2.1868348121643066,-1.9838550090789795
1740006566449410800,2.848410888671875,-1.8843175172805786,2.9059622287750244,-1.779305338859558
1740006566459394000,2.85839404296875,-1.8618015050888062,3.5647103786468506,-1.5877875089645386
1740006566469377000,2.868376953125,-1.8390799760818481,4.043630599975586,-1.4448509216308594
1740006566479359700,2.87835986328125,-1.8348695039749146,4.347148418426514,-1.3941214084625244
1740006566489342000,2.888342041015625,-1.871594786643982,4.558215141296387,-1.4434192180633545
1740006566499325000,2.898324951171875,-1.988141655921936,4.700549125671387,-1.5738930702209473
1740006566509308200,2.90830810546875,-2.1988120079040527,4.809582710266113,-1.7726125717163086
1740006566519291000,2.918290771484375,-2.4671595096588135,4.882009029388428,-1.958365559577942
1740006566529274000,2.928274169921875,-2.762206792831421,4.946855545043945,-2.07655668258667
1740006566539257000,2.938257080078125,-2.9943485260009766,4.992591857910156,-2.099612236022949
1740006566549239800,2.94823974609375,-3.1313564777374268,4.918398857116699,-2.086590528488159
1740006566559223000,2.95822314453125,-3.21063232421875,4.667163372039795,-2.116039276123047
1740006566569205000,2.968205078125,-3.249910831451416,4.312171459197998,-2.172497034072876
1740006566579188000,2.97818798828125,-3.3420042991638184,3.9680116176605225,-2.197108030319214
1740006566589171000,2.9881708984375,-3.56162428855896,3.6630630493164062,-2.1088621616363525
1740006566599154000,2.99815380859375,-3.902003526687622,3.454946279525757,-1.8776276111602783
1740006566609137200,3.00813720703125,-4.297464370727539,3.3429245948791504,-1.5035208463668823
1740006566619119900,3.018119873046875,-4.694993019104004,3.275378465652466,-1.068605661392212
1740006566629102800,3.028102783203125,-5.028814792633057,3.1768743991851807,-0.5751082897186279
1740006566639086000,3.038086181640625,-5.146059036254883,2.9917917251586914,-0.06161010265350342
1740006566649069000,3.048069091796875,-5.006679058074951,2.7320261001586914,0.43292906880378723
1740006566659051000,3.058051025390625,-4.716988563537598,2.517322301864624,0.8816338777542114
1740006566669034000,3.068033935546875,-4.34046745300293,2.4235124588012695,1.2971466779708862
1740006566679017000,3.078016845703125,-3.957758665084839,2.4513683319091797,1.6506091356277466
1740006566689000000,3.088,-3.62593936920166,2.5165047645568848,1.9171401262283325
1740006566698983000,3.09798291015625,-3.3529741764068604,2.5327954292297363,2.0764882564544678
1740006566708966100,3.107966064453125,-3.1052863597869873,2.478813409805298,2.099900484085083
1740006566718949000,3.11794921875,-2.8871309757232666,2.3317277431488037,1.9774290323257446
1740006566728931800,3.127931884765625,-2.6801273822784424,2.1024272441864014,1.7462350130081177
1740006566738914000,3.1379140625,-2.4885993003845215,1.7993909120559692,1.4445475339889526
1740006566748897000,3.14789697265625,-2.290644645690918,1.3849103450775146,1.0923881530761719
1740006566758880000,3.1578798828125,-2.072873830795288,0.9088303446769714,0.7459069490432739
1740006566768863000,3.167863037109375,-1.8501060009002686,0.43084219098091125,0.44397610425949097
1740006566778846000,3.177845947265625,-1.6388931274414062,-0.01284815464168787,0.2124134600162506
1740006566788829200,3.1878291015625,-1.4924226999282837,-0.4047333598136902,0.023918116465210915
1740006566798812000,3.19781201171875,-1.4156781435012817,-0.6362888216972351,-0.19990086555480957
1740006566808795000,3.207794921875,-1.3069298267364502,-0.8142023682594299,-0.3954264223575592
1740006566818778000,3.217778076171875,-1.1361695528030396,-0.9431576728820801,-0.4987935423851013
1740006566828759800,3.227759765625,-0.933153510093689,-1.0010912418365479,-0.519953727722168
1740006566838743000,3.237742919921875,-0.7422698736190796,-0.9650094509124756,-0.48276424407958984
1740006566848726000,3.24772607421875,-0.5828314423561096,-0.8419855237007141,-0.3801518678665161
1740006566858709000,3.257708984375,-0.4580192267894745,-0.7015248537063599,-0.251123309135437
1740006566868692000,3.26769189453125,-0.3402947187423706,-0.5745058655738831,-0.1347399652004242
1740006566878675000,3.277675048828125,-0.17100849747657776,-0.4569169580936432,-0.04884210601449013
1740006566888658000,3.287657958984375,0.07559222728013992,-0.3158772587776184,-0.02310771681368351
1740006566898641200,3.29764111328125,0.380237877368927,-0.11502112448215485,-0.08543127775192261
1740006566908624000,3.307623779296875,0.7098477482795715,0.06941289454698563,-0.22378648817539215
1740006566918606000,3.317606201171875,1.0237250328063965,0.17588235437870026,-0.3385618031024933
1740006566928589000,3.327589111328125,1.2797695398330688,0.16303285956382751,-0.36086738109588623
1740006566938572000,3.337572021484375,1.4956650733947754,0.10699036717414856,-0.27709925174713135
1740006566948555000,3.347554931640625,1.6879898309707642,0.07452669739723206,-0.089454784989357
1740006566958538000,3.3575380859375,1.843508005142212,-0.0389721654355526,0.1809423565864563
1740006566968521200,3.367521240234375,1.9559909105300903,-0.34363406896591187,0.4846463203430176
1740006566978504000,3.37750390625,2.089289903640747,-0.7220306396484375,0.7576613426208496
1740006566988487000,3.38748681640625,2.2899091243743896,-0.9939218163490295,0.9583845734596252
1740006566998469000,3.39746923828125,2.5427019596099854,-1.0524709224700928,1.0871540307998657
1740006567008451800,3.407451904296875,2.8025922775268555,-0.8988538980484009,1.1576167345046997
1740006567018435000,3.41743505859375,3.0351457595825195,-0.6613388061523438,1.2478574514389038
1740006567028418000,3.42741796875,3.2100117206573486,-0.39296141266822815,1.3951283693313599
1740006567038401000,3.437401123046875,3.346339225769043,-0.13425341248512268,1.5944907665252686
1740006567048384000,3.447384033203125,3.4557077884674072,0.1435459852218628,1.8354564905166626
1740006567058367000,3.457366943359375,3.530632257461548,0.4402093291282654,2.0817530155181885
1740006567068350000,3.467349853515625,3.5966129302978516,0.7106208801269531,2.283456802368164
1740006567078333200,3.477333251953125,3.701899528503418,0.9453974366188049,2.422053337097168
1740006567088315100,3.487315185546875,3.858240842819214,1.133915662765503,2.462944507598877
1740006567098298000,3.497298095703125,4.070723056793213,1.2673661708831787,2.4450881481170654
1740006567108281000,3.507281005859375,4.221922397613525,1.3619285821914673,2.402189016342163
1740006567118264000,3.51726416015625,4.245236873626709,1.3398797512054443,2.3566648960113525
1740006567128247000,3.5272470703125,4.199627876281738,1.1823843717575073,2.3066513538360596
1740006567138230000,3.53722998046875,4.18150520324707,0.9568010568618774,2.247171401977539
1740006567148213000,3.547212890625,4.206573486328125,0.75202876329422,2.1809921264648438
1740006567158196000,3.557196044921875,4.2864789962768555,0.5916297435760498,2.1176955699920654
1740006567168179000,3.567178955078125,4.432711601257324,0.47730690240859985,2.0761592388153076
1740006567178161000,3.577160888671875,4.657622814178467,0.39489617943763733,2.104888677597046
1740006567188143900,3.587143798828125,4.998910903930664,0.17824457585811615,2.2495548725128174
1740006567198127000,3.597127197265625,5.4370574951171875,-0.36482536792755127,2.501976490020752
1740006567208110000,3.607110107421875,5.799293041229248,-1.1019973754882812,2.845712184906006
1740006567218092800,3.6170927734375,6.005593299865723,-1.7770874500274658,3.2183804512023926
1740006567228076000,3.627075927734375,5.9319000244140625,-2.093654155731201,3.509030818939209
1740006567238059000,3.63705908203125,5.5352864265441895,-2.09295916557312,3.577296257019043
1740006567248042000,3.6470419921875,4.946126461029053,-1.8785370588302612,3.396519422531128
1740006567258024000,3.65702392578125,4.344419479370117,-1.5299681425094604,3.004009485244751
1740006567268007200,3.667007080078125,3.8272697925567627,-1.1087807416915894,2.534379005432129
1740006567277990100,3.676990234375,3.426304340362549,-0.6448493003845215,2.115281820297241
1740006567287972900,3.686972900390625,3.169759511947632,-0.24014389514923096,1.8048328161239624
1740006567297956000,3.6969560546875,3.057804584503174,0.023306122049689293,1.6209657192230225
1740006567307939000,3.70693896484375,3.0644500255584717,0.13757170736789703,1.5121630430221558
1740006567317922000,3.716922119140625,3.1013340950012207,0.14296993613243103,1.4328861236572266
1740006567327905000,3.726905029296875,3.0090668201446533,0.047516386955976486,1.3282324075698853
1740006567337888000,3.736887939453125,2.755549430847168,-0.18983571231365204,1.2088344097137451
1740006567347871000,3.74687109375,2.4466686248779297,-0.4001340866088867,1.0518373250961304
1740006567357853000,3.75685302734375,2.161972761154175,-0.44242188334465027,0.8329925537109375
1740006567367836000,3.7668359375,1.9105770587921143,-0.4410533010959625,0.6081535816192627
1740006567377819100,3.776819091796875,1.6396187543869019,-0.4604368507862091,0.39935430884361267
1740006567387802000,3.786802001953125,1.3394662141799927,-0.5635877251625061,0.14215794205665588
1740006567397784800,3.796784912109375,1.040142297744751,-0.7588102221488953,-0.1684771627187729
1740006567407768000,3.80676806640625,0.8210999369621277,-0.9906045794487,-0.4536726772785187
1740006567417751000,3.8167509765625,0.7676090598106384,-0.9670419692993164,-0.6564769148826599
1740006567427734000,3.826734130859375,0.6122484803199768,-1.1142085790634155,-0.7909979820251465
1740006567437716000,3.836716064453125,0.3838541805744171,-1.1054853200912476,-0.8718312978744507
1740006567447700000,3.846699951171875,0.12692731618881226,-0.9931891560554504,-0.939202606678009
1740006567457683200,3.85668310546875,-0.09897611290216446,-0.9569305181503296,-1.0519062280654907
1740006567467666000,3.866666015625,-0.32238471508026123,-0.8234643340110779,-1.2557512521743774
1740006567477648100,3.876648193359375,-0.5385785102844238,-0.6368555426597595,-1.5663847923278809
1740006567487631000,3.886631103515625,-0.727899432182312,-0.5787914395332336,-1.9410436153411865
1740006567497613800,3.89661376953125,-0.9145798683166504,-0.5567106604576111,-2.2991838455200195
1740006567507597000,3.90659716796875,-1.1683988571166992,-0.5450292229652405,-2.5622003078460693
1740006567517580000,3.916580078125,-1.5192530155181885,-0.4605167508125305,-2.730851888656616
1740006567527563000,3.92656298828125,-1.9095046520233154,-0.26509159803390503,-2.8114287853240967
1740006567537546000,3.9365458984375,-2.305915355682373,0.030991205945611,-2.7932326793670654
1740006567547529000,3.946529052734375,-2.653898000717163,0.4330965578556061,-2.642343521118164
1740006567557511200,3.95651123046875,-2.9131641387939453,0.8918359279632568,-2.3574278354644775
1740006567567494000,3.966493896484375,-3.1368260383605957,1.3265974521636963,-2.042685031890869
1740006567577476900,3.976476806640625,-3.347724676132202,1.6622329950332642,-1.7744780778884888
1740006567587460000,3.986460205078125,-3.547914743423462,1.9457552433013916,-1.5858514308929443
1740006567597443000,3.996443115234375,-3.7295355796813965,2.2204065322875977,-1.4678672552108765
1740006567607426000,4.006426025390625,-3.944432020187378,2.4866220951080322,-1.405574917793274
1740006567617409000,4.016408935546875,-4.207880973815918,2.696509599685669,-1.4029873609542847
1740006567627392000,4.02639208984375,-4.472902774810791,2.8641209602355957,-1.4786200523376465
1740006567637375200,4.036375244140625,-4.623228073120117,2.9644317626953125,-1.5928598642349243
1740006567647357000,4.04635693359375,-4.606898307800293,2.905089855194092,-1.6769485473632812
1740006567657340200,4.056340087890625,-4.413622856140137,2.6457977294921875,-1.712678074836731
1740006567667323100,4.0663232421875,-4.045657157897949,2.1144213676452637,-1.6819322109222412
1740006567677305900,4.076305908203125,-3.6241207122802734,1.329667329788208,-1.6067441701889038
1740006567687289000,4.0862890625,-3.3120923042297363,0.38275349140167236,-1.517297387123108
1740006567697272000,4.09627197265625,-3.1974990367889404,-0.48426681756973267,-1.4053874015808105
1740006567707255000,4.106255126953125,-3.224325656890869,-1.08706533908844,-1.2207320928573608
1740006567717238000,4.116238037109375,-3.2806131839752197,-1.4887968301773071,-0.9507354497909546
1740006567727221000,4.126220947265625,-3.28914737701416,-1.8548498153686523,-0.6049237251281738
1740006567737203200,4.136203125,-3.2120766639709473,-2.307081460952759,-0.2490154206752777
1740006567747186000,4.14618603515625,-3.074326992034912,-2.718533992767334,0.06375501304864883
1740006567757169000,4.1561689453125,-2.9346752166748047,-2.9894628524780273,0.33146926760673523
1740006567767152000,4.166152099609375,-2.7704741954803467,-3.1457808017730713,0.5351662039756775
1740006567777135000,4.176135009765625,-2.6281237602233887,-3.0716567039489746,0.6112503409385681
1740006567787118000,4.1861181640625,-2.5824055671691895,-2.745851516723633,0.530785858631134
1740006567797101000,4.19610107421875,-2.607618808746338,-2.2272322177886963,0.34930419921875
1740006567807084000,4.206083984375,-2.6284663677215576,-1.682637333869934,0.12582503259181976
1740006567817066000,4.21606591796875,-2.558698892593384,-1.2050297260284424,-0.06107667088508606
1740006567827049000,4.226049072265625,-2.3939671516418457,-0.8925869464874268,-0.20629644393920898
1740006567837032200,4.2360322265625,-2.163815975189209,-0.8044754266738892,-0.3253895342350006
1740006567847015400,4.246015380859375,-1.950073003768921,-0.7391334772109985,-0.4619191586971283
1740006567856998400,4.255998291015625,-1.7850250005722046,-0.5475342273712158,-0.5615653395652771
1740006567866981600,4.265981689453125,-1.699008822441101,-0.30102482438087463,-0.5986120104789734
1740006567876964400,4.27596435546875,-1.6920191049575806,-0.05897463485598564,-0.6170986294746399
1740006567886946600,4.285946533203125,-1.6555505990982056,0.1010722890496254,-0.6254721283912659
1740006567896929500,4.295929443359375,-1.5018404722213745,0.20669326186180115,-0.6506952047348022
1740006567906912300,4.305912353515625,-1.2697206735610962,0.23939847946166992,-0.6985695362091064
1740006567916895500,4.3158955078125,-1.013411045074463,0.2180604338645935,-0.7502766847610474
1740006567926878500,4.32587841796875,-0.7626534104347229,0.248734712600708,-0.8106241226196289
1740006567936861400,4.335861328125,-0.5611168742179871,0.3360310196876526,-0.859919011592865
1740006567946844400,4.345844482421875,-0.4468379616737366,0.49236413836479187,-0.874269425868988
1740006567956827400,4.355827392578125,-0.3654589354991913,0.6698001623153687,-0.8293759822845459
1740006567966809600,4.3658095703125,-0.23331527411937714,0.81247478723526,-0.7374801635742188
1740006567976792300,4.375792236328125,-0.02249971590936184,0.8840384483337402,-0.6248255372047424
1740006567986775300,4.385775390625,0.2536136209964752,0.9273310899734497,-0.5387100577354431
1740006567996758500,4.395758544921875,0.5576797723770142,0.9580514430999756,-0.5081279277801514
1740006568006741200,4.4057412109375,0.8465246558189392,0.9640129208564758,-0.5263093113899231
1740006568016724200,4.41572412109375,1.0696309804916382,0.8788375854492188,-0.5414073467254639
1740006568026707500,4.42570751953125,1.1504701375961304,0.6743502020835876,-0.5003954768180847
1740006568036690400,4.4356904296875,1.091847538948059,0.47318726778030396,-0.3874230980873108
1740006568046673400,4.44567333984375,1.0057318210601807,0.392080694437027,-0.20340211689472198
1740006568056655400,4.4556552734375,1.1119438409805298,0.49237826466560364,0.10563614964485168
1740006568066638600,4.465638671875,1.4448639154434204,0.718411386013031,0.5548490881919861
1740006568076621300,4.475621337890625,1.8591735363006592,0.9601505398750305,1.0800849199295044
1740006568086604300,4.485604248046875,2.201801061630249,1.1381950378417969,1.5704567432403564
1740006568096587500,4.49558740234375,2.430098533630371,1.2833621501922607,1.9526137113571167
1740006568106570500,4.505570556640625,2.5424251556396484,1.3887256383895874,2.2069501876831055
1740006568116553200,4.51555322265625,2.5587916374206543,1.4721187353134155,2.3402822017669678
1740006568126536400,4.525536376953125,2.496624231338501,1.5456936359405518,2.401624917984009
1740006568136519400,4.53551953125,2.4273359775543213,1.6360751390457153,2.411656379699707
1740006568146501400,4.54550146484375,2.4237825870513916,1.8042796850204468,2.388970375061035
1740006568156484400,4.555484375,2.4914774894714355,1.9812722206115723,2.382509231567383
1740006568166467300,4.56546728515625,2.6040303707122803,2.0825388431549072,2.391993999481201
1740006568176450600,4.575450439453125,2.6938934326171875,2.065598964691162,2.418336868286133
1740006568186433300,4.585433349609375,2.7370047569274902,1.9898875951766968,2.4422197341918945
1740006568196416300,4.595416259765625,2.722344398498535,1.9327398538589478,2.4292819499969482
1740006568206399500,4.6053994140625,2.6961426734924316,1.8621599674224854,2.368058204650879
1740006568216382500,4.615382568359375,2.6987695693969727,1.7552889585494995,2.2498106956481934
1740006568226365400,4.625365478515625,2.737617254257202,1.7073432207107544,2.059070348739624
1740006568236347400,4.635347412109375,2.7878518104553223,1.7253997325897217,1.7872543334960938
1740006568246330600,4.64533056640625,2.864922046661377,1.6886640787124634,1.4597060680389404
1740006568256313300,4.655313232421875,2.963000535964966,1.5603913068771362,1.1375397443771362
1740006568266296300,4.66529638671875,3.061692953109741,1.3562365770339966,0.867920994758606
1740006568276279600,4.675279541015625,3.137866258621216,1.156561017036438,0.6690307855606079
1740006568286262500,4.685262451171875,3.216409683227539,0.9898186922073364,0.5552775859832764
1740006568296245200,4.695245361328125,3.3020517826080322,0.8738462924957275,0.514650285243988
1740006568306228500,4.705228515625,3.3808367252349854,0.7943522334098816,0.5459988713264465
1740006568316210400,4.71521044921875,3.45806884765625,0.7839627265930176,0.6225975155830383
1740006568326193400,4.725193359375,3.5368738174438477,0.9094913601875305,0.7518622875213623
1740006568336176400,4.73517626953125,3.654881000518799,1.1298335790634155,0.9340872168540955
1740006568346159400,4.745159423828125,3.7851555347442627,1.4111297130584717,1.171273112297058
1740006568356142300,4.755142333984375,3.8970835208892822,1.7275209426879883,1.4544377326965332
1740006568366125300,4.765125244140625,3.909275531768799,2.0380654335021973,1.7391365766525269
1740006568376108300,4.7751083984375,3.785266637802124,2.273082971572876,1.9480408430099487
1740006568386091500,4.785091552734375,3.5766379833221436,2.389394521713257,2.0226447582244873
1740006568396074200,4.79507421875,3.337465524673462,2.379676580429077,1.9262079000473022
1740006568406056400,4.805056396484375,3.0915637016296387,2.2467777729034424,1.6621930599212646
1740006568416039400,4.815039306640625,2.854733943939209,1.9876883029937744,1.261456847190857
1740006568426022400,4.8250224609375,2.6289236545562744,1.6535979509353638,0.7761162519454956
1740006568436005400,4.83500537109375,2.3751542568206787,1.3170570135116577,0.23621866106987
1740006568445988400,4.84498828125,2.0611214637756348,0.97065669298172,-0.30967822670936584
1740006568455971600,4.8549716796875,1.7056492567062378,0.6238601207733154,-0.8258904814720154
1740006568465954300,4.864954345703125,1.3601291179656982,0.2760299742221832,-1.2547377347946167
1740006568475937300,4.874937255859375,1.0749878883361816,-0.0606047585606575,-1.5829576253890991
1740006568485920500,4.88492041015625,0.8295027613639832,-0.3852640688419342,-1.797247290611267
1740006568495902200,4.894902099609375,0.571740448474884,-0.634798526763916,-1.9230457544326782
1740006568505885400,4.904885498046875,0.2695763409137726,-0.7739279270172119,-1.9647457599639893
1740006568515868400,4.914868408203125,-0.04800694063305855,-0.7964180707931519,-1.9429709911346436
1740006568525851400,4.924851318359375,-0.4285129904747009,-0.7458369135856628,-1.8827811479568481
1740006568535834400,4.93483447265625,-0.8823939561843872,-0.6334046125411987,-1.7580426931381226
1740006568545817300,4.9448173828125,-1.390263557434082,-0.43342679738998413,-1.5512969493865967
1740006568555800300,4.95480029296875,-1.949215292930603,-0.14049212634563446,-1.2807881832122803
1740006568565783600,4.964783447265625,-2.503244638442993,0.1914738267660141,-0.955327033996582
1740006568575766300,4.974766357421875,-3.0432229042053223,0.3844115734100342,-0.5580334663391113
1740006568585748500,4.98474853515625,-3.5826730728149414,0.1619281768798828,-0.08227809518575668
1740006568595731500,4.9947314453125,-3.9759202003479004,-0.4091041386127472,0.460709810256958
1740006568605714400,5.00471435546875,-4.1588664054870605,-0.9934709072113037,1.0177890062332153
1740006568615697400,5.014697509765625,-4.171022415161133,-1.2872370481491089,1.432021975517273
1740006568625680400,5.024680419921875,-4.091194152832031,-1.2368212938308716,1.4860111474990845
1740006568635663600,5.03466357421875,-3.9772331714630127,-0.9714652299880981,1.0739670991897583
1740006568645646300,5.044646240234375,-3.89143705368042,-0.5707085132598877,0.3092915415763855
1740006568655629300,5.05462939453125,-3.873683452606201,-0.3241857886314392,-0.49865639209747314
1740006568665612500,5.064612548828125,-3.943897008895874,-0.3358869254589081,-1.094031572341919
1740006568675594200,5.07459423828125,-4.083755970001221,-0.422412246465683,-1.5328327417373657
1740006568685577500,5.084577392578125,-4.265021324157715,-0.4655730128288269,-1.9113802909851074
1740006568695560400,5.094560546875,-4.449032783508301,-0.5542051792144775,-2.235896110534668
1740006568705543400,5.10454345703125,-4.610695838928223,-0.716019332408905,-2.4628570079803467
1740006568715526400,5.1145263671875,-4.74102783203125,-0.8803808689117432,-2.5671772956848145
1740006568725509400,5.12450927734375,-4.793094635009766,-1.0558820962905884,-2.55564022064209
1740006568735492400,5.134492431640625,-4.756558895111084,-1.224560022354126,-2.4462900161743164
1740006568745475300,5.144475341796875,-4.629478454589844,-1.3439104557037354,-2.2656962871551514
1740006568755457300,5.154457275390625,-4.427922248840332,-1.3892794847488403,-2.037335157394409
1740006568765440500,5.1644404296875,-4.198977947235107,-1.3710254430770874,-1.7777364253997803
1740006568775423200,5.17442333984375,-3.9648427963256836,-1.2840684652328491,-1.4507522583007812
1740006568785406500,5.184406494140625,-3.807797908782959,-1.033874273300171,-1.0831297636032104
1740006568795389400,5.194389404296875,-3.7028450965881348,-0.7056868076324463,-0.6714470982551575
1740006568805372400,5.204372314453125,-3.6370129585266113,-0.33372762799263,-0.21402999758720398
1740006568815355400,5.21435546875,-3.547053337097168,0.08533699810504913,0.314152330160141
1740006568825338400,5.22433837890625,-3.40315580368042,0.4775492548942566,0.897502601146698
1740006568835321300,5.2343212890625,-3.2197952270507812,0.7417468428611755,1.5006688833236694
1740006568845302500,5.244302490234375,-3.028888463973999,0.6780876517295837,2.06158709526062
1740006568855285800,5.25428564453125,-2.852236270904541,0.271189421415329,2.4961254596710205
1740006568865268700,5.264268798828125,-2.670510768890381,-0.39023247361183167,2.7182419300079346
1740006568875251500,5.27425146484375,-2.4831345081329346,-0.8330980539321899,2.6355373859405518
1740006568885234700,5.284234619140625,-2.3037784099578857,-0.9958006739616394,2.278210401535034
1740006568895217700,5.2942177734375,-2.1614480018615723,-0.8915983438491821,1.7221168279647827
1740006568905200600,5.30420068359375,-2.1085257530212402,-0.6064209342002869,0.9973391890525818
1740006568915183600,5.31418359375,-2.1202609539031982,-0.3760215640068054,0.21656319499015808
1740006568925166600,5.32416650390625,-2.116027593612671,-0.337349534034729,-0.45847782492637634
1740006568935148800,5.334148681640625,-2.0289759635925293,-0.48702478408813477,-0.9807924032211304
1740006568945131500,5.344131591796875,-1.8994232416152954,-0.7014859318733215,-1.389294981956482
1740006568955114500,5.354114501953125,-1.7705203294754028,-0.8762964010238647,-1.7313820123672485
1740006568965097700,5.36409765625,-1.6429400444030762,-0.9609116315841675,-2.0021512508392334
1740006568975080700,5.374080810546875,-1.4996824264526367,-0.9930784106254578,-2.166120767593384
1740006568985063700,5.384063720703125,-1.358507752418518,-1.0200343132019043,-2.21783185005188
1740006568995046700,5.394046630859375,-1.2427308559417725,-1.0502092838287354,-2.184778928756714
1740006569005029600,5.404029541015625,-1.1324437856674194,-1.057305097579956,-2.092711925506592
1740006569015011600,5.414011474609375,-1.0209499597549438,-1.015267252922058,-1.9611384868621826
1740006569024994600,5.42399462890625,-0.8703183531761169,-0.9406005144119263,-1.7875409126281738
1740006569034977800,5.433977783203125,-0.6499713659286499,-0.8292673230171204,-1.5793336629867554
1740006569044960800,5.443960693359375,-0.34619709849357605,-0.7006414532661438,-1.344921588897705
1740006569054943500,5.453943603515625,0.0014761901693418622,-0.574957013130188,-1.1391085386276245
1740006569064926700,5.4639267578125,0.34395816922187805,-0.4988715946674347,-1.0278675556182861
1740006569074909700,5.47390966796875,0.6527910828590393,-0.5563319325447083,-1.0022298097610474
1740006569084892700,5.483892578125,0.9115936160087585,-0.733270525932312,-0.9959202408790588
1740006569094875600,5.493875732421875,1.1285285949707031,-0.8617885112762451,-0.9567422270774841
1740006569104857600,5.503857666015625,1.3312692642211914,-0.9264618158340454,-0.8355913162231445
1740006569114840800,5.5138408203125,1.581108570098877,-0.9935950636863708,-0.6466842293739319
1740006569124823600,5.523823486328125,1.8803832530975342,-1.077431559562683,-0.40884315967559814
1740006569134806500,5.533806640625,2.2111079692840576,-1.0666090250015259,-0.16121312975883484
1740006569144789800,5.543789794921875,2.5547235012054443,-0.9260125160217285,0.07082304358482361
1740006569154772700,5.553772705078125,2.910576820373535,-0.6700561046600342,0.28044578433036804
1740006569164755500,5.56375537109375,3.259671688079834,-0.36156511306762695,0.4822864830493927
1740006569174738700,5.57373876953125,3.5688722133636475,-0.060198090970516205,0.6989849805831909
1740006569184721700,5.5837216796875,3.7668325901031494,0.11138751357793808,0.9261946678161621
1740006569194703600,5.59370361328125,3.840648889541626,0.079396553337574,1.1518571376800537
1740006569204686600,5.6036865234375,3.8372178077697754,-0.0808493122458458,1.3507124185562134
1740006569214669800,5.613669921875,3.760406494140625,-0.2462635636329651,1.4943300485610962
1740006569224652800,5.62365283203125,3.6995859146118164,-0.25235235691070557,1.5372506380081177
1740006569234635500,5.633635498046875,3.7214317321777344,-0.05286933854222298,1.472455620765686
1740006569244618800,5.64361865234375,3.859631299972534,0.1103651225566864,1.3799004554748535
1740006569254601700,5.653601806640625,4.064859867095947,0.19990485906600952,1.318233847618103
1740006569264584400,5.66358447265625,4.254629135131836,0.24112606048583984,1.3003551959991455
1740006569274566700,5.673566650390625,4.375699996948242,0.30095744132995605,1.3082605600357056
1740006569284549600,5.683549560546875,4.352614402770996,0.3315374553203583,1.3282438516616821
1740006569294532600,5.69353271484375,4.243488311767578,0.3169206976890564,1.3803722858428955
1740006569304515600,5.703515625,4.082934379577637,0.36326661705970764,1.4369537830352783
1740006569314498600,5.71349853515625,3.8996729850769043,0.44180136919021606,1.492836594581604
1740006569324481800,5.723481689453125,3.6863954067230225,0.5571154356002808,1.5323586463928223
1740006569334464500,5.733464599609375,3.480316162109375,0.7202452421188354,1.5555353164672852
1740006569344447500,5.743447509765625,3.3211536407470703,0.859405517578125,1.5565998554229736
1740006569354430700,5.7534306640625,3.286783218383789,0.9825043082237244,1.5005568265914917
1740006569364412700,5.76341259765625,3.3735456466674805,1.0055822134017944,1.425310730934143
1740006569374395600,5.773395751953125,3.4799113273620605,0.9482946395874023,1.3654636144638062
1740006569384378600,5.783378662109375,3.509700298309326,0.8950093388557434,1.2903809547424316
1740006569394361900,5.79336181640625,3.4702248573303223,0.8711801767349243,1.1862486600875854
1740006569404344600,5.803344482421875,3.4132940769195557,0.8796287775039673,1.0536088943481445
1740006569414327600,5.81332763671875,3.3629612922668457,0.8930319547653198,0.9063836932182312
1740006569424310800,5.823310791015625,3.299201726913452,0.8935112953186035,0.7407398819923401
1740006569434293800,5.833293701171875,3.240206003189087,0.8670426607131958,0.5427708625793457
1740006569444276500,5.8432763671875,3.1946604251861572,0.7582115530967712,0.30500465631484985
1740006569454258700,5.8532587890625,3.15622615814209,0.4899289608001709,0.026209233328700066
1740006569464241700,5.86324169921875,3.1185805797576904,0.08890537172555923,-0.2916345000267029
1740006569474224600,5.873224609375,3.060227632522583,-0.32699331641197205,-0.607983410358429
1740006569484207600,5.88320751953125,2.9542768001556396,-0.6781401634216309,-0.8625124096870422
1740006569494190600,5.893190673828125,2.7987313270568848,-0.9433323740959167,-1.0513979196548462
1740006569504173800,5.903173828125,2.6347291469573975,-1.1191508769989014,-1.1883509159088135
1740006569514156500,5.913156494140625,2.491136074066162,-1.2312283515930176,-1.2774478197097778
1740006569524139500,5.923139404296875,2.3507862091064453,-1.2869068384170532,-1.323241114616394
1740006569534122800,5.933122802734375,2.170502185821533,-1.27267324924469,-1.3393380641937256
1740006569544104700,5.943104736328125,1.9218838214874268,-1.221116304397583,-1.3291285037994385
1740006569554087700,5.953087646484375,1.5990798473358154,-1.1460130214691162,-1.272436261177063
1740006569564070700,5.963070556640625,1.2292307615280151,-1.0563905239105225,-1.1586124897003174
1740006569574054000,5.973053955078125,0.8379297852516174,-0.878305971622467,-0.980894923210144
1740006569584036600,5.98303662109375,0.4450480341911316,-0.6310426592826843,-0.7804673314094543
1740006569594019600,5.99301953125,0.06418164819478989,-0.3689271807670593,-0.5902555584907532
1740006569604002800,6.0030029296875,-0.2973765432834625,-0.13065095245838165,-0.421290785074234
1740006569613985500,6.012985595703125,-0.6447550058364868,0.07332002371549606,-0.2658388614654541
1740006569623967700,6.0229677734375,-1.0122525691986084,0.24186988174915314,-0.1366872787475586
1740006569633950700,6.03295068359375,-1.4525038003921509,0.30205172300338745,-0.0397878922522068
1740006569643933400,6.042933349609375,-1.9400699138641357,0.2974684238433838,0.024059530347585678
1740006569653916700,6.052916748046875,-2.388502597808838,0.29493844509124756,0.051119644194841385
1740006569663899600,6.062899658203125,-2.789202928543091,0.32356953620910645,0.050874367356300354
1740006569673882600,6.072882568359375,-3.1418981552124023,0.3184666633605957,0.0234129149466753
1740006569683865600,6.082865478515625,-3.405601978302002,0.30739617347717285,-0.011865714564919472
1740006569693848600,6.0928486328125,-3.608529567718506,0.3608647286891937,-0.06124285236001015
1740006569703831600,6.10283154296875,-3.749788522720337,0.49657779932022095,-0.1434871256351471
1740006569713813500,6.1128134765625,-3.8365328311920166,0.6528398394584656,-0.2625011205673218
1740006569723796500,6.12279638671875,-3.898916006088257,0.7619319558143616,-0.40515947341918945
1740006569733779700,6.13277978515625,-3.9697651863098145,0.8477131724357605,-0.5903288125991821
1740006569743762700,6.1427626953125,-4.065455913543701,0.9416871070861816,-0.7758091688156128
1740006569753745700,6.15274560546875,-4.1742353439331055,1.0310633182525635,-0.9379600286483765
1740006569763728600,6.162728759765625,-4.267685890197754,1.0618031024932861,-1.056793451309204
1740006569773711600,6.172711669921875,-4.285027980804443,0.9647505879402161,-1.1133712530136108
1740006569783694800,6.18269482421875,-4.209097385406494,0.7340183258056641,-1.1139683723449707
1740006569793677600,6.192677490234375,-4.05633544921875,0.4107246696949005,-1.096497654914856
1740006569803659800,6.20265966796875,-3.8958635330200195,0.07440472394227982,-1.1231509447097778
1740006569813642800,6.212642822265625,-3.785900354385376,-0.20055706799030304,-1.183448314666748
1740006569823625500,6.22262548828125,-3.7328994274139404,-0.4388793706893921,-1.1769427061080933
1740006569833608700,6.232608642578125,-3.705888271331787,-0.6472538709640503,-1.1094028949737549
1740006569843592000,6.242592041015625,-3.6922624111175537,-0.7839549779891968,-1.0342649221420288
1740006569853575000,6.252574951171875,-3.647812843322754,-0.8142409920692444,-0.9773492217063904
1740006569863558100,6.26255810546875,-3.544158697128296,-0.720273494720459,-0.9395555257797241
1740006569873540900,6.272540771484375,-3.4007492065429688,-0.6189495325088501,-0.9194451570510864
1740006569883523000,6.282523193359375,-3.2763638496398926,-0.5321965217590332,-0.9270341396331787
1740006569893506000,6.292506103515625,-3.198361396789551,-0.4532684087753296,-0.968264102935791
1740006569903488800,6.30248876953125,-3.134693145751953,-0.39826536178588867,-1.012862205505371
1740006569913472000,6.312471923828125,-3.070960760116577,-0.3975473642349243,-1.0170478820800781
1740006569923455000,6.322455078125,-3.0020954608917236,-0.38215136528015137,-0.9498584866523743
1740006569933438000,6.33243798828125,-2.9421801567077637,-0.2925493121147156,-0.8304072022438049
1740006569943421000,6.3424208984375,-2.878509044647217,-0.16272659599781036,-0.6685991287231445
1740006569953404000,6.35240380859375,-2.792224884033203,-0.04845808073878288,-0.4728096127510071
1740006569963387100,6.36238720703125,-2.696392774581909,0.02099076844751835,-0.258707195520401
1740006569973368800,6.372368896484375,-2.5560414791107178,0.06648528575897217,-0.01589108258485794
1740006569983352000,6.38235205078125,-2.461846113204956,0.14144395291805267,0.15577948093414307
1740006569993335000,6.3923349609375,-2.3797125816345215,0.22457878291606903,0.2403620034456253
1740006570003318000,6.402318115234375,-2.299278736114502,0.3138796389102936,0.2564152777194977
1740006570013301000,6.412301025390625,-2.211970806121826,0.37134772539138794,0.21738292276859283
1740006570023284000,6.422283935546875,-2.0783462524414062,0.4097992479801178,0.1524188369512558
1740006570033267000,6.432266845703125,-1.9414536952972412,0.49943244457244873,0.07212799042463303
1740006570043250200,6.442250244140625,-1.8091460466384888,0.5947248935699463,-0.016207998618483543
1740006570053233000,6.45223291015625,-1.6845614910125732,0.6189934611320496,-0.08799217641353607
1740006570063215000,6.462215087890625,-1.5757015943527222,0.5848197937011719,-0.13360679149627686
1740006570073198000,6.472197998046875,-1.463263750076294,0.5318686962127686,-0.15127606689929962
1740006570083180800,6.482180908203125,-1.3368844985961914,0.44711410999298096,-0.16277426481246948
1740006570093164000,6.4921640625,-1.2051799297332764,0.2874717116355896,-0.2012883722782135
1740006570103147000,6.50214697265625,-1.0432387590408325,0.07151492685079575,-0.26489317417144775
1740006570113130000,6.5121298828125,-0.8213369846343994,-0.12692731618881226,-0.34150779247283936
1740006570123113000,6.522113037109375,-0.5674125552177429,-0.22865448892116547,-0.4500657021999359
1740006570133096000,6.532095947265625,-0.292029470205307,-0.25118696689605713,-0.5705191493034363
1740006570143078100,6.542078125,-0.006232596002519131,-0.26043611764907837,-0.6084084510803223
1740006570153060900,6.552060791015625,0.27397215366363525,-0.26907965540885925,-0.5097354054450989
1740006570163044000,6.562044189453125,0.5448537468910217,-0.260724812746048,-0.2544972598552704
1740006570173027000,6.572027099609375,0.7930142879486084,-0.23116956651210785,0.11944916844367981
1740006570183010000,6.582010009765625,1.0438529253005981,-0.2220250815153122,0.5406368970870972
1740006570192993000,6.591992919921875,1.2937085628509521,-0.21214927732944489,0.9327554106712341
1740006570202976000,6.60197607421875,1.5417298078536987,-0.14282771944999695,1.257641077041626
1740006570212959000,6.611958984375,1.7878713607788086,0.010362359695136547,1.4819495677947998
1740006570222942000,6.62194189453125,2.038933753967285,0.22646430134773254,1.6013193130493164
1740006570232924000,6.631923828125,2.29716420173645,0.45600321888923645,1.6457531452178955
1740006570242907100,6.6419072265625,2.5188913345336914,0.6273259520530701,1.6336461305618286
1740006570252889900,6.651889892578125,2.69334077835083,0.756582498550415,1.5836740732192993
1740006570262872800,6.661872802734375,2.833554267883301,0.8899173736572266,1.500169038772583
1740006570272856000,6.67185595703125,2.9577276706695557,1.0179752111434937,1.4058430194854736
1740006570282839000,6.681839111328125,3.049678325653076,1.0859278440475464,1.3151943683624268
1740006570292821800,6.69182177734375,3.1054129600524902,1.085621953010559,1.2430096864700317
1740006570302805000,6.701804931640625,3.1362545490264893,1.0192551612854004,1.175979733467102
1740006570312788000,6.7117880859375,3.115892171859741,0.9233477711677551,1.1240438222885132
1740006570322770000,6.72177001953125,3.033958911895752,0.8123155236244202,1.0915234088897705
1740006570332753000,6.7317529296875,2.9165172576904297,0.7266520261764526,1.0521411895751953
1740006570342736100,6.741736083984375,2.824068307876587,0.6769933700561523,0.9909353256225586
1740006570352719000,6.751718994140625,2.798211097717285,0.631441056728363,0.9446544051170349
1740006570362701800,6.761701904296875,2.8369860649108887,0.6134862899780273,0.9443353414535522
1740006570372685000,6.77168505859375,2.8844292163848877,0.6619808673858643,0.9503540992736816
1740006570382668000,6.78166796875,2.905344247817993,0.7301908135414124,0.9393376708030701
1740006570392651000,6.791651123046875,2.912803888320923,0.793204128742218,0.9266146421432495
1740006570402633000,6.801633056640625,2.968038320541382,0.8049430847167969,0.930151641368866
1740006570412616000,6.811615966796875,3.0421085357666016,0.8375263214111328,0.9165183305740356
1740006570422599200,6.82159912109375,3.080207347869873,0.8455613851547241,0.8782644271850586
1740006570432582000,6.831581787109375,3.1179516315460205,0.783566415309906,0.789006233215332
1740006570442564900,6.84156494140625,3.190138816833496,0.6941081881523132,0.6823082566261292
1740006570452548000,6.851548095703125,3.287440061569214,0.626122236251831,0.5751610398292542
1740006570462531000,6.861531005859375,3.372706890106201,0.5707724094390869,0.4724077582359314
1740006570472513800,6.871513671875,3.432884454727173,0.5163525938987732,0.37778884172439575
1740006570482497000,6.8814970703125,3.463379144668579,0.4834561347961426,0.2999475598335266
1740006570492479000,6.89147900390625,3.4549448490142822,0.49474290013313293,0.2310428023338318
1740006570502462000,6.9014619140625,3.415828227996826,0.5112600922584534,0.17508871853351593
1740006570512445000,6.91144482421875,3.354896306991577,0.506951093673706,0.13528884947299957
1740006570522428200,6.92142822265625,3.281996965408325,0.45645037293434143,0.12106330692768097
1740006570532411100,6.9314111328125,3.1892194747924805,0.38544782996177673,0.13368722796440125
1740006570542393900,6.941393798828125,3.087531566619873,0.32040730118751526,0.16918103396892548
1740006570552377000,6.951377197265625,3.001641035079956,0.2534136176109314,0.19562356173992157
1740006570562360000,6.961360107421875,2.9566118717193604,0.19333989918231964,0.1773068755865097
1740006570572342000,6.971342041015625,2.9278624057769775,0.15921442210674286,0.10116603225469589
1740006570582325000,6.981324951171875,2.881134510040283,0.1790858656167984,-0.02563505619764328
1740006570592308000,6.991307861328125,2.812020778656006,0.22219125926494598,-0.18793421983718872
1740006570602291000,7.001291015625,2.7154195308685303,0.24685905873775482,-0.36995700001716614
1740006570612274000,7.01127392578125,2.5833208560943604,0.2329206019639969,-0.5539636015892029
1740006570622257000,7.0212568359375,2.4015729427337646,0.20979423820972443,-0.7379419803619385
1740006570632240000,7.031240234375,2.164210081100464,0.2088160663843155,-0.9009745717048645
1740006570642222800,7.041222900390625,1.8762798309326172,0.20700804889202118,-1.0201393365859985
1740006570652205800,7.051205810546875,1.5560126304626465,0.19489145278930664,-1.0868573188781738
1740006570662188000,7.06118798828125,1.22559654712677,0.1332952082157135,-1.0789620876312256
1740006570672170800,7.071170654296875,0.8922247290611267,-0.0008317052270285785,-1.0097718238830566
1740006570682154000,7.081154052734375,0.5408371686935425,-0.16120274364948273,-0.9067557454109192
1740006570692137000,7.091136962890625,0.15778882801532745,-0.29667747020721436,-0.8106899261474609
1740006570702120200,7.1011201171875,-0.237077534198761,-0.3618796467781067,-0.7453524470329285
1740006570712103000,7.11110302734375,-0.6382697224617004,-0.3885442912578583,-0.6974499225616455
1740006570722086000,7.1210859375,-1.0438896417617798,-0.4130285978317261,-0.6549237966537476
1740006570732069000,7.131069091796875,-1.4703032970428467,-0.4535176753997803,-0.6100108623504639
1740006570742052000,7.141052001953125,-1.8754597902297974,-0.48656004667282104,-0.5518327951431274
1740006570752034000,7.151033935546875,-2.2529029846191406,-0.47136354446411133,-0.4568796753883362
1740006570762017000,7.16101708984375,-2.600395917892456,-0.39225301146507263,-0.32041582465171814
1740006570772000000,7.171,-2.941216468811035,-0.3013435900211334,-0.14207963645458221
1740006570781983000,7.18098291015625,-3.23982572555542,-0.23931671679019928,0.06685546040534973
1740006570791966000,7.190966064453125,-3.466323137283325,-0.15915796160697937,0.2828540802001953
1740006570801949000,7.200948974609375,-3.599541664123535,-0.03587810695171356,0.48925331234931946
1740006570811932200,7.21093212890625,-3.619054079055786,0.09052164107561111,0.691432535648346
1740006570821915000,7.220914794921875,-3.5560340881347656,0.21270321309566498,0.8476032018661499
1740006570831897000,7.23089697265625,-3.4503307342529297,0.3347915709018707,0.8797611594200134
1740006570841880000,7.240880126953125,-3.3489327430725098,0.45573264360427856,0.7645599842071533
1740006570851862500,7.250862548828125,-3.2949135303497314,0.5719040036201477,0.4912698566913605
1740006570861845500,7.260845458984375,-3.319317102432251,0.651977002620697,0.08363497257232666
1740006570871828500,7.270828369140625,-3.41847562789917,0.679409384727478,-0.39377978444099426
1740006570881811700,7.280811767578125,-3.5496890544891357,0.5538272261619568,-0.859024167060852
1740006570891794400,7.29079443359375,-3.6661770343780518,0.2992205321788788,-1.265115737915039
1740006570901777400,7.30077734375,-3.744422674179077,-0.014071078039705753,-1.590142846107483
1740006570911760600,7.3107607421875,-3.801649570465088,-0.3047705590724945,-1.7983951568603516
1740006570921742300,7.320742431640625,-3.845836877822876,-0.5051981806755066,-1.8676713705062866
1740006570931725600,7.3307255859375,-3.891425371170044,-0.6183364391326904,-1.8029863834381104
1740006570941708500,7.34070849609375,-3.9215002059936523,-0.6622099280357361,-1.6140079498291016
1740006570951691500,7.35069140625,-3.924272298812866,-0.6567413806915283,-1.3442862033843994
1740006570961674500,7.360674560546875,-3.907243490219116,-0.5906651616096497,-1.0410892963409424
1740006570971657500,7.370657470703125,-3.8223228454589844,-0.5094725489616394,-0.7281817197799683
1740006570981640700,7.380640625,-3.6806302070617676,-0.3982347249984741,-0.44628453254699707
1740006570991623700,7.390623779296875,-3.536128520965576,-0.25083649158477783,-0.23771615326404572
1740006571001606400,7.4006064453125,-3.40979266166687,-0.02366032265126705,-0.11268393695354462
1740006571011588600,7.410588623046875,-3.2959179878234863,0.22273507714271545,-0.05909554287791252
1740006571021571600,7.420571533203125,-3.1997454166412354,0.4162145256996155,-0.0635233148932457
1740006571031554600,7.430554443359375,-3.088585138320923,0.499745637178421,-0.11017923802137375
1740006571041537500,7.44053759765625,-2.9562888145446777,0.46941089630126953,-0.1964624524116516
1740006571051520500,7.4505205078125,-2.8419816493988037,0.3925725817680359,-0.3200390040874481
1740006571061503500,7.46050341796875,-2.7673943042755127,0.28402426838874817,-0.45619842410087585
1740006571071486500,7.470486572265625,-2.7277491092681885,0.17391054332256317,-0.5608726143836975
1740006571081469400,7.480469482421875,-2.6979668140411377,0.0767030343413353,-0.6326581239700317
1740006571091451400,7.490451416015625,-2.657365322113037,-0.017315607517957687,-0.6744276881217957
1740006571101434400,7.500434326171875,-2.608546257019043,-0.14148496091365814,-0.6945409774780273
1740006571111417600,7.51041748046875,-2.553025245666504,-0.24325792491436005,-0.7088746428489685
1740006571121400600,7.520400634765625,-2.450044870376587,-0.21277564764022827,-0.7499509453773499
1740006571131383300,7.53038330078125,-2.218019723892212,-0.11319020390510559,-0.7873574495315552
1740006571141366500,7.540366455078125,-1.8540970087051392,-0.026570091024041176,-0.8120343089103699
1740006571151349500,7.550349609375,-1.4373661279678345,0.01110271830111742,-0.7956430912017822
1740006571161332500,7.56033251953125,-1.0943619012832642,-0.03081543743610382,-0.7454648613929749
1740006571171315500,7.5703154296875,-0.8356602787971497,-0.21754777431488037,-0.7140328884124756
1740006571181297700,7.580297607421875,-0.6580827832221985,-0.43474453687667847,-0.7241291999816895
1740006571191280600,7.59028076171875,-0.5559998750686646,-0.570317804813385,-0.7646588087081909
1740006571201263400,7.600263427734375,-0.5392376780509949,-0.611260712146759,-0.8266124129295349
1740006571211246600,7.61024658203125,-0.5557135939598083,-0.6024065017700195,-0.8717389106750488
1740006571221229600,7.6202294921875,-0.5339475274085999,-0.6064989566802979,-0.8506309390068054
1740006571231212500,7.630212646484375,-0.44035181403160095,-0.6560872793197632,-0.7612265348434448
1740006571241195500,7.640195556640625,-0.25221705436706543,-0.7550879120826721,-0.6246468424797058
1740006571251178500,7.650178466796875,0.0007877630414441228,-0.8893703818321228,-0.44694340229034424
1740006571261161500,7.660161376953125,0.294121116399765,-1.0088682174682617,-0.2429111748933792
1740006571271143400,7.670143310546875,0.6006109714508057,-1.039306879043579,-0.010818825103342533
1740006571281126400,7.68012646484375,0.9016672372817993,-0.9220492243766785,0.22546455264091492
1740006571291109600,7.690109619140625,1.2221730947494507,-0.6375617980957031,0.4505876898765564
1740006571301092600,7.700092529296875,1.5532045364379883,-0.24857385456562042,0.6618655920028687
1740006571311075300,7.710075439453125,1.8937267065048218,0.16300515830516815,0.8698150515556335
1740006571321058600,7.72005859375,2.221344232559204,0.535576343536377,1.0758541822433472
1740006571331041500,7.73004150390625,2.5361390113830566,0.8330338597297668,1.2818180322647095
1740006571341024500,7.7400244140625,2.8349499702453613,1.026530385017395,1.4701142311096191
1740006571351006500,7.75000634765625,3.1148464679718018,1.1341787576675415,1.6359750032424927
1740006571360989700,7.75998974609375,3.350044012069702,1.170742392539978,1.7420591115951538
1740006571370972700,7.76997265625,3.5434975624084473,1.1556556224822998,1.7629740238189697
1740006571380955400,7.779955322265625,3.6840803623199463,1.1015419960021973,1.7155039310455322
1740006571390938600,7.789938720703125,3.792436122894287,1.019731044769287,1.6400893926620483
1740006571400921600,7.799921630859375,3.865628242492676,0.9803303480148315,1.5620880126953125
1740006571410904300,7.809904296875,3.880441427230835,0.9557965397834778,1.4886846542358398
1740006571420887600,7.819887451171875,3.8253393173217773,0.9253251552581787,1.4200443029403687
1740006571430870500,7.82987060546875,3.7304399013519287,0.8455360531806946,1.4069911241531372
1740006571440852700,7.839852783203125,3.6329057216644287,0.7277511358261108,1.4569544792175293
1740006571450836500,7.84983642578125,3.5519306659698486,0.6257432699203491,1.5185956954956055
1740006571460818400,7.859818359375,3.4721381664276123,0.5741754174232483,1.5774617195129395
1740006571470801700,7.8698017578125,3.376720905303955,0.5682312250137329,1.6274877786636353
1740006571480784400,7.879784423828125,3.2737462520599365,0.5681398510932922,1.6648367643356323
1740006571490767400,7.889767333984375,3.2107744216918945,0.5987268090248108,1.6810500621795654
1740006571500750600,7.89975048828125,3.1659748554229736,0.5992392301559448,1.667464256286621
1740006571510733600,7.909733642578125,3.116697311401367,0.555229127407074,1.5751005411148071
1740006571520716500,7.919716552734375,3.0991573333740234,0.5180830955505371,1.4065567255020142
1740006571530699500,7.929699462890625,3.13718318939209,0.5555359125137329,1.2015581130981445
1740006571540681700,7.939681640625,3.195861577987671,0.6258862614631653,0.9882798790931702
1740006571550664400,7.94966455078125,3.2178244590759277,0.6662116050720215,0.7833850979804993
1740006571560647400,7.9596474609375,3.1836845874786377,0.7027568221092224,0.5904321074485779
1740006571570630700,7.969630615234375,3.101595401763916,0.7826471328735352,0.4112951457500458
1740006571580613600,7.979613525390625,2.998929977416992,0.8924137949943542,0.2528732717037201
1740006571590596400,7.989596435546875,2.9010212421417236,0.9564815163612366,0.11949976533651352
1740006571600579600,7.99957958984375,2.821164846420288,0.9820904731750488,-0.0013366405619308352
1740006571610562600,8.0095625,2.7620160579681396,0.9683807492256165,-0.12754970788955688
1740006571620545500,8.019545654296875,2.6937100887298584,0.9367133975028992,-0.2627392113208771
1740006571630527500,8.029527587890625,2.617565393447876,0.8951502442359924,-0.4155753552913666
1740006571640510500,8.039510498046875,2.511643409729004,0.8360048532485962,-0.5573396682739258
1740006571650493700,8.04949365234375,2.383164405822754,0.748741090297699,-0.660565972328186
1740006571660476400,8.059476318359375,2.2234880924224854,0.6212483644485474,-0.7171421647071838
1740006571670459400,8.06945947265625,2.0426485538482666,0.4610520303249359,-0.739026665687561
1740006571680442600,8.079442626953124,1.8560893535614014,0.30121204257011414,-0.7374258637428284
1740006571690425600,8.089425537109374,1.654323935508728,0.15003663301467896,-0.7408421635627747
1740006571700408600,8.09940869140625,1.4343998432159424,0.015809589996933937,-0.7565422654151917
1740006571710390500,8.109390625,1.1959228515625,-0.10716985911130905,-0.7845094799995422
1740006571720373500,8.11937353515625,0.9423866868019104,-0.2167954295873642,-0.8000583052635193
1740006571730356500,8.1293564453125,0.6853753924369812,-0.3135611116886139,-0.7918784022331238
1740006571740339500,8.13933935546875,0.41516923904418945,-0.3886430859565735,-0.7586445808410645
1740006571750322700,8.14932275390625,0.1330331563949585,-0.4131833016872406,-0.6934623718261719
1740006571760305700,8.1593056640625,-0.13967160880565643,-0.40857285261154175,-0.6004035472869873
1740006571770288400,8.169288330078125,-0.39981451630592346,-0.4611670970916748,-0.4855307340621948
1740006571780271600,8.179271728515625,-0.6604745984077454,-0.5917059183120728,-0.3719325363636017
1740006571790254600,8.189254638671875,-0.940761387348175,-0.7311961650848389,-0.2574895918369293
1740006571800236500,8.199236572265624,-1.25114107131958,-0.8331824541091919,-0.14299923181533813
1740006571810219500,8.209219482421876,-1.5598528385162354,-0.8704347610473633,-0.018089521676301956
1740006571820202500,8.219202392578126,-1.827884554862976,-0.8717730045318604,0.12302499264478683
1740006571830185500,8.229185546875,-2.0495798587799072,-0.8302420377731323,0.2748507261276245
1740006571840168400,8.23916845703125,-2.2291765213012695,-0.7389004230499268,0.4175082743167877
1740006571850152200,8.249152099609375,-2.357736825942993,-0.5936926603317261,0.5482202172279358
1740006571860134100,8.259134033203125,-2.433652400970459,-0.39241838455200195,0.6630653142929077
1740006571870117000,8.2691171875,-2.4893550872802734,-0.1725350171327591,0.7508313655853271
1740006571880100400,8.279100341796875,-2.5419912338256836,0.024957280606031418,0.8128840923309326
1740006571890083300,8.289083251953125,-2.593414783477783,0.19160112738609314,0.8313709497451782
1740006571900066000,8.299066162109375,-2.6256117820739746,0.29882052540779114,0.7909785509109497
1740006571910049300,8.30904931640625,-2.629185676574707,0.33848562836647034,0.6778118014335632
1740006571920032300,8.3190322265625,-2.605705499649048,0.3162192106246948,0.4785149097442627
1740006571930015200,8.32901513671875,-2.5720040798187256,0.2333538979291916,0.18837469816207886
1740006571939998200,8.338998291015624,-2.546051263809204,0.11612607538700104,-0.19241870939731598
1740006571949980200,8.348980224609376,-2.5083746910095215,-0.039854470640420914,-0.6489324569702148
1740006571959963400,8.35896337890625,-2.4742329120635986,-0.2271873503923416,-1.1564539670944214
1740006571969946000,8.368946044921875,-2.456394672393799,-0.42721444368362427,-1.6554158926010132
1740006571979929000,8.37892919921875,-2.4797894954681396,-0.620233952999115,-2.0838189125061035
1740006571989912300,8.388912353515625,-2.532986640930176,-0.8088193535804749,-2.4067633152008057
1740006571999895300,8.398895263671875,-2.5970137119293213,-0.9782520532608032,-2.6043763160705566
1740006572009878300,8.408878173828125,-2.6605966091156006,-1.1089863777160645,-2.6957175731658936
1740006572019861200,8.418861328125,-2.701533317565918,-1.209583044052124,-2.7155590057373047
1740006572029843500,8.428843505859374,-2.719419002532959,-1.3275476694107056,-2.6691529750823975
1740006572039826200,8.438826171875,-2.7757928371429443,-1.4679971933364868,-2.549445629119873
1740006572049809200,8.44880908203125,-2.8490304946899414,-1.4926331043243408,-2.3838775157928467
1740006572059792400,8.45879248046875,-2.911101818084717,-1.358862280845642,-2.1671345233917236
1740006572069775400,8.468775390625,-2.96240234375,-1.1002346277236938,-1.8996599912643433
1740006572079758000,8.478758056640626,-2.957618236541748,-0.7662268877029419,-1.5891540050506592
1740006572089741300,8.4887412109375,-2.905883550643921,-0.3572758436203003,-1.2280198335647583
1740006572099724300,8.498724365234375,-2.8319146633148193,0.02654319442808628,-0.8286758661270142
1740006572109707000,8.50870703125,-2.77044677734375,0.3080630302429199,-0.42615050077438354
1740006572119689200,8.518689208984375,-2.734159231185913,0.4926336705684662,-0.05291195213794708
1740006572129672200,8.528672119140625,-2.7342538833618164,0.6642520427703857,0.2548155188560486
1740006572139655400,8.538655517578125,-2.7272400856018066,0.7805549502372742,0.4746389389038086
1740006572149638100,8.54863818359375,-2.682441234588623,0.8517507910728455,0.599016010761261
1740006572159621000,8.55862109375,-2.5951905250549316,0.8877527713775635,0.6665084958076477
1740006572169604400,8.568604248046874,-2.498415946960449,0.920590341091156,0.7102272510528564
1740006572179587000,8.578587158203124,-2.434262752532959,0.9609553217887878,0.7565435767173767
1740006572189570300,8.5885703125,-2.398566246032715,1.0275660753250122,0.7893795967102051
1740006572199552300,8.59855224609375,-2.3631575107574463,1.1014357805252075,0.7975025177001953
1740006572209535200,8.60853515625,-2.3184869289398193,1.1378693580627441,0.7694761753082275
1740006572219518200,8.618518310546875,-2.2761244773864746,1.1901142597198486,0.7305042743682861
1740006572229501200,8.628501220703125,-2.200336217880249,1.2896943092346191,0.7559813857078552
1740006572239484400,8.638484375,-2.0643110275268555,1.4631974697113037,0.8855735063552856
1740006572249467100,8.648467041015625,-1.854421854019165,1.6364933252334595,1.1420774459838867
1740006572259450000,8.6584501953125,-1.5672210454940796,1.6417152881622314,1.4869544506072998
1740006572269433300,8.668433349609375,-1.2507578134536743,1.2944570779800415,1.7805063724517822
1740006572279416300,8.678416259765624,-0.9300613403320312,0.5631011724472046,1.9059770107269287
1740006572289398300,8.688398193359374,-0.6214395761489868,-0.4687488377094269,1.8098012208938599
1740006572299381200,8.69838134765625,-0.34277281165122986,-1.4843562841415405,1.5239696502685547
1740006572309364200,8.7083642578125,-0.05818474292755127,-2.2401702404022217,1.1004245281219482
1740006572319347200,8.71834716796875,0.25006017088890076,-2.616222381591797,0.5066775679588318
1740006572329330200,8.728330078125,0.5687832832336426,-2.6084177494049072,-0.22445228695869446
1740006572339313200,8.738313232421875,0.8825393319129944,-2.312049388885498,-0.9782589673995972
1740006572349296400,8.74829638671875,1.1249027252197266,-1.8455966711044312,-1.5900157690048218
1740006572359279000,8.758279052734375,1.2763346433639526,-1.3815715312957764,-1.9436413049697876
1740006572369261300,8.76826123046875,1.4071546792984009,-0.9749659299850464,-2.044510841369629
1740006572379244300,8.778244384765625,1.5911750793457031,-0.5834937691688538,-1.938463807106018
1740006572389227300,8.788227294921874,1.8492563962936401,-0.2441415637731552,-1.7047452926635742
1740006572399210200,8.798210205078124,2.174356698989868,0.03380776569247246,-1.3798391819000244
1740006572409193200,8.808193115234374,2.4929678440093994,0.3168517053127289,-1.0126534700393677
1740006572419176400,8.818176513671874,2.7691407203674316,0.6089664101600647,-0.6544550657272339
1740006572429159200,8.8281591796875,2.9727470874786377,0.8793739080429077,-0.3132931888103485
1740006572439142100,8.83814208984375,3.098151445388794,1.1060822010040283,0.0022335932590067387
1740006572449125400,8.84812548828125,3.159919261932373,1.2976551055908203,0.28959399461746216
1740006572459107000,8.858107177734375,3.1879701614379883,1.4564950466156006,0.5507051944732666
1740006572469090300,8.86809033203125,3.1759302616119385,1.5727713108062744,0.7845425009727478
1740006572479073300,8.8780732421875,3.132582664489746,1.6271083354949951,0.9998518824577332
1740006572489056300,8.88805615234375,3.081333637237549,1.5867654085159302,1.1877354383468628
1740006572499039200,8.898039306640625,3.040330648422241,1.4168645143508911,1.331474781036377
1740006572509022200,8.908022216796875,2.980804443359375,1.1324986219406128,1.3779810667037964
1740006572519005200,8.918005126953124,2.8976190090179443,0.8325549960136414,1.3034144639968872
1740006572528988200,8.92798828125,2.7834742069244385,0.5910952687263489,1.1249195337295532
1740006572538970000,8.93797021484375,2.65449857711792,0.4243720471858978,0.8721322417259216
1740006572548953300,8.947953369140626,2.544903039932251,0.31528738141059875,0.6021460294723511
1740006572558936000,8.95793603515625,2.510749101638794,0.20444154739379883,0.396077036857605
1740006572568919300,8.967919189453125,2.582613945007324,0.06015654653310776,0.27667179703712463
1740006572578902300,8.97790234375,2.7386624813079834,-0.12685728073120117,0.18707694113254547
1740006572588885200,8.98788525390625,2.930462598800659,-0.2630143165588379,0.11367649585008621
1740006572598868200,8.9978681640625,3.1076607704162598,-0.2754656672477722,0.0626002624630928
1740006572608851200,9.007851318359375,3.2361459732055664,-0.17230919003486633,0.03838387504220009
1740006572618834200,9.017834228515625,3.316521406173706,-0.027546938508749008,0.0675545409321785
1740006572628816100,9.027816162109374,3.3691389560699463,0.10625480115413666,0.13019342720508575
1740006572638799000,9.037799072265624,3.4012291431427,0.21887747943401337,0.23208490014076233
1740006572648782300,9.0477822265625,3.4256815910339355,0.30702731013298035,0.3518288731575012
1740006572658765300,9.057765380859376,3.430516481399536,0.38177746534347534,0.47526025772094727
1740006572668748000,9.067748046875,3.414292573928833,0.4181365370750427,0.5881902575492859
1740006572678731300,9.077731201171876,3.3792755603790283,0.38879939913749695,0.6515111923217773
1740006572688714200,9.08771435546875,3.3249619007110596,0.3062818944454193,0.6448721885681152
1740006572698697200,9.097697265625,3.2439544200897217,0.20927704870700836,0.576895534992218
1740006572708679200,9.10767919921875,3.137725830078125,0.10715415328741074,0.47497186064720154
1740006572718662100,9.117662109375,3.005727767944336,-0.0028748824261128902,0.34858888387680054
1740006572728645400,9.127645263671875,2.844266891479492,-0.09266122430562973,0.21647317707538605
1740006572738628000,9.137628173828125,2.6503329277038574,-0.15003104507923126,0.08209220319986343
1740006572748611300,9.147611328125,2.4314982891082764,-0.15581649541854858,-0.05519028380513191
1740006572758594300,9.15759423828125,2.183716058731079,-0.10677331686019897,-0.17862620949745178
1740006572768577300,9.167577392578124,1.9111608266830444,0.022164424881339073,-0.2810881435871124
1740006572778560300,9.177560302734374,1.5978537797927856,0.2150326818227768,-0.34370917081832886
1740006572788543200,9.187543212890626,1.2477489709854126,0.3987468481063843,-0.3455006778240204
1740006572798525400,9.197525390625,0.8790261149406433,0.4659842252731323,-0.241897314786911
1740006572808508200,9.207508056640625,0.470308393239975,0.3738287091255188,-0.029325930401682854
1740006572818491100,9.2174912109375,0.029093170538544655,0.14412948489189148,0.27707502245903015
1740006572828474400,9.227474365234375,-0.425592303276062,-0.10519832372665405,0.6029058694839478
1740006572838457300,9.237457275390625,-0.827425479888916,-0.33078858256340027,0.8811734318733215
1740006572848439600,9.247439453125,-1.1385844945907593,-0.5003799796104431,1.0496162176132202
1740006572858422500,9.257422607421875,-1.3920329809188843,-0.5643595457077026,1.0840051174163818
1740006572868405500,9.267405517578124,-1.635709285736084,-0.5078791975975037,1.0202900171279907
1740006572878387500,9.277387451171874,-1.8910059928894043,-0.33532580733299255,0.8967955112457275
1740006572888370400,9.287370361328126,-2.129298448562622,-0.12572383880615234,0.7654963731765747
1740006572898353700,9.297353759765626,-2.3118231296539307,0.044981855899095535,0.6814083456993103
1740006572908336600,9.307336669921876,-2.4273624420166016,0.1582932323217392,0.6632139086723328
1740006572918319400,9.3173193359375,-2.47025728225708,0.21005390584468842,0.6707943677902222
1740006572928302600,9.327302490234375,-2.491640090942383,0.17760434746742249,0.6508768200874329
1740006572938285600,9.33728564453125,-2.538060426712036,0.08586031198501587,0.5453078150749207
1740006572948268300,9.347268310546875,-2.618577718734741,-0.0601741261780262,0.33410128951072693
1740006572958250500,9.35725048828125,-2.733701229095459,-0.2136712670326233,0.036016590893268585
1740006572968233500,9.3672333984375,-2.8572001457214355,-0.3489481508731842,-0.3038264513015747
1740006572978216400,9.377216552734374,-2.976267099380493,-0.4874255955219269,-0.623356282711029
1740006572988199400,9.387199462890624,-3.097336769104004,-0.643317699432373,-0.8976266980171204
1740006572998182700,9.3971826171875,-3.2089853286743164,-0.8057644367218018,-1.1281933784484863
1740006573008165600,9.40716552734375,-3.2708425521850586,-0.9525794386863708,-1.3194568157196045
1740006573018148400,9.4171484375,-3.277883291244507,-1.092804193496704,-1.4749799966812134
1740006573028131600,9.427131591796876,-3.2606375217437744,-1.2235842943191528,-1.5852080583572388
1740006573038114600,9.437114501953126,-3.245595932006836,-1.309191107749939,-1.6611992120742798
1740006573048096500,9.447096435546875,-3.274545192718506,-1.321300983428955,-1.691763162612915
1740006573058079500,9.45707958984375,-3.3499083518981934,-1.2384401559829712,-1.6556129455566406
1740006573068062500,9.4670625,-3.4946258068084717,-1.0687896013259888,-1.5663487911224365
1740006573078045700,9.477045654296875,-3.661548614501953,-0.8824661374092102,-1.4057942628860474
1740006573088028400,9.4870283203125,-3.8015618324279785,-0.7424488067626953,-1.1599669456481934
1740006573098011400,9.497011474609375,-3.8716225624084473,-0.6243730783462524,-0.8624966740608215
1740006573107994600,9.50699462890625,-3.8373053073883057,-0.5912973880767822,-0.558883547782898
1740006573117977600,9.5169775390625,-3.760967254638672,-0.5470170378684998,-0.25111424922943115
1740006573127959600,9.52695947265625,-3.6597626209259033,-0.5150135159492493,0.004003796260803938
1740006573137942500,9.536942626953126,-3.5402731895446777,-0.4106586277484894,0.18431924283504486
1740006573147925500,9.546925537109376,-3.4018077850341797,-0.22746777534484863,0.2664167881011963
1740006573157908500,9.556908447265625,-3.2276697158813477,0.06868292391300201,0.2707287073135376
1740006573167891500,9.566891357421875,-3.0439324378967285,0.34135252237319946,0.20395871996879578
1740006573177874700,9.576874755859375,-2.8631882667541504,0.5467547178268433,0.09916599839925766
1740006573187857700,9.586857666015625,-2.716911554336548,0.6687706112861633,-0.02883084863424301
1740006573197840400,9.59684033203125,-2.6170308589935303,0.7242447733879089,-0.1537379026412964
1740006573207823600,9.60682373046875,-2.56128191947937,0.6972754597663879,-0.24098624289035797
1740006573217805600,9.6168056640625,-2.533658027648926,0.6413544416427612,-0.28965604305267334
1740006573227788500,9.62678857421875,-2.4961495399475098,0.5664902925491333,-0.279521644115448
1740006573237771500,9.636771484375,-2.4208004474639893,0.5070062279701233,-0.21747399866580963
1740006573247754500,9.64675439453125,-2.302072763442993,0.4157945513725281,-0.15541303157806396
1740006573257737700,9.65673779296875,-2.1845703125,0.43105846643447876,-0.1450221687555313
1740006573267720400,9.666720458984376,-2.0992326736450195,0.4022316038608551,-0.26358795166015625
1740006573277703400,9.676703369140625,-2.0532374382019043,0.30899032950401306,-0.5181358456611633
1740006573287686700,9.686686767578125,-2.010664224624634,0.1725158393383026,-0.8690896034240723
1740006573297668400,9.69666845703125,-1.9802080392837524,0.07930999994277954,-1.2575547695159912
1740006573307651600,9.706651611328125,-1.906643033027649,0.050153713673353195,-1.591945767402649
1740006573317634600,9.716634521484375,-1.6975688934326172,0.000523843802511692,-1.7755281925201416
1740006573327617300,9.7266171875,-1.3321882486343384,-0.17805175483226776,-1.8029682636260986
1740006573337600500,9.7366005859375,-0.8604886531829834,-0.5076032876968384,-1.7011362314224243
1740006573347583500,9.74658349609375,-0.37543433904647827,-0.9065546989440918,-1.4818501472473145
1740006573357566700,9.756566650390624,0.04015141353011131,-1.2617518901824951,-1.1817716360092163
1740006573367549400,9.766549560546874,0.32811689376831055,-1.5424206256866455,-0.8686038255691528
1740006573377531600,9.77653173828125,0.5053347945213318,-1.7386606931686401,-0.5682911276817322
1740006573387514600,9.7865146484375,0.6430348753929138,-1.7979272603988647,-0.2818359434604645
1740006573397497300,9.796497314453125,0.792600154876709,-1.644757628440857,-0.013517939485609531
1740006573407480600,9.80648046875,0.9887787103652954,-1.340209722518921,0.24087093770503998
1740006573417463600,9.816463623046875,1.250689148902893,-0.9434884786605835,0.47914236783981323
1740006573427446500,9.826446533203125,1.5562740564346313,-0.5246112942695618,0.6891161203384399
1740006573437429500,9.836429443359375,1.8638545274734497,-0.10124485939741135,0.8827055096626282
1740006573447412500,9.84641259765625,2.139514923095703,0.2827526032924652,1.0811928510665894
1740006573457395500,9.8563955078125,2.377319812774658,0.6290615200996399,1.2714189291000366
1740006573467377400,9.86637744140625,2.5686495304107666,0.9346393346786499,1.4454560279846191
1740006573477360400,9.8763603515625,2.712491273880005,1.1875841617584229,1.5817736387252808
1740006573487343600,9.886343505859376,2.7954912185668945,1.4053186178207397,1.6874680519104004
1740006573497326600,9.89632666015625,2.831768035888672,1.5819743871688843,1.7464944124221802
1740006573507309300,9.906309326171876,2.8408844470977783,1.6939973831176758,1.750106930732727
1740006573517292500,9.91629248046875,2.8564951419830322,1.764065146446228,1.7234947681427002
1740006573527275500,9.926275634765625,2.899808645248413,1.7499783039093018,1.6823502779006958
1740006573537258800,9.9362587890625,2.9692203998565674,1.6746020317077637,1.6414507627487183
1740006573547240400,9.946240478515625,3.050956964492798,1.5333237648010254,1.61344313621521
1740006573557223700,9.9562236328125,3.1258513927459717,1.3330178260803223,1.575490117073059
1740006573567206700,9.96620654296875,3.1756696701049805,1.115964651107788,1.5085691213607788
1740006573577189400,9.976189453125,3.1961746215820312,0.8770620226860046,1.4035260677337646
1740006573587172600,9.986172607421874,3.199312686920166,0.7080767154693604,1.2597540616989136
1740006573597155600,9.996155517578124,3.188969135284424,0.5900552868843079,1.0694618225097656
1740006573607138600,10.006138671875,3.1463747024536133,0.5809033513069153,0.8625291585922241
1740006573617121500,10.01612158203125,3.0826809406280518,0.6503404974937439,0.667833149433136
1740006573627103500,10.026103515625,3.0196585655212402,0.7714461088180542,0.46059557795524597
1740006573637086700,10.036086669921875,2.964162826538086,0.9082124829292297,0.24107226729393005
1740006573647069400,10.0460693359375,2.946150064468384,1.0433993339538574,0.0023299995809793472
1740006573657052400,10.056052490234375,2.982571840286255,1.1475046873092651,-0.2015613466501236
1740006573667035600,10.06603564453125,3.0296738147735596,1.169787883758545,-0.3600521981716156
1740006573677018600,10.0760185546875,3.0496277809143066,1.1448439359664917,-0.4932541847229004
1740006573687001300,10.08600146484375,3.01694917678833,1.094002366065979,-0.6120713949203491
1740006573696984600,10.095984619140625,2.91634464263916,1.0386801958084106,-0.7098370790481567
1740006573706966500,10.105966552734374,2.7553045749664307,0.9567190408706665,-0.7852362394332886
1740006573716949500,10.115949462890624,2.5564815998077393,0.883385181427002,-0.845199704170227
1740006573726932500,10.125932373046876,2.3719558715820312,0.8627121448516846,-0.89997398853302
1740006573736915700,10.135915771484376,2.2492589950561523,0.8982021808624268,-0.9656976461410522
1740006573746898400,10.1458984375,2.188528060913086,0.9386396408081055,-1.0380746126174927
1740006573756881400,10.15588134765625,2.174424171447754,0.9336004257202148,-1.0943533182144165
1740006573766864600,10.16586474609375,2.2002124786376953,0.8656607866287231,-1.1225039958953857
1740006573776847600,10.17584765625,2.231869697570801,0.7165256142616272,-1.1060254573822021
1740006573786830300,10.185830322265625,2.22198224067688,0.513542115688324,-1.033285140991211
1740006573796812500,10.1958125,2.166513442993164,0.30793413519859314,-0.9168973565101624
1740006573806795500,10.20579541015625,2.076612949371338,0.14621873199939728,-0.7769119739532471
1740006573816778500,10.215778564453124,1.9565839767456055,0.0494767390191555,-0.6293012499809265
1740006573826761500,10.225761474609374,1.825579047203064,0.0046757119707763195,-0.4861659109592438
1740006573836744400,10.235744384765624,1.6694408655166626,-0.023456057533621788,-0.3473012447357178
1740006573846727700,10.245727783203124,1.4951894283294678,-0.07293972373008728,-0.21470937132835388
1740006573856710700,10.255710693359376,1.2968600988388062,-0.15648308396339417,-0.10126136988401413
1740006573866693400,10.265693359375,1.1068603992462158,-0.2419777512550354,0.0022359900176525116
1740006573876675600,10.275675537109375,0.9254255890846252,-0.30099284648895264,0.08208661526441574
1740006573886658600,10.285658447265625,0.7444379329681396,-0.36389511823654175,0.12184041738510132
1740006573896641500,10.2956416015625,0.5584893822669983,-0.4172725975513458,0.1294029951095581
1740006573906624500,10.30562451171875,0.3688131868839264,-0.45055440068244934,0.12433606386184692
1740006573916607700,10.315607666015625,0.1829809993505478,-0.46881169080734253,0.09520801156759262
1740006573926590700,10.3255908203125,0.007399326656013727,-0.48567429184913635,0.05885506048798561
1740006573936573400,10.335573486328125,-0.14775270223617554,-0.49115321040153503,0.025531459599733353
1740006573946556700,10.345556640625,-0.31272274255752563,-0.5064786672592163,0.01817074790596962
1740006573956538600,10.35553857421875,-0.5182002782821655,-0.512859582901001,0.04783223569393158
1740006573966521600,10.365521484375,-0.7605234384536743,-0.4967551827430725,0.10540392249822617
1740006573976504600,10.375504638671876,-1.0613535642623901,-0.45257121324539185,0.16882869601249695
1740006573986487600,10.385487548828126,-1.390246033668518,-0.39351800084114075,0.24328215420246124
1740006573996470800,10.395470703125,-1.6849013566970825,-0.31878066062927246,0.32017242908477783
1740006574006453500,10.40545361328125,-1.883847951889038,-0.26745060086250305,0.35989877581596375
1740006574016436500,10.4154365234375,-1.9680794477462769,-0.2754819095134735,0.2969517707824707
1740006574026419700,10.425419677734375,-1.9769704341888428,-0.3355202078819275,0.13874483108520508
1740006574036401400,10.4354013671875,-1.94048273563385,-0.35519883036613464,-0.10520924627780914
1740006574046384600,10.445384521484375,-1.908349871635437,-0.3325590491294861,-0.41355961561203003
1740006574056367600,10.45536767578125,-1.9006178379058838,-0.2818806767463684,-0.7342976927757263
1740006574066350600,10.4653505859375,-1.9255768060684204,-0.30096808075904846,-1.0042564868927002
1740006574076333600,10.47533349609375,-1.9595246315002441,-0.4270213544368744,-1.190988302230835
1740006574086316500,10.485316650390626,-2.005087375640869,-0.5845606327056885,-1.270336389541626
1740006574096299800,10.4952998046875,-2.075596809387207,-0.7178286910057068,-1.2512699365615845
1740006574106282800,10.50528271484375,-2.174966812133789,-0.8159736394882202,-1.143921136856079
1740006574116264700,10.5152646484375,-2.2861812114715576,-0.8767432570457458,-0.9631947875022888
1740006574126247700,10.52524755859375,-2.406505823135376,-0.9298176765441895,-0.7361070513725281
1740006574136230700,10.535230712890625,-2.5320470333099365,-0.9579805731773376,-0.4950840473175049
1740006574146213600,10.545213623046875,-2.632148027420044,-0.9252263903617859,-0.2723881006240845
1740006574156196600,10.555196533203125,-2.6721081733703613,-0.838097870349884,-0.08145783841609955
1740006574166179600,10.5651796875,-2.6725409030914307,-0.7199440598487854,0.08292257785797119
1740006574176162800,10.575162841796875,-2.654364585876465,-0.5916457176208496,0.2006651908159256
1740006574186145500,10.5851455078125,-2.6298294067382812,-0.45076876878738403,0.28544187545776367
1740006574196128500,10.59512841796875,-2.620459794998169,-0.3174314796924591,0.320833683013916
1740006574206110700,10.60511083984375,-2.6440553665161133,-0.19672290980815887,0.3112548291683197
1740006574216093400,10.615093505859376,-2.6914193630218506,-0.08715035021305084,0.2758731245994568
1740006574226076700,10.62507666015625,-2.772404432296753,-0.0023220102302730083,0.2264363318681717
1740006574236059600,10.6350595703125,-2.8858015537261963,0.059733904898166656,0.16996772587299347
1740006574246042400,10.64504248046875,-3.051753520965576,0.07745084911584854,0.10144166648387909
1740006574256025600,10.655025634765625,-3.2629053592681885,0.0264236181974411,0.02430613897740841
1740006574266008600,10.665008544921875,-3.5008983612060547,-0.023064838722348213,-0.0622098445892334
1740006574275991600,10.674991455078125,-3.722710132598877,-0.008768990635871887,-0.13578632473945618
1740006574285973500,10.684973388671875,-3.9002535343170166,0.058333348482847214,-0.17959213256835938
1740006574295956700,10.694956787109374,-4.02878999710083,0.055506400763988495,-0.21220439672470093
1740006574305939700,10.704939697265624,-4.148946762084961,-0.1168733537197113,-0.18954862654209137
1740006574315922400,10.71492236328125,-4.2653279304504395,-0.48974838852882385,-0.0911450907588005
1740006574325905700,10.72490576171875,-4.371181011199951,-1.0360958576202393,0.10562177002429962
1740006574335888600,10.734888671875,-4.441617012023926,-1.7005712985992432,0.4113481342792511
1740006574345871600,10.74487158203125,-4.42948579788208,-2.391624689102173,0.770707368850708
1740006574355854600,10.7548544921875,-4.227443218231201,-2.912165641784668,1.071069359779358
1740006574365836500,10.76483642578125,-3.784109115600586,-3.0617520809173584,1.2628939151763916
1740006574375819800,10.77481982421875,-3.126832962036133,-2.903440475463867,1.4050036668777466
1740006574385802500,10.784802490234375,-2.428828239440918,-2.5876221656799316,1.5667089223861694
1740006574395785500,10.794785400390625,-1.8083857297897339,-2.1470797061920166,1.814896821975708
1740006574405768700,10.804768798828125,-1.2802395820617676,-1.6636823415756226,2.109912872314453
1740006574415751700,10.814751708984375,-0.8145262002944946,-1.2325098514556885,2.3501665592193604
1740006574425734400,10.824734375,-0.42603254318237305,-0.8363716006278992,2.449645757675171
1740006574435717600,10.834717529296874,-0.11894742399454117,-0.32050105929374695,2.389345407485962
1740006574445699600,10.844699462890626,0.16507337987422943,0.38824334740638733,2.1905717849731445
1740006574455682600,10.8546826171875,0.48527029156684875,1.1577831506729126,1.9174476861953735
1740006574465665500,10.86466552734375,0.8236712217330933,1.8313325643539429,1.6344757080078125
1740006574475648800,10.874648681640625,1.1399157047271729,2.3692524433135986,1.3982032537460327
1740006574485631700,10.8846318359375,1.3979917764663696,2.7791907787323,1.2148571014404297
1740006574495614500,10.894614501953125,1.5871100425720215,3.064624071121216,1.0786912441253662
1740006574505597700,10.90459765625,1.7082245349884033,3.2737653255462646,1.0005834102630615
1740006574515580700,10.91458056640625,1.7590067386627197,3.394388437271118,0.9758687615394592
1740006574525562600,10.924562744140625,1.7382409572601318,3.4388020038604736,0.9931313991546631
1740006574535545600,10.934545654296874,1.673835039138794,3.4140939712524414,1.0306077003479004
1740006574545528600,10.944528564453124,1.6043190956115723,3.348381757736206,1.0675334930419922
1740006574555511800,10.95451171875,1.5605649948120117,3.278228282928467,1.0930534601211548
1740006574565494500,10.96449462890625,1.5785397291183472,3.1824328899383545,1.1054790019989014
1740006574575477500,10.9744775390625,1.6533441543579102,3.028000593185425,1.0950061082839966
1740006574585460700,10.984460693359376,1.7542558908462524,2.80800199508667,1.083475947380066
1740006574595443700,10.994443603515625,1.8538836240768433,2.522658586502075,1.074895977973938
1740006574605425700,11.00442578125,1.9342349767684937,2.1894500255584717,1.0691020488739014
1740006574615408600,11.01440869140625,2.00014066696167,1.8550580739974976,1.0287718772888184
1740006574625391600,11.0243916015625,2.0617165565490723,1.6215404272079468,0.9415515661239624
1740006574635374600,11.03437451171875,2.143261671066284,1.4809266328811646,0.8265849947929382
1740006574645357600,11.044357666015625,2.222930431365967,1.412166953086853,0.6978190541267395
1740006574655340500,11.054340576171874,2.3027822971343994,1.396263599395752,0.5817182660102844
1740006574665323500,11.064323486328124,2.396846294403076,1.429781436920166,0.5138145685195923
1740006574675306500,11.074306396484374,2.5066609382629395,1.498225212097168,0.4917449653148651
1740006574685288700,11.084288818359376,2.6342103481292725,1.5732946395874023,0.491978257894516
1740006574695271400,11.094271484375,2.7619144916534424,1.6195294857025146,0.47092729806900024
1740006574705254700,11.104254638671875,2.8750674724578857,1.6298002004623413,0.39653003215789795
1740006574715237600,11.114237548828125,2.9598937034606934,1.6297675371170044,0.277274489402771
1740006574725220600,11.124220703125,3.011890411376953,1.664023756980896,0.13819383084774017
1740006574735203600,11.13420361328125,3.0234460830688477,1.7300783395767212,-0.025231586769223213
1740006574745186600,11.1441865234375,2.989927291870117,1.7925713062286377,-0.19609707593917847
1740006574755169500,11.15416943359375,2.914827346801758,1.8451844453811646,-0.3692307770252228
1740006574765151500,11.1641513671875,2.8194189071655273,1.8829957246780396,-0.5469171404838562
1740006574775134500,11.174134521484374,2.7155044078826904,1.894245982170105,-0.7205190062522888
1740006574785117700,11.18411767578125,2.6028690338134766,1.8523720502853394,-0.9062156677246094
1740006574795100700,11.1941005859375,2.4811582565307617,1.775228500366211,-1.1158597469329834
1740006574805083400,11.20408349609375,2.352656364440918,1.7062294483184814,-1.3399620056152344
1740006574815066600,11.214066650390626,2.2202460765838623,1.655450463294983,-1.587903380393982
1740006574825049600,11.224049560546876,2.0830495357513428,1.6027004718780518,-1.8454217910766602
1740006574835032600,11.234032470703125,1.9517465829849243,1.5149890184402466,-2.099381685256958
1740006574845015600,11.244015625,1.8170875310897827,1.3793259859085083,-2.3317551612854004
1740006574854998000,11.253998046875,1.654996395111084,1.192126989364624,-2.5281174182891846
1740006574864981000,11.26398095703125,1.4619238376617432,0.9432138800621033,-2.6593072414398193
1740006574874964000,11.2739638671875,1.2478078603744507,0.7069361209869385,-2.722351312637329
1740006574884947000,11.283947021484375,1.0278531312942505,0.5066666603088379,-2.7080531120300293
1740006574894930200,11.29393017578125,0.8011467456817627,0.32856351137161255,-2.6251306533813477
1740006574904913000,11.303912841796874,0.5826658010482788,0.18297646939754486,-2.4909050464630127
1740006574914896100,11.313896240234374,0.370072603225708,0.09251075983047485,-2.2760634422302246
1740006574924879000,11.323879150390624,0.15597309172153473,0.04776912182569504,-1.9649497270584106
1740006574934861000,11.333861083984376,-0.08696286380290985,-0.00358754419721663,-1.5658113956451416
1740006574944844000,11.343843994140625,-0.3370760381221771,-0.10681379586458206,-1.093262791633606
1740006574954827000,11.353826904296875,-0.5608963370323181,-0.274470716714859,-0.5652748346328735
1740006574964810200,11.363810302734375,-0.7635985612869263,-0.4884530305862427,0.01673237420618534
1740006574974793000,11.37379296875,-0.9571358561515808,-0.7656627893447876,0.6266679167747498
1740006574984776000,11.38377587890625,-1.1578196287155151,-1.067337989807129,1.2568773031234741
1740006574994759200,11.39375927734375,-1.324381709098816,-1.3705263137817383,1.8755857944488525
1740006575004742000,11.403741943359375,-1.3995110988616943,-1.6171199083328247,2.4439518451690674
1740006575014724000,11.41372412109375,-1.4052835702896118,-1.7514166831970215,2.9365193843841553
1740006575024707000,11.42370703125,-1.3515713214874268,-1.8068498373031616,3.3468220233917236
1740006575034690000,11.43368994140625,-1.2529996633529663,-1.8429292440414429,3.6127092838287354
1740006575044673000,11.443673095703126,-1.1836962699890137,-1.8267722129821777,3.770493507385254
1740006575054656000,11.453656005859376,-1.1745631694793701,-1.735703468322754,3.8141520023345947
1740006575064639000,11.463638916015626,-1.1649279594421387,-1.5689347982406616,3.7355854511260986
1740006575074622000,11.4736220703125,-1.1357351541519165,-1.3484004735946655,3.5120630264282227
1740006575084605000,11.48360498046875,-1.1032145023345947,-1.0716326236724854,3.122175455093384
1740006575094587100,11.493587158203125,-1.0853004455566406,-0.7753953337669373,2.5358164310455322
1740006575104569900,11.50356982421875,-1.1043239831924438,-0.4687592387199402,1.7572191953659058
1740006575114553000,11.513552978515625,-1.160715103149414,-0.2016146034002304,0.8455494046211243
1740006575124536000,11.5235361328125,-1.2403819561004639,-0.1078428402543068,-0.10153141617774963
1740006575134519000,11.53351904296875,-1.3240933418273926,-0.2805400490760803,-0.9854819774627686
1740006575144502000,11.543501953125,-1.3931066989898682,-0.717292070388794,-1.7389522790908813
1740006575154485000,11.553485107421874,-1.4378126859664917,-1.269881010055542,-2.397002935409546
1740006575164468000,11.563468017578124,-1.481361985206604,-1.8080559968948364,-2.991765260696411
1740006575174450000,11.573449951171876,-1.6011207103729248,-2.2368719577789307,-3.5299999713897705
1740006575184433000,11.583432861328125,-1.8744243383407593,-2.509115695953369,-3.9481594562530518
1740006575194416000,11.593416015625,-2.3269429206848145,-2.6043944358825684,-4.208110809326172
1740006575204399000,11.603399169921875,-2.9194037914276123,-2.5118002891540527,-4.296337604522705
1740006575214381800,11.6133818359375,-3.53875470161438,-2.262298107147217,-4.214911937713623
1740006575224365000,11.623364990234375,-4.064005374908447,-1.9803558588027954,-3.989708423614502
1740006575234348000,11.63334814453125,-4.430497646331787,-1.730692744255066,-3.698647975921631
1740006575244331000,11.6433310546875,-4.545097827911377,-1.5513248443603516,-3.361582040786743
1740006575254313000,11.65331298828125,-4.439397811889648,-1.4085842370986938,-3.0222272872924805
1740006575264296000,11.6632958984375,-4.127499580383301,-1.3070120811462402,-2.6612613201141357
1740006575274279200,11.673279052734374,-3.694148063659668,-1.2135905027389526,-2.2864670753479004
1740006575284262000,11.683261962890626,-3.2563092708587646,-1.0879398584365845,-1.9302746057510376
1740006575294245000,11.6932451171875,-2.9198317527770996,-0.8620859980583191,-1.6278835535049438
1740006575304228000,11.70322802734375,-2.699246406555176,-0.5417607426643372,-1.383756399154663
1740006575314211000,11.713211181640625,-2.558432102203369,-0.17565198242664337,-1.1729203462600708
1740006575324194000,11.723194091796875,-2.4789228439331055,0.17454437911510468,-0.9738860726356506
1740006575334176000,11.733176025390625,-2.4227488040924072,0.4804033637046814,-0.7646350860595703
1740006575344159200,11.7431591796875,-2.3532402515411377,0.7268245816230774,-0.5406200885772705
1740006575354142000,11.753141845703125,-2.242398738861084,0.9224465489387512,-0.2907881736755371
1740006575364125000,11.763125,-2.08640456199646,1.0993784666061401,-0.04933878779411316
1740006575374108200,11.773108154296875,-1.9199907779693604,1.2018542289733887,0.16420918703079224
1740006575384091100,11.783091064453124,-1.752800703048706,1.2033895254135132,0.34544020891189575
1740006575394073900,11.793073974609374,-1.6171984672546387,1.1170333623886108,0.4902717173099518
1740006575404057000,11.80305712890625,-1.506536602973938,1.0019536018371582,0.5961411595344543
1740006575414039000,11.8130390625,-1.4066272974014282,0.9077627062797546,0.6549323201179504
1740006575424022000,11.82302197265625,-1.2788288593292236,0.838550329208374,0.6803377866744995
1740006575434005000,11.8330048828125,-1.0868698358535767,0.7441990375518799,0.697868824005127
1740006575443988000,11.842988037109375,-0.8217574954032898,0.514948844909668,0.7513887882232666
1740006575453971000,11.852970947265625,-0.5172314047813416,0.17461282014846802,0.8306204676628113
1740006575463954000,11.862953857421875,-0.20662161707878113,-0.2010500133037567,0.9261382222175598
1740006575473937200,11.872937255859375,0.0730811357498169,-0.5265772342681885,1.0072765350341797
1740006575483920100,11.882920166015625,0.3033958375453949,-0.7866002917289734,1.0532549619674683
1740006575493902800,11.89290283203125,0.49374741315841675,-0.983351469039917,1.0739537477493286
1740006575503886000,11.902885986328124,0.6817207932472229,-1.0230469703674316,1.0676929950714111
1740006575513868000,11.912867919921876,0.907883882522583,-0.8527705669403076,1.0517795085906982
1740006575523851000,11.92285107421875,1.1928602457046509,-0.527199387550354,1.0215022563934326
1740006575533834000,11.932833984375,1.5247159004211426,-0.10513840615749359,0.9793471097946167
1740006575543817000,11.94281689453125,1.8719199895858765,0.35087546706199646,0.9521400332450867
1740006575553800200,11.95280029296875,2.2157294750213623,0.7670844197273254,0.9681442975997925
1740006575563783000,11.962782958984375,2.528501272201538,1.1476736068725586,0.9995911717414856
1740006575573766000,11.972765869140625,2.7864842414855957,1.4407192468643188,1.0397452116012573
1740006575583749000,11.9827490234375,2.9555420875549316,1.6085889339447021,1.0632354021072388
1740006575593730800,11.992730712890625,3.014960289001465,1.6984299421310425,1.040425181388855
1740006575603714000,12.002714111328125,2.992258310317993,1.7552138566970825,0.9666560888290405
1740006575613697000,12.012697021484374,2.931394577026367,1.7918403148651123,0.8455935716629028
1740006575623680000,12.022679931640624,2.886317491531372,1.8147711753845215,0.6409773230552673
1740006575633663000,12.0326630859375,2.916161298751831,1.754884123802185,0.3858579397201538
1740006575643646000,12.04264599609375,2.9969475269317627,1.6062986850738525,0.13652189075946808
1740006575653629200,12.052629150390626,3.0928730964660645,1.384191870689392,-0.09004813432693481
1740006575663612200,12.062612060546876,3.1782443523406982,1.1400377750396729,-0.28615906834602356
1740006575673594000,12.072593994140625,3.2372589111328125,0.8976368308067322,-0.45899367332458496
1740006575683577000,12.0825771484375,3.298694133758545,0.6695197820663452,-0.5714365839958191
1740006575693560000,12.09256005859375,3.3673195838928223,0.4495098888874054,-0.5919109582901001
1740006575703543000,12.10254296875,3.428260326385498,0.2120821624994278,-0.5447930097579956
1740006575713526000,12.112526123046875,3.457852602005005,-0.02574610896408558,-0.45481598377227783
1740006575723509000,12.122509033203125,3.4567711353302,-0.24213753640651703,-0.39155977964401245
1740006575733492200,12.1324921875,3.4656970500946045,-0.3664701282978058,-0.36094382405281067
1740006575743475000,12.142474853515624,3.5234181880950928,-0.35133886337280273,-0.3429373800754547
1740006575753457200,12.15245703125,3.6203203201293945,-0.20078636705875397,-0.3099743723869324
1740006575763440000,12.162440185546876,3.740854501724243,-0.012379970401525497,-0.24617941677570343
1740006575773422800,12.1724228515625,3.8457891941070557,0.17509885132312775,-0.14814499020576477
1740006575783406000,12.182406005859375,3.9317970275878906,0.34989115595817566,-0.020251741632819176
1740006575793389000,12.19238916015625,4.000181198120117,0.4889774024486542,0.1068582758307457
1740006575803372000,12.2023720703125,4.063841819763184,0.5697579979896545,0.21798266470432281
1740006575813355000,12.21235498046875,4.074795246124268,0.5709697604179382,0.2796545624732971
1740006575823337000,12.2223369140625,4.005350589752197,0.5393186211585999,0.2919626235961914
1740006575833320200,12.2323203125,3.851968765258789,0.510543704032898,0.23066863417625427
1740006575843303000,12.242302978515625,3.617903709411621,0.5107570290565491,0.09553024917840958
1740006575853285600,12.25228564453125,3.3158562183380127,0.5342905521392822,-0.09797263890504837
1740006575863268600,12.2622685546875,2.978135108947754,0.5490450263023376,-0.32200998067855835
1740006575873251600,12.27225146484375,2.6303348541259766,0.5464987754821777,-0.5433709025382996
1740006575883233500,12.282233642578126,2.2787015438079834,0.5256728529930115,-0.7362761497497559
1740006575893216500,12.292216552734375,1.949079990386963,0.4905838370323181,-0.8902676105499268
1740006575903199700,12.30219970703125,1.6603842973709106,0.4285382926464081,-1.0005555152893066
1740006575913182700,12.3121826171875,1.420305609703064,0.31227535009384155,-1.0602062940597534
1740006575923165400,12.32216552734375,1.1935163736343384,0.16442276537418365,-1.087948203086853
1740006575933148700,12.332148681640625,0.9407200813293457,0.02966548316180706,-1.0688447952270508
1740006575943131600,12.342131591796875,0.6420127749443054,-0.034386470913887024,-1.0203102827072144
1740006575953114600,12.352114501953125,0.3028309643268585,-0.022770559415221214,-0.9495346546173096
1740006575963096600,12.3620966796875,-0.049981143325567245,0.01948847994208336,-0.8827183246612549
1740006575973079800,12.372079833984374,-0.4346736967563629,0.11151880770921707,-0.8318160176277161
1740006575983062800,12.382062744140624,-0.8602430820465088,0.22130894660949707,-0.7881316542625427
1740006575993045500,12.39204541015625,-1.300674557685852,0.34294724464416504,-0.7421537637710571
1740006576003028700,12.40202880859375,-1.7487348318099976,0.35625478625297546,-0.6800932884216309
1740006576013011700,12.41201171875,-2.153604030609131,0.209695965051651,-0.5984253287315369
1740006576022994700,12.42199462890625,-2.487863063812256,0.039866987615823746,-0.5023254156112671
1740006576032977700,12.431977783203125,-2.7628958225250244,-0.06599073112010956,-0.40686681866645813
1740006576042959600,12.441959716796875,-2.959705352783203,-0.09445752948522568,-0.3290441930294037
1740006576052942800,12.45194287109375,-3.080476999282837,-0.07285875827074051,-0.281014621257782
1740006576062925600,12.461925537109375,-3.1330809593200684,-0.023744476959109306,-0.2563316524028778
1740006576072908500,12.471908447265625,-3.138428211212158,0.06722111254930496,-0.24693095684051514
1740006576082891800,12.481891845703124,-3.1238458156585693,0.2033185064792633,-0.25230708718299866
1740006576092874800,12.491874755859374,-3.097033977508545,0.34163135290145874,-0.28724321722984314
1740006576102857500,12.501857421875,-3.1028950214385986,0.49966520071029663,-0.35642310976982117
1740006576112840700,12.5118408203125,-3.14840030670166,0.654897928237915,-0.45235389471054077
1740006576122822700,12.52182275390625,-3.198765993118286,0.7947341203689575,-0.5390419363975525
1740006576132805600,12.5318056640625,-3.215453624725342,0.7838814854621887,-0.5791091918945312
1740006576142788600,12.54178857421875,-3.212367296218872,0.5316247344017029,-0.5974053740501404
1740006576152771600,12.551771484375,-3.184910535812378,0.10235965996980667,-0.6425182223320007
1740006576162754600,12.561754638671875,-3.1576850414276123,-0.3543967008590698,-0.762494683265686
1740006576172737500,12.571737548828125,-3.1158547401428223,-0.7391220331192017,-0.9652371406555176
