time,seconds_elapsed,z,y,x
1740006563645467600,0.044467529296875,-1.0491971969604492,-0.5000553131103516,1.0791326761245728
1740006563655451000,0.054450927734375,-0.8793458342552185,-1.0308762788772583,1.1091243028640747
1740006563665433600,0.06443359375,-0.6745439171791077,-1.0923950672149658,0.8956277370452881
1740006563675416800,0.074416748046875,-0.5248169302940369,-0.3199954032897949,0.2680627405643463
1740006563685399800,0.08439990234375,-0.34489428997039795,0.588870644569397,-0.4371492266654968
1740006563695382800,0.0943828125,-0.21860510110855103,0.9110639095306396,-0.8983363509178162
1740006563705364700,0.10436474609375,0.05891439691185951,0.8145245909690857,-1.1022464036941528
1740006563715347700,0.11434765625,0.2589353621006012,0.9116469621658325,-1.0573493242263794
1740006563725331000,0.1243310546875,0.3859795928001404,1.0663131475448608,-0.8145206570625305
1740006563735313700,0.134313720703125,0.34594812989234924,1.193116307258606,-0.3823045790195465
1740006563745296600,0.144296630859375,0.1386050283908844,1.2229194641113281,0.1438383013010025
1740006563755280000,0.15427978515625,-0.1412084698677063,1.2052059173583984,0.6529832482337952
1740006563765262800,0.164262939453125,-0.3246166408061981,1.301932454109192,1.0774786472320557
1740006563775245600,0.17424560546875,-0.3759296238422394,1.4417717456817627,1.36725914478302
1740006563785227800,0.184227783203125,-0.30098825693130493,1.490598201751709,1.4538261890411377
1740006563795210800,0.194210693359375,0.05399446561932564,1.2140485048294067,1.122578740119934
1740006563805193700,0.20419384765625,0.42912039160728455,0.7811338305473328,0.212422713637352
1740006563815176700,0.2141767578125,0.3545174300670624,0.6351872086524963,-1.071441411972046
1740006563825159700,0.22415966796875,-0.15812349319458008,0.5344680547714233,-2.3611793518066406
1740006563835143000,0.234142822265625,-0.8494322896003723,0.4896698594093323,-3.3879342079162598
1740006563845125400,0.24412548828125,-1.269972324371338,0.1781844198703766,-4.027863025665283
1740006563855108600,0.254108642578125,-1.436871886253357,-0.28965091705322266,-4.299692153930664
1740006563865091600,0.264091552734375,-1.5632903575897217,-0.553817093372345,-4.25023889541626
1740006563875073500,0.274073486328125,-1.735946536064148,-0.24173162877559662,-3.9515433311462402
1740006563885056500,0.284056396484375,-1.891672968864441,0.6604195237159729,-3.481807231903076
1740006563895039500,0.29403955078125,-2.0560615062713623,1.8148107528686523,-2.9450159072875977
1740006563905022700,0.304022705078125,-2.2235984802246094,2.858433246612549,-2.396176338195801
1740006563915005400,0.31400537109375,-2.259070873260498,3.647390842437744,-1.8627451658248901
1740006563924988400,0.323988525390625,-2.097249746322632,4.357580661773682,-1.4559406042099
1740006563934971600,0.3339716796875,-1.8588448762893677,5.12045955657959,-1.31436288356781
1740006563944954600,0.34395458984375,-1.764210820198059,5.6113972663879395,-1.4173229932785034
1740006563954937300,0.353937255859375,-1.7869904041290283,5.859895706176758,-1.6756590604782104
1740006563964919600,0.36391943359375,-1.9469108581542969,5.843392372131348,-1.8461551666259766
1740006563974902500,0.373902587890625,-2.372532844543457,6.101936340332031,-1.8297291994094849
1740006563984885500,0.383885498046875,-2.9963560104370117,6.570127487182617,-1.5809979438781738
1740006563994868500,0.393868408203125,-3.7320427894592285,7.150048732757568,-1.1015591621398926
1740006564004851500,0.4038515625,-4.491405487060547,7.889207363128662,-0.4293349087238312
1740006564014834700,0.413834716796875,-5.286664009094238,8.550567626953125,0.45067906379699707
1740006564024817400,0.4238173828125,-5.836927890777588,8.794054985046387,1.525493860244751
1740006564034800600,0.433800537109375,-6.052891731262207,8.591833114624023,2.7066001892089844
1740006564044783600,0.44378369140625,-6.137004852294922,8.156167984008789,3.8438971042633057
1740006564054765600,0.453765625,-6.209396839141846,7.7046685218811035,4.878243923187256
1740006564064748500,0.46374853515625,-6.183426856994629,7.345193862915039,5.823297023773193
1740006564074731500,0.4737314453125,-5.998167991638184,6.986085414886475,6.696831703186035
1740006564084714500,0.483714599609375,-5.708531379699707,6.521195411682129,7.465819358825684
1740006564094697500,0.493697509765625,-5.335602283477783,5.795243740081787,8.038869857788086
1740006564104680400,0.503680419921875,-4.931252479553223,4.541778087615967,8.031866073608398
1740006564114663700,0.51366357421875,-4.478728294372559,3.0063703060150146,7.181207180023193
1740006564124646400,0.523646484375,-3.994063377380371,1.5749473571777344,5.616360187530518
1740006564134629400,0.53362939453125,-3.253657579421997,0.19261860847473145,4.014612674713135
1740006564144611600,0.543611572265625,-2.439276933670044,-0.8975633978843689,2.660322904586792
1740006564154594300,0.55359423828125,-1.7991887331008911,-1.624686598777771,1.4752267599105835
1740006564164577500,0.56357763671875,-1.2592498064041138,-2.1573829650878906,0.5749478340148926
1740006564174560500,0.573560546875,-0.7864856719970703,-2.6334142684936523,-0.08274706453084946
1740006564184543500,0.58354345703125,-0.3973778784275055,-3.0584568977355957,-0.624342143535614
1740006564194526500,0.5935263671875,-0.09599190950393677,-3.4513661861419678,-1.1204123497009277
1740006564204509400,0.603509521484375,0.11887698620557785,-3.713789701461792,-1.57068932056427
1740006564214492700,0.61349267578125,0.22766150534152985,-3.7800981998443604,-1.976493000984192
1740006564224475600,0.6234755859375,0.25860849022865295,-3.723642587661743,-2.369534730911255
1740006564234457600,0.63345751953125,0.3093092739582062,-3.4992027282714844,-2.7854065895080566
1740006564244440600,0.643440673828125,0.46596282720565796,-3.0781657695770264,-3.1975982189178467
1740006564254423600,0.653423583984375,0.7257987856864929,-2.578329086303711,-3.5964648723602295
1740006564264406500,0.663406494140625,1.0273014307022095,-1.9926124811172485,-4.069821357727051
1740006564274389500,0.673389404296875,1.310904860496521,-1.5506591796875,-4.650293350219727
1740006564284372500,0.68337255859375,1.366579294204712,-1.401828646659851,-5.233066558837891
1740006564294355700,0.693355712890625,1.171292781829834,-1.6027923822402954,-5.726381778717041
1740006564304338400,0.70333837890625,0.8719426989555359,-2.0040977001190186,-6.034603118896484
1740006564314321400,0.7133212890625,0.5999561548233032,-2.359617233276367,-6.004126071929932
1740006564324303600,0.7233037109375,0.389899343252182,-2.5154645442962646,-5.620088577270508
1740006564334286300,0.733286376953125,0.2598792314529419,-2.4995806217193604,-4.91201639175415
1740006564344269600,0.74326953125,0.22329086065292358,-2.2618906497955322,-3.981017589569092
1740006564354252500,0.75325244140625,0.2800823152065277,-1.7090994119644165,-2.9504644870758057
1740006564364235500,0.763235595703125,0.45916232466697693,-0.9275311827659607,-1.9184422492980957
1740006564374218500,0.773218505859375,0.6918283104896545,-0.014510536566376686,-1.0072011947631836
1740006564384201500,0.783201416015625,1.060856580734253,0.6886880993843079,-0.13750655949115753
1740006564394184700,0.793184814453125,1.4697734117507935,1.1125575304031372,0.6724544167518616
1740006564404166400,0.80316650390625,1.840888261795044,1.1380966901779175,1.3855586051940918
1740006564414149600,0.813149658203125,2.1629281044006348,0.925260066986084,1.9039416313171387
1740006564424132600,0.823132568359375,2.4075186252593994,0.7989769577980042,2.073735237121582
1740006564434115300,0.833115234375,2.623018741607666,0.8243734836578369,1.8774486780166626
1740006564444098600,0.8430986328125,2.77777099609375,0.782744824886322,1.4469223022460938
1740006564454081500,0.85308154296875,2.8161041736602783,0.5119189023971558,0.9897828102111816
1740006564464064500,0.863064453125,2.759164571762085,0.06864986568689346,0.6249675750732422
1740006564474047500,0.873047607421875,2.6339612007141113,-0.35717377066612244,0.36764904856681824
1740006564484030500,0.883030517578125,2.5195913314819336,-0.6850706934928894,0.21975651383399963
1740006564494012700,0.8930126953125,2.505000352859497,-0.9330852031707764,0.19242781400680542
1740006564503995400,0.902995361328125,2.570034980773926,-1.1187455654144287,0.2739778161048889
1740006564513978400,0.912978271484375,2.672366142272949,-1.2369728088378906,0.441723108291626
1740006564523961600,0.922961669921875,2.754469871520996,-1.296186923980713,0.6531946063041687
1740006564533944600,0.932944580078125,2.800867795944214,-1.3266733884811401,0.8494095802307129
1740006564543927600,0.942927490234375,2.7919464111328125,-1.2750924825668335,1.0124605894088745
1740006564553910500,0.95291064453125,2.6890766620635986,-1.142332911491394,1.1353949308395386
1740006564563893500,0.9628935546875,2.532130718231201,-0.9298225045204163,1.21142578125
1740006564573876700,0.972876708984375,2.3917768001556396,-0.6987185478210449,1.2444202899932861
1740006564583858400,0.9828583984375,2.314875602722168,-0.46767812967300415,1.2187087535858154
1740006564593841700,0.992841552734375,2.2992191314697266,-0.19602765142917633,1.1226691007614136
1740006564603824600,1.00282470703125,2.32173752784729,0.06468303501605988,0.985694408416748
1740006564613807400,1.012807373046875,2.3139469623565674,0.19410991668701172,0.849086582660675
1740006564623790600,1.02279052734375,2.2359111309051514,0.1952843815088272,0.7582650780677795
1740006564633773600,1.032773681640625,2.0703020095825195,0.11928684264421463,0.7118319272994995
1740006564643756500,1.042756591796875,1.8543038368225098,0.01171271875500679,0.6949278116226196
1740006564653739500,1.052739501953125,1.6194826364517212,-0.10573530942201614,0.676366925239563
1740006564663722500,1.062722412109375,1.3948758840560913,-0.21126973628997803,0.6106643080711365
1740006564673704700,1.07270458984375,1.138602375984192,-0.3051169812679291,0.4726361036300659
1740006564683687400,1.0826875,0.8061293363571167,-0.3868730962276459,0.23174679279327393
1740006564693670400,1.09267041015625,0.4009741246700287,-0.42377564311027527,-0.10279804468154907
1740006564703653600,1.102653564453125,-0.04727664217352867,-0.4612703025341034,-0.48951005935668945
1740006564713636600,1.11263671875,-0.4867192208766937,-0.5417958498001099,-0.8631669878959656
1740006564723619600,1.12261962890625,-0.8792098164558411,-0.6583511829376221,-1.1778279542922974
1740006564733602600,1.1326025390625,-1.1793373823165894,-0.7660070657730103,-1.41460382938385
1740006564743585500,1.14258544921875,-1.3222870826721191,-0.8596706986427307,-1.553341031074524
1740006564753568500,1.152568603515625,-1.318009376525879,-0.9313453435897827,-1.5979410409927368
1740006564763550500,1.162550537109375,-1.2105385065078735,-0.9654353857040405,-1.5532166957855225
1740006564773533700,1.17253369140625,-0.9832903742790222,-0.931943953037262,-1.4348827600479126
1740006564783516400,1.182516357421875,-0.6623656153678894,-0.8395373225212097,-1.2338463068008423
1740006564793499400,1.19249951171875,-0.3192528486251831,-0.7732288837432861,-0.9659586548805237
1740006564803482600,1.202482666015625,-0.02169785276055336,-0.7057340145111084,-0.6491897702217102
1740006564813465600,1.212465576171875,0.2014792263507843,-0.549228310585022,-0.3098768889904022
1740006564823448300,1.2224482421875,0.30635371804237366,-0.251181423664093,0.026164516806602478
1740006564833431600,1.232431640625,0.30943387746810913,0.16568046808242798,0.35134175419807434
1740006564843415000,1.2424150390625,0.2979676425457001,0.6515539884567261,0.7022712826728821
1740006564853397200,1.252397216796875,0.35172876715660095,1.1456563472747803,1.1126132011413574
1740006564863380000,1.2623798828125,0.5108712911605835,1.5948110818862915,1.5612146854400635
1740006564873363000,1.272363037109375,0.7703776955604553,1.9880346059799194,2.0273313522338867
1740006564883346200,1.28234619140625,1.0887466669082642,2.3477988243103027,2.466843843460083
1740006564893329200,1.2923291015625,1.4055955410003662,2.690521478652954,2.8740906715393066
1740006564903312000,1.302311767578125,1.670714020729065,3.0328450202941895,3.2295937538146973
1740006564913295000,1.312295166015625,1.838343858718872,3.2980732917785645,3.54853892326355
1740006564923278000,1.322278076171875,1.8994367122650146,3.451172351837158,3.8146770000457764
1740006564933260000,1.332260009765625,1.857731580734253,3.4681921005249023,4.006516933441162
1740006564943243000,1.342242919921875,1.710525631904602,3.3596303462982178,4.097568988800049
1740006564953226000,1.35222607421875,1.52774178981781,3.117828130722046,4.087519645690918
1740006564963209000,1.362208984375,1.2468510866165161,2.856701374053955,3.946376085281372
1740006564973192000,1.37219189453125,0.823596179485321,2.4817473888397217,3.613863945007324
1740006564983175000,1.3821748046875,0.3550492227077484,2.0184924602508545,3.125025987625122
1740006564993158100,1.392158203125,-0.025686010718345642,1.5251418352127075,2.529053211212158
1740006565003140900,1.402140869140625,-0.2572707533836365,1.042906641960144,1.9162706136703491
1740006565013124000,1.4121240234375,-0.3756682276725769,0.5977679491043091,1.3637785911560059
1740006565023106000,1.42210595703125,-0.4555785059928894,0.21641716361045837,0.9481421709060669
1740006565033089000,1.432089111328125,-0.4950431287288666,-0.0639212504029274,0.7145195007324219
1740006565043072000,1.442072021484375,-0.43426579236984253,-0.18565940856933594,0.6755480766296387
1740006565053055000,1.452054931640625,-0.2787616550922394,-0.15740522742271423,0.7868097424507141
1740006565063038200,1.4620380859375,-0.07773294299840927,-0.02839929796755314,0.9983693957328796
1740006565073021000,1.47202099609375,0.12872596085071564,0.12381633371114731,1.2920238971710205
1740006565083004000,1.48200390625,0.3479136824607849,0.18631859123706818,1.6056337356567383
1740006565092987100,1.491987060546875,0.5230677127838135,0.0657530128955841,1.8530609607696533
1740006565102970000,1.50197021484375,0.6631425619125366,-0.16335633397102356,1.9854949712753296
1740006565112952000,1.5119521484375,0.8095154762268066,-0.3503577709197998,2.021188259124756
1740006565122935000,1.52193505859375,0.9255334138870239,-0.4747670590877533,1.9866909980773926
1740006565132918000,1.53191796875,0.977120041847229,-0.5457066893577576,1.9137107133865356
1740006565142901000,1.54190087890625,0.95783931016922,-0.5032418370246887,1.8107987642288208
1740006565152884000,1.551884033203125,0.8751258850097656,-0.45297127962112427,1.6548151969909668
1740006565162867000,1.561866943359375,0.6865863800048828,-0.8310022354125977,1.4797797203063965
1740006565172850200,1.57185009765625,0.4467912018299103,-0.9772664308547974,1.183510184288025
1740006565182833000,1.5818330078125,0.19668495655059814,-1.072712779045105,0.750802755355835
1740006565192815000,1.591815185546875,-0.0981636792421341,-1.4172829389572144,0.20676742494106293
1740006565202798000,1.601798095703125,-0.37363627552986145,-1.6857495307922363,-0.450104683637619
1740006565212781000,1.611781005859375,-0.6250865459442139,-1.9143413305282593,-1.168415904045105
1740006565222764000,1.621763916015625,-0.8847559094429016,-2.106473922729492,-1.9065836668014526
1740006565232747000,1.6317470703125,-1.1709856986999512,-2.189014196395874,-2.622347831726074
1740006565242730200,1.641730224609375,-1.464191198348999,-2.1484997272491455,-3.2927145957946777
1740006565252713000,1.651712890625,-1.7252074480056763,-2.0023043155670166,-3.8746137619018555
1740006565262696000,1.661696044921875,-1.905714988708496,-1.7754079103469849,-4.332540988922119
1740006565272679200,1.67167919921875,-1.9433144330978394,-1.4432964324951172,-4.675624847412109
1740006565282660900,1.681660888671875,-1.8718324899673462,-1.0157121419906616,-4.946617603302002
1740006565292644000,1.69164404296875,-1.7883374691009521,-0.49914589524269104,-5.2003936767578125
1740006565302627000,1.701626953125,-1.7737406492233276,0.08195506781339645,-5.451550006866455
1740006565312609800,1.71160986328125,-1.8702632188796997,0.597119927406311,-5.678596019744873
1740006565322593000,1.721593017578125,-2.065328598022461,0.949783980846405,-5.8489990234375
1740006565332576000,1.731575927734375,-2.330718755722046,1.1354398727416992,-5.910035610198975
1740006565342559000,1.74155908203125,-2.645864248275757,1.2230969667434692,-5.853646755218506
1740006565352542000,1.7515419921875,-2.9912588596343994,1.2591572999954224,-5.694063663482666
1740006565362525000,1.76152490234375,-3.3395423889160156,1.1441001892089844,-5.428401470184326
1740006565372507100,1.771507080078125,-3.6492061614990234,0.8517830967903137,-5.053964614868164
1740006565382489900,1.78148974609375,-3.891929864883423,0.5817516446113586,-4.573122978210449
1740006565392473000,1.79147314453125,-4.019446849822998,0.461603045463562,-3.9356439113616943
1740006565402456000,1.8014560546875,-4.016275882720947,0.4682100713253021,-3.2985897064208984
1740006565412439000,1.81143896484375,-3.8055145740509033,0.4281597137451172,-2.406508684158325
1740006565422422000,1.821422119140625,-3.3788201808929443,0.4046139121055603,-1.390702247619629
1740006565432405000,1.831405029296875,-2.820678234100342,0.4784594476222992,-0.3589201867580414
1740006565442388000,1.841387939453125,-2.218214988708496,0.5843722820281982,0.6393990516662598
1740006565452371200,1.85137109375,-1.6408590078353882,0.5725173950195312,1.4944902658462524
1740006565462353000,1.861352783203125,-1.1079007387161255,0.4243777096271515,2.1104793548583984
1740006565472336100,1.871336181640625,-0.6859989166259766,0.2629335820674896,2.4277684688568115
1740006565482319000,1.881319091796875,-0.4286135137081146,0.19352146983146667,2.380887269973755
1740006565492301800,1.8913017578125,-0.3171049952507019,0.23844410479068756,2.0011210441589355
1740006565502285000,1.90128515625,-0.29462525248527527,0.27765965461730957,1.4410183429718018
1740006565512268000,1.91126806640625,-0.3333123028278351,0.1536024808883667,0.9113117456436157
1740006565522251000,1.9212509765625,-0.4043630361557007,-0.1295700967311859,0.5124578475952148
1740006565532234000,1.93123388671875,-0.5070357918739319,-0.4641237258911133,0.23334144055843353
1740006565542216000,1.9412158203125,-0.6079280376434326,-0.7136382460594177,0.046237602829933167
1740006565552199200,1.95119921875,-0.6681767106056213,-0.8414492607116699,-0.026876037940382957
1740006565562182000,1.961181884765625,-0.683070182800293,-0.8916664123535156,0.007064352743327618
1740006565572165000,1.9711650390625,-0.6660290956497192,-0.9070190191268921,0.13187266886234283
1740006565582148000,1.981148193359375,-0.6301211714744568,-0.8747162222862244,0.3212151527404785
1740006565592131000,1.991131103515625,-0.5799285769462585,-0.7918189764022827,0.5524970889091492
1740006565602114000,2.001114013671875,-0.5271140933036804,-0.6828588843345642,0.7894870042800903
1740006565612097000,2.011096923828125,-0.4796282649040222,-0.5596135854721069,0.9940980672836304
1740006565622080000,2.021080078125,-0.4402744472026825,-0.41288143396377563,1.1370211839675903
1740006565632062000,2.03106201171875,-0.41167011857032776,-0.25266897678375244,1.2016443014144897
1740006565642045000,2.041044921875,-0.3805233836174011,-0.10858450829982758,1.1876307725906372
1740006565652028200,2.051028076171875,-0.34298208355903625,0.020931875333189964,1.0963612794876099
1740006565662011000,2.061010986328125,-0.3023795485496521,0.10470400005578995,0.9348304271697998
1740006565671993900,2.070993896484375,-0.26682355999946594,0.16236090660095215,0.7219047546386719
1740006565681977000,2.08097705078125,-0.29197099804878235,0.12656348943710327,0.4636783003807068
1740006565691960000,2.0909599609375,-0.377823144197464,-0.028279775753617287,0.181529700756073
1740006565701943000,2.100943115234375,-0.520727813243866,-0.1372174471616745,-0.12177558243274689
1740006565711925000,2.110925048828125,-0.6805233955383301,-0.15188568830490112,-0.4268498420715332
1740006565721908000,2.120907958984375,-0.8394595384597778,-0.07965703308582306,-0.73827064037323
1740006565731891000,2.130890869140625,-0.9719206094741821,0.07301923632621765,-1.0257444381713867
1740006565741874000,2.1408740234375,-1.000744342803955,0.3209584653377533,-1.243238091468811
1740006565751857200,2.150857177734375,-0.9473633766174316,0.6739138960838318,-1.3933502435684204
1740006565761840000,2.160840087890625,-0.8504828810691833,1.0537015199661255,-1.4746652841567993
1740006565771822800,2.17082275390625,-0.7217909693717957,1.2773926258087158,-1.498808741569519
1740006565781806000,2.18080615234375,-0.5120489597320557,1.2865691184997559,-1.4743891954421997
1740006565791789000,2.1907890625,-0.18565912544727325,1.1405442953109741,-1.4059189558029175
1740006565801771000,2.20077099609375,0.24116356670856476,0.8743640780448914,-1.3404854536056519
1740006565811754000,2.21075390625,0.7129151821136475,0.5784757733345032,-1.3136595487594604
1740006565821737000,2.220737060546875,1.200332522392273,0.2794666886329651,-1.3009384870529175
1740006565831720200,2.23072021484375,1.6642564535140991,-0.061286721378564835,-1.2554434537887573
1740006565841703000,2.240702880859375,2.053462266921997,-0.4797755777835846,-1.1297707557678223
1740006565851686000,2.250685791015625,2.371037721633911,-0.8943772315979004,-0.9200613498687744
1740006565861669000,2.260669189453125,2.6142029762268066,-1.2009453773498535,-0.6525892019271851
1740006565871651800,2.27065185546875,2.795011520385742,-1.397718071937561,-0.34040796756744385
1740006565881634000,2.280634033203125,2.920307159423828,-1.4927465915679932,0.014106974005699158
1740006565891617000,2.290616943359375,3.00618314743042,-1.4782562255859375,0.3743830621242523
1740006565901600000,2.30060009765625,3.0886282920837402,-1.3685840368270874,0.700877845287323
1740006565911583000,2.3105830078125,3.2026662826538086,-1.2068052291870117,0.9438609480857849
1740006565921566000,2.32056591796875,3.335709571838379,-1.01518976688385,1.1005709171295166
1740006565931549200,2.330549072265625,3.484976291656494,-0.79841548204422,1.1942113637924194
1740006565941532000,2.340531982421875,3.6402766704559326,-0.5668488144874573,1.245119333267212
1740006565951515000,2.350514892578125,3.749037027359009,-0.3501823842525482,1.2895243167877197
1740006565961498000,2.360498046875,3.849407434463501,-0.2572724223136902,1.400593638420105
1740006565971479800,2.370479736328125,3.893737554550171,-0.277444452047348,1.5353198051452637
1740006565981463000,2.380463134765625,3.8431601524353027,-0.3179926872253418,1.6405258178710938
1740006565991446000,2.390446044921875,3.7241034507751465,-0.3417834937572479,1.6950229406356812
1740006566001429000,2.400428955078125,3.5658702850341797,-0.36519426107406616,1.6830384731292725
1740006566011412000,2.410411865234375,3.4010581970214844,-0.44742488861083984,1.573002576828003
1740006566021395000,2.42039501953125,3.2684524059295654,-0.5152689218521118,1.3747131824493408
1740006566031378000,2.4303779296875,3.1293997764587402,-0.5085000395774841,1.087116003036499
1740006566041361200,2.440361083984375,2.942349672317505,-0.4722975790500641,0.7054126858711243
1740006566051344000,2.45034375,2.7272512912750244,-0.4989996552467346,0.2936544716358185
1740006566061326000,2.460326171875,2.488753080368042,-0.6463920474052429,-0.11430530995130539
1740006566071309000,2.47030908203125,2.2947726249694824,-0.8913174867630005,-0.4978503882884979
1740006566081292000,2.4802919921875,2.217501640319824,-1.1226372718811035,-0.8004067540168762
1740006566091275000,2.49027490234375,2.2429237365722656,-1.2946466207504272,-0.9772207736968994
1740006566101258000,2.500258056640625,2.332719564437866,-1.5212688446044922,-1.0442578792572021
1740006566111241000,2.510240966796875,2.4357364177703857,-1.8344446420669556,-1.026293396949768
1740006566121224000,2.520223876953125,2.5418620109558105,-2.1533267498016357,-0.9556000232696533
1740006566131207000,2.53020703125,2.6247634887695312,-2.400850296020508,-0.8481091260910034
1740006566141189000,2.540189208984375,2.67452335357666,-2.561007022857666,-0.7137449383735657
1740006566151171800,2.550171875,2.6926379203796387,-2.6362340450286865,-0.5609548091888428
1740006566161155000,2.560155029296875,2.6789534091949463,-2.6486661434173584,-0.37977248430252075
1740006566171138000,2.570137939453125,2.642212390899658,-2.639401435852051,-0.17031434178352356
1740006566181120800,2.580120849609375,2.605379343032837,-2.641782283782959,0.06007438898086548
1740006566191104000,2.59010400390625,2.5368003845214844,-2.63977313041687,0.2640869617462158
1740006566201087000,2.6000869140625,2.428190231323242,-2.599807024002075,0.42905116081237793
1740006566211070000,2.610070068359375,2.286689519882202,-2.514749526977539,0.5653353333473206
1740006566221053000,2.620052978515625,2.1224632263183594,-2.3983373641967773,0.6867879629135132
1740006566231035000,2.630034912109375,1.9543431997299194,-2.2743797302246094,0.784166157245636
1740006566241018000,2.64001806640625,1.8026537895202637,-2.134334087371826,0.8540245890617371
1740006566251000800,2.650000732421875,1.694618582725525,-2.033992290496826,0.8911568522453308
1740006566260984000,2.659984130859375,1.609126329421997,-2.0396194458007812,0.8525077104568481
1740006566270967000,2.669967041015625,1.4993979930877686,-2.114861011505127,0.7204938530921936
1740006566280950000,2.679949951171875,1.359117865562439,-2.1501729488372803,0.5021535754203796
1740006566290933000,2.68993310546875,1.1955385208129883,-2.084526538848877,0.22431312501430511
1740006566300916000,2.699916015625,1.0009510517120361,-1.9317913055419922,-0.09457004070281982
1740006566310898200,2.709898193359375,0.767487645149231,-1.726663589477539,-0.4157000780105591
1740006566320881000,2.719880859375,0.5310614705085754,-1.4968351125717163,-0.6951402425765991
1740006566330863900,2.72986376953125,0.32870015501976013,-1.297383189201355,-0.9097914695739746
1740006566340847000,2.73984716796875,0.1826888918876648,-1.1711541414260864,-1.0860568284988403
1740006566350830000,2.749830078125,0.05486501380801201,-1.0810359716415405,-1.2963261604309082
1740006566360812800,2.759812744140625,-0.10271742194890976,-0.9506399035453796,-1.5562479496002197
1740006566370796000,2.769796142578125,-0.2846415340900421,-0.782577633857727,-1.8537731170654297
1740006566380779000,2.779779052734375,-0.5068019032478333,-0.5903690457344055,-2.1104655265808105
1740006566390762000,2.789761962890625,-0.7913467884063721,-0.37201252579689026,-2.285637855529785
1740006566400744000,2.799743896484375,-1.1261545419692993,-0.017466701567173004,-2.3694286346435547
1740006566410727000,2.809726806640625,-1.403784155845642,0.45282161235809326,-2.3668181896209717
1740006566420710100,2.819710205078125,-1.6251269578933716,1.0006964206695557,-2.2916173934936523
1740006566430692900,2.82969287109375,-1.7860863208770752,1.6014986038208008,-2.1494600772857666
1740006566440676000,2.839676025390625,-1.8631219863891602,2.2672555446624756,-1.95820152759552
1740006566450659000,2.8496591796875,-1.882059931755066,2.9873011112213135,-1.754792332649231
1740006566460642000,2.85964208984375,-1.857930064201355,3.6291470527648926,-1.567156434059143
1740006566470625000,2.869625,-1.8353183269500732,4.083354949951172,-1.4340025186538696
1740006566480608000,2.87960791015625,-1.8312358856201172,4.3708720207214355,-1.3976175785064697
1740006566490590200,2.889590087890625,-1.8821455240249634,4.574282646179199,-1.4536666870117188
1740006566500573000,2.899572998046875,-2.011369228363037,4.710974216461182,-1.6001250743865967
1740006566510556000,2.909555908203125,-2.2269957065582275,4.815000057220459,-1.7968523502349854
1740006566520539100,2.9195390625,-2.503021240234375,4.884642124176025,-1.979248285293579
1740006566530521900,2.92952197265625,-2.7960355281829834,4.9485087394714355,-2.0848443508148193
1740006566540504800,2.9395048828125,-3.0158121585845947,4.987524509429932,-2.097529411315918
1740006566550488000,2.949488037109375,-3.1429193019866943,4.893445014953613,-2.0897533893585205
1740006566560471000,2.959470947265625,-3.213434934616089,4.618910789489746,-2.1207377910614014
1740006566570453000,2.969452880859375,-3.253187417984009,4.259354114532471,-2.1790802478790283
1740006566580436000,2.97943603515625,-3.3563456535339355,3.917738437652588,-2.190845012664795
1740006566590419000,2.9894189453125,-3.5965988636016846,3.6258704662323,-2.091928482055664
1740006566600402000,2.99940185546875,-3.957287311553955,3.4128499031066895,-1.8246169090270996
1740006566610385000,3.009385009765625,-4.343806743621826,3.329488754272461,-1.4555795192718506
1740006566620368100,3.0193681640625,-4.741609573364258,3.2572598457336426,-1.0108788013458252
1740006566630351000,3.02935107421875,-5.058846473693848,3.1531198024749756,-0.5118631720542908
1740006566640333800,3.039333740234375,-5.137136936187744,2.955744981765747,0.002796968910843134
1740006566650317000,3.049317138671875,-4.9764275550842285,2.693211793899536,0.48756298422813416
1740006566660299000,3.059299072265625,-4.671535491943359,2.4895436763763428,0.9375693202018738
1740006566670282000,3.069281982421875,-4.288377285003662,2.4136300086975098,1.3446711301803589
1740006566680265000,3.079264892578125,-3.909823179244995,2.452817678451538,1.688578724861145
1740006566690248000,3.089248046875,-3.5861289501190186,2.5152530670166016,1.9436296224594116
1740006566700231200,3.099231201171875,-3.3174726963043213,2.5246431827545166,2.086902141571045
1740006566710214000,3.1092138671875,-3.075361967086792,2.4592602252960205,2.0906286239624023
1740006566720196900,3.11919677734375,-2.86004900932312,2.302138566970825,1.9513802528381348
1740006566730180000,3.12918017578125,-2.657691478729248,2.0622642040252686,1.7131460905075073
1740006566740161800,3.139161865234375,-2.463183641433716,1.7487291097640991,1.399247646331787
1740006566750145000,3.14914501953125,-2.2634592056274414,1.3192219734191895,1.0452083349227905
1740006566760128000,3.1591279296875,-2.0445878505706787,0.8406575322151184,0.7038402557373047
1740006566770111000,3.169111083984375,-1.8186345100402832,0.3703434467315674,0.4089027941226959
1740006566780094000,3.179093994140625,-1.618374228477478,-0.07261109352111816,0.1848670393228531
1740006566790077000,3.189076904296875,-1.4798296689987183,-0.44492897391319275,-0.002299219137057662
1740006566800060200,3.19906005859375,-1.401919960975647,-0.665887176990509,-0.22789239883422852
1740006566810043100,3.209043212890625,-1.2882823944091797,-0.8447768688201904,-0.4112617075443268
1740006566820025900,3.21902587890625,-1.1093682050704956,-0.9606419801712036,-0.5039618015289307
1740006566830008000,3.229008056640625,-0.9047101140022278,-1.0086750984191895,-0.5196319818496704
1740006566839991000,3.238990966796875,-0.7187202572822571,-0.957743227481842,-0.4739888310432434
1740006566849974000,3.24897412109375,-0.5630816221237183,-0.8302978277206421,-0.36188367009162903
1740006566859957000,3.25895703125,-0.44246572256088257,-0.6901108622550964,-0.237333744764328
1740006566869940000,3.26893994140625,-0.32092297077178955,-0.5669252276420593,-0.12400835007429123
1740006566879923200,3.278923095703125,-0.14191275835037231,-0.44557347893714905,-0.042266614735126495
1740006566889906000,3.288906005859375,0.1144498661160469,-0.2989870011806488,-0.02855389378964901
1740006566899889000,3.298888916015625,0.42268916964530945,-0.09609459340572357,-0.1022598072886467
1740006566909872000,3.3088720703125,0.7529520988464355,0.08197997510433197,-0.2413388043642044
1740006566919853800,3.318853759765625,1.0607633590698242,0.17231519520282745,-0.34848976135253906
1740006566929837000,3.328837158203125,1.3108720779418945,0.14617866277694702,-0.3561165928840637
1740006566939820000,3.338820068359375,1.5220043659210205,0.09317482262849808,-0.25988513231277466
1740006566949803000,3.348802978515625,1.7128697633743286,0.06276649236679077,-0.06171552464365959
1740006566959786000,3.358785888671875,1.8623790740966797,-0.07245950400829315,0.21709772944450378
1740006566969769000,3.36876904296875,1.9720041751861572,-0.3959674835205078,0.520943284034729
1740006566979752000,3.378751953125,2.111952304840088,-0.7737624645233154,0.7870316505432129
1740006566989735200,3.388735107421875,2.325972557067871,-1.0218430757522583,0.9801972508430481
1740006566999717000,3.398717041015625,2.579258918762207,-1.046978235244751,1.0963046550750732
1740006567009700000,3.4087001953125,2.8347716331481934,-0.8809384703636169,1.1666315793991089
1740006567019683000,3.41868310546875,3.0599405765533447,-0.6353651881217957,1.261287808418274
1740006567029666000,3.428666015625,3.2299678325653076,-0.3658306300640106,1.419930338859558
1740006567039649000,3.43864892578125,3.363784074783325,-0.10643980652093887,1.6250110864639282
1740006567049632000,3.448632080078125,3.469430446624756,0.17315594851970673,1.8674733638763428
1740006567059615200,3.458615234375,3.535134792327881,0.4689266085624695,2.1075539588928223
1740006567069598000,3.468597900390625,3.6071388721466064,0.7350947856903076,2.3051211833953857
1740006567079581000,3.478580810546875,3.718754291534424,0.9649407863616943,2.4320545196533203
1740006567089563100,3.488563232421875,3.8852691650390625,1.1486033201217651,2.4588162899017334
1740006567099545900,3.4985458984375,4.09893798828125,1.2760292291641235,2.4394643306732178
1740006567109529000,3.508529052734375,4.2316131591796875,1.3635029792785645,2.3972227573394775
1740006567119512000,3.518511962890625,4.2428507804870605,1.3204913139343262,2.3512651920318604
1740006567129494800,3.528494873046875,4.197425365447998,1.1508502960205078,2.299771547317505
1740006567139478000,3.53847802734375,4.183274745941162,0.9222333431243896,2.2365376949310303
1740006567149461000,3.5484609375,4.216012954711914,0.719762921333313,2.1719295978546143
1740006567159444000,3.55844384765625,4.299824237823486,0.5679651498794556,2.110585927963257
1740006567169427000,3.568427001953125,4.456090927124023,0.45774638652801514,2.074773073196411
1740006567179409200,3.5784091796875,4.692733287811279,0.37421074509620667,2.1136014461517334
1740006567189392100,3.58839208984375,5.055034160614014,0.12083924561738968,2.2764856815338135
1740006567199374800,3.598374755859375,5.492177963256836,-0.4564722776412964,2.5444416999816895
1740006567209358000,3.608358154296875,5.8351664543151855,-1.1997178792953491,2.8913557529449463
1740006567219341000,3.618341064453125,6.01686429977417,-1.8423982858657837,3.2629168033599854
1740006567229324000,3.628323974609375,5.899580478668213,-2.115694999694824,3.5282363891601562
1740006567239307000,3.63830712890625,5.470084190368652,-2.0838022232055664,3.565397024154663
1740006567249290000,3.6482900390625,4.873141288757324,-1.8475524187088013,3.354783296585083
1740006567259272200,3.658272216796875,4.276045322418213,-1.4868605136871338,2.943948984146118
1740006567269255000,3.6682548828125,3.773777723312378,-1.0586286783218384,2.4757397174835205
1740006567279238000,3.67823779296875,3.3893094062805176,-0.5972160696983337,2.066767692565918
1740006567289221000,3.68822119140625,3.1516079902648926,-0.204872727394104,1.7755825519561768
1740006567299204000,3.6982041015625,3.054466724395752,0.0392235666513443,1.6021772623062134
1740006567309186800,3.708186767578125,3.070429801940918,0.13710090517997742,1.505904197692871
1740006567319170000,3.718170166015625,3.104013681411743,0.13244357705116272,1.4170795679092407
1740006567329153000,3.728153076171875,2.9859390258789062,0.01754990592598915,1.311651349067688
1740006567339136000,3.738135986328125,2.7203776836395264,-0.22707076370716095,1.1908437013626099
1740006567349119000,3.748118896484375,2.4121437072753906,-0.4209875762462616,1.0270333290100098
1740006567359101200,3.75810107421875,2.1311237812042236,-0.4506751596927643,0.8015142679214478
1740006567369084200,3.768084228515625,1.8811678886413574,-0.4473138749599457,0.5810444355010986
1740006567379067000,3.77806689453125,1.6044329404830933,-0.4729310870170593,0.37215375900268555
1740006567389050000,3.788050048828125,1.3021177053451538,-0.5866944789886475,0.10481282323598862
1740006567399033000,3.798033203125,1.0047563314437866,-0.8014438152313232,-0.2080811709165573
1740006567409016000,3.80801611328125,0.8117204308509827,-0.9866337776184082,-0.48543551564216614
1740006567418999000,3.8179990234375,0.757449209690094,-0.984331488609314,-0.6790332198143005
1740006567428982000,3.82798193359375,0.5883020758628845,-1.1331565380096436,-0.8019410371780396
1740006567438964200,3.837964111328125,0.35237419605255127,-1.095448613166809,-0.8816244006156921
1740006567448948000,3.847947998046875,0.09878672659397125,-0.9941273331642151,-0.949844241142273
1740006567458930000,3.857929931640625,-0.1264689564704895,-0.9561765789985657,-1.073401689529419
1740006567468913200,3.8679130859375,-0.34959498047828674,-0.8013163805007935,-1.292103886604309
1740006567478896000,3.877896240234375,-0.5611714720726013,-0.6287540197372437,-1.6122679710388184
1740006567488878800,3.88787890625,-0.7517046928405762,-0.580989420413971,-1.9899693727493286
1740006567498862000,3.897862060546875,-0.9371747374534607,-0.5624893307685852,-2.338927984237671
1740006567508845000,3.907844970703125,-1.204512119293213,-0.5461044907569885,-2.5872581005096436
1740006567518828000,3.917828125,-1.566794991493225,-0.4483225345611572,-2.7454171180725098
1740006567528811000,3.92781103515625,-1.957119107246399,-0.24262237548828125,-2.8161635398864746
1740006567538794000,3.9377939453125,-2.3525047302246094,0.07014638185501099,-2.7822751998901367
1740006567548776000,3.94777587890625,-2.687924385070801,0.4803192615509033,-2.611497163772583
1740006567558759000,3.957759033203125,-2.940925121307373,0.9431578516960144,-2.318019390106201
1740006567568742100,3.9677421875,-3.1614487171173096,1.3668715953826904,-2.0062758922576904
1740006567578725000,3.97772509765625,-3.373673439025879,1.6945457458496094,-1.7460970878601074
1740006567588707800,3.987707763671875,-3.5705831050872803,1.9751713275909424,-1.5683872699737549
1740006567598691000,3.997691162109375,-3.751331090927124,2.247073173522949,-1.4566080570220947
1740006567608674000,4.007674072265625,-3.9736218452453613,2.511744260787964,-1.3998662233352661
1740006567618657000,4.017656982421875,-4.244428634643555,2.71500825881958,-1.411645531654358
1740006567628640000,4.027639892578125,-4.498719692230225,2.876371145248413,-1.4922927618026733
1740006567638622000,4.0376220703125,-4.627649784088135,2.9595444202423096,-1.6059398651123047
1740006567648605200,4.047605224609375,-4.592058181762695,2.8783981800079346,-1.6885524988174438
1740006567658588000,4.057587890625,-4.371067047119141,2.5881335735321045,-1.7126843929290771
1740006567668571000,4.06757080078125,-3.989619731903076,2.020786762237549,-1.6769551038742065
1740006567678554000,4.07755419921875,-3.572127342224121,1.2101397514343262,-1.5977160930633545
1740006567688537000,4.087537109375,-3.2844529151916504,0.25919586420059204,-1.5040993690490723
1740006567698520000,4.09752001953125,-3.1926498413085938,-0.5799834132194519,-1.385463833808899
1740006567708503000,4.1075029296875,-3.2287538051605225,-1.1551692485809326,-1.1941921710968018
1740006567718485000,4.117485107421875,-3.285006523132324,-1.5380775928497314,-0.9140572547912598
1740006567728468000,4.127468017578125,-3.2852535247802734,-1.913614273071289,-0.5617948174476624
1740006567738451000,4.137450927734375,-3.1971023082733154,-2.3703572750091553,-0.20873676240444183
1740006567748434200,4.14743408203125,-3.0549869537353516,-2.7664787769317627,0.09668600559234619
1740006567758417200,4.157417236328125,-2.911461114883423,-3.0223000049591064,0.3587237000465393
1740006567768400000,4.16739990234375,-2.749358892440796,-3.159626007080078,0.5530468821525574
1740006567778383000,4.177383056640625,-2.617215394973755,-3.0476059913635254,0.6076542735099792
1740006567788366000,4.187365966796875,-2.5821800231933594,-2.6995036602020264,0.5092589855194092
1740006567798349000,4.19734912109375,-2.610064744949341,-2.1600613594055176,0.32130634784698486
1740006567808331000,4.2073310546875,-2.6241977214813232,-1.6240736246109009,0.09855156391859055
1740006567818314000,4.21731396484375,-2.540186643600464,-1.1642581224441528,-0.07922668755054474
1740006567828297200,4.227297119140625,-2.3657987117767334,-0.8775359988212585,-0.2218850702047348
1740006567838280000,4.237280029296875,-2.135145902633667,-0.810930073261261,-0.34298112988471985
1740006567848263400,4.247263427734375,-1.9235033988952637,-0.7270408868789673,-0.47952839732170105
1740006567858246400,4.257246337890625,-1.7686123847961426,-0.5266526937484741,-0.5703062415122986
1740006567868229400,4.2672294921875,-1.6944918632507324,-0.2761261463165283,-0.6017404198646545
1740006567878212400,4.27721240234375,-1.6892675161361694,-0.039459530264139175,-0.6151363849639893
1740006567888194300,4.2871943359375,-1.6426506042480469,0.10783584415912628,-0.6273232698440552
1740006567898177300,4.29717724609375,-1.473555088043213,0.20963969826698303,-0.6555863618850708
1740006567908160500,4.307160400390625,-1.2350386381149292,0.232412189245224,-0.7054834365844727
1740006567918143500,4.3171435546875,-0.9796663522720337,0.21090635657310486,-0.7587940692901611
1740006567928126200,4.327126220703125,-0.7304552793502808,0.2484772801399231,-0.8194465041160583
1740006567938109400,4.337109375,-0.5389055609703064,0.3462381958961487,-0.8653727173805237
1740006567948092400,4.347092529296875,-0.436623215675354,0.5078508853912354,-0.875174880027771
1740006567958075400,4.357075439453125,-0.3533400595188141,0.684661865234375,-0.8213196396827698
1740006567968057300,4.367057373046875,-0.2113383561372757,0.8168790340423584,-0.7244827151298523
1740006567978040600,4.37704052734375,0.013220977038145065,0.8825970888137817,-0.6131879091262817
1740006567988023300,4.387023193359375,0.2924618721008301,0.9256594181060791,-0.5317721366882324
1740006567998006300,4.39700634765625,0.5936983823776245,0.9528334736824036,-0.5108716487884521
1740006568007989500,4.406989501953125,0.8820797801017761,0.9542087316513062,-0.533759593963623
1740006568017972500,4.416972412109375,1.0892667770385742,0.8504077792167664,-0.5427514910697937
1740006568027955200,4.426955078125,1.1495435237884521,0.6404088139533997,-0.4912385046482086
1740006568037938400,4.4369384765625,1.0799882411956787,0.44989320635795593,-0.3733249306678772
1740006568047921400,4.44692138671875,1.0043693780899048,0.3904111385345459,-0.17359550297260284
1740006568057903400,4.4569033203125,1.1452463865280151,0.5096214413642883,0.15491820871829987
1740006568067886300,4.46688623046875,1.4951152801513672,0.7438649535179138,0.6177379488945007
1740006568077869300,4.476869384765625,1.9086307287216187,0.9800034761428833,1.1458864212036133
1740006568087852500,4.4868525390625,2.2413384914398193,1.152945876121521,1.6234139204025269
1740006568097835300,4.496835205078125,2.451737880706787,1.2912417650222778,1.9883288145065308
1740006568107818200,4.506818359375,2.5511891841888428,1.3940008878707886,2.2290573120117188
1740006568117801500,4.516801513671875,2.5571141242980957,1.4757716655731201,2.350022077560425
1740006568127784400,4.526784423828125,2.4862005710601807,1.549378514289856,2.4037818908691406
1740006568137767400,4.536767333984375,2.425610303878784,1.644197702407837,2.410386085510254
1740006568147749400,4.546749267578125,2.4293465614318848,1.8262133598327637,2.3874258995056152
1740006568157732600,4.556732666015625,2.507777452468872,1.9930428266525269,2.381018877029419
1740006568167715300,4.56671533203125,2.6179537773132324,2.077712059020996,2.3947551250457764
1740006568177698300,4.5766982421875,2.7056705951690674,2.0502190589904785,2.4202933311462402
1740006568187681500,4.586681640625,2.738673448562622,1.972609043121338,2.440880537033081
1740006568197664500,4.59666455078125,2.7216641902923584,1.9177579879760742,2.4268040657043457
1740006568207647200,4.606647216796875,2.695633888244629,1.8418385982513428,2.3580594062805176
1740006568217630500,4.61663037109375,2.7026989459991455,1.7411516904830933,2.2292301654815674
1740006568227613400,4.626613525390625,2.745990514755249,1.6989203691482544,2.0304863452911377
1740006568237595400,4.636595458984375,2.795815944671631,1.7170401811599731,1.7468434572219849
1740006568247578400,4.646578369140625,2.8777244091033936,1.669942855834961,1.4182533025741577
1740006568257561300,4.656561279296875,2.9773504734039307,1.5303572416305542,1.1007059812545776
1740006568267544600,4.666544677734375,3.0756583213806152,1.3219822645187378,0.8384263515472412
1740006568277527300,4.67652734375,3.1470704078674316,1.1285475492477417,0.6517918109893799
1740006568287510300,4.68651025390625,3.2278506755828857,0.9684858918190002,0.5443653464317322
1740006568297493500,4.696493408203125,3.3150360584259033,0.8521563410758972,0.5156441926956177
1740006568307476200,4.706476318359375,3.392840623855591,0.7784805297851562,0.5521059632301331
1740006568317458400,4.71645849609375,3.46995210647583,0.7848678231239319,0.6380038261413574
1740006568327441400,4.72644140625,3.551358938217163,0.9265707731246948,0.7731634974479675
1740006568337424600,4.736424560546875,3.6737728118896484,1.1529886722564697,0.9588356018066406
1740006568347407400,4.746407470703125,3.8032426834106445,1.4428750276565552,1.2009540796279907
1740006568357390300,4.756390380859375,3.907419443130493,1.7604378461837769,1.4894742965698242
1740006568367373600,4.76637353515625,3.8990511894226074,2.064534902572632,1.7708942890167236
1740006568377356300,4.776356201171875,3.7657716274261475,2.287174701690674,1.9634953737258911
1740006568387339300,4.78633935546875,3.549621105194092,2.3899362087249756,2.0187149047851562
1740006568397322500,4.796322509765625,3.3091578483581543,2.3643686771392822,1.9031789302825928
1740006568407304200,4.80630419921875,3.0641067028045654,2.2149434089660645,1.6195366382598877
1740006568417287400,4.816287353515625,2.826514720916748,1.9425829648971558,1.2053601741790771
1740006568427270400,4.8262705078125,2.6007072925567627,1.6086359024047852,0.7078234553337097
1740006568437253400,4.83625341796875,2.3433175086975098,1.2657126188278198,0.16911903023719788
1740006568447236400,4.846236328125,2.0206408500671387,0.9216632843017578,-0.3784230351448059
1740006568457219300,4.85621923828125,1.6615071296691895,0.5752488970756531,-0.8863810300827026
1740006568467202300,4.866202392578125,1.3203891515731812,0.22617319226264954,-1.3045060634613037
1740006568477185500,4.876185546875,1.0445410013198853,-0.10998910665512085,-1.6164580583572388
1740006568487168300,4.886168212890625,0.8012579083442688,-0.4287572503089905,-1.8166143894195557
1740006568497150500,4.896150390625,0.537793755531311,-0.6661333441734314,-1.9318597316741943
1740006568507133400,4.906133544921875,0.23476776480674744,-0.7865651249885559,-1.9624412059783936
1740006568517116400,4.916116455078125,-0.08994001150131226,-0.8001914620399475,-1.9394367933273315
1740006568527099400,4.926099365234375,-0.482916921377182,-0.7406629920005798,-1.8736857175827026
1740006568537082400,4.936082275390625,-0.9422285556793213,-0.6202907562255859,-1.7385369539260864
1740006568547065600,4.946065673828125,-1.4564858675003052,-0.4106360375881195,-1.519736886024475
1740006568557048300,4.95604833984375,-2.0182316303253174,-0.10332375019788742,-1.2445074319839478
1740006568567031300,4.96603125,-2.569892406463623,0.22236670553684235,-0.9105650186538696
1740006568577014500,4.9760146484375,-3.1104776859283447,0.37550991773605347,-0.5051615834236145
1740006568586996200,4.985996337890625,-3.638869524002075,0.09694813191890717,-0.016895215958356857
1740006568596979500,4.9959794921875,-4.007718563079834,-0.4973716735839844,0.5303929448127747
1740006568606962400,5.00596240234375,-4.1706366539001465,-1.0580787658691406,1.0802323818206787
1740006568616945400,5.0159453125,-4.164681434631348,-1.3049594163894653,1.45937979221344
1740006568626928400,5.025928466796875,-4.077092170715332,-1.223520040512085,1.4605135917663574
1740006568636911400,5.035911376953125,-3.964446783065796,-0.9294582605361938,0.9906140565872192
1740006568646894300,5.045894287109375,-3.8829433917999268,-0.532310426235199,0.20154456794261932
1740006568656877600,5.055877685546875,-3.876232385635376,-0.31861624121665955,-0.58773273229599
1740006568666860300,5.0658603515625,-3.956129312515259,-0.3530411720275879,-1.1537714004516602
1740006568676842500,5.075842529296875,-4.105202674865723,-0.4360004961490631,-1.5835225582122803
1740006568686825500,5.085825439453125,-4.2883782386779785,-0.4768451154232025,-1.9561904668807983
1740006568696808400,5.095808349609375,-4.467386245727539,-0.5755120515823364,-2.2726120948791504
1740006568706791400,5.10579150390625,-4.629752159118652,-0.7428293228149414,-2.483567237854004
1740006568716774400,5.1157744140625,-4.750131130218506,-0.909471869468689,-2.5731725692749023
1740006568726757400,5.12575732421875,-4.791784763336182,-1.0866769552230835,-2.546046018600464
1740006568736740400,5.135740234375,-4.744394779205322,-1.2478482723236084,-2.4269917011260986
1740006568746723300,5.145723388671875,-4.607008457183838,-1.3631751537322998,-2.2388672828674316
1740006568756705300,5.155705322265625,-4.398453712463379,-1.396612524986267,-2.0035035610198975
1740006568766688300,5.165688232421875,-4.165820598602295,-1.3724415302276611,-1.7405167818069458
1740006568776671500,5.17567138671875,-3.9379944801330566,-1.270665168762207,-1.406384825706482
1740006568786654500,5.185654541015625,-3.786137580871582,-1.0052940845489502,-1.0372875928878784
1740006568796637200,5.19563720703125,-3.6875810623168945,-0.6696931719779968,-0.6161818504333496
1740006568806620400,5.205620361328125,-3.623581647872925,-0.2914578318595886,-0.1532680243253708
1740006568816603400,5.215603271484375,-3.5301930904388428,0.12836873531341553,0.38139644265174866
1740006568826586400,5.22558642578125,-3.3791487216949463,0.5174757242202759,0.9713057279586792
1740006568836569300,5.2355693359375,-3.197141408920288,0.7473424673080444,1.5715223550796509
1740006568846550800,5.24555078125,-3.003990888595581,0.6394607424736023,2.123055934906006
1740006568856533800,5.25553369140625,-2.8299195766448975,0.19263292849063873,2.5359714031219482
1740006568866516500,5.2655166015625,-2.6432573795318604,-0.4695252776145935,2.7252938747406006
1740006568876499700,5.275499755859375,-2.460818290710449,-0.8749028444290161,2.607370615005493
1740006568886482700,5.285482666015625,-2.28167462348938,-1.0007085800170898,2.214426279067993
1740006568896465700,5.295465576171875,-2.147123098373413,-0.8662781119346619,1.6384155750274658
1740006568906448600,5.30544873046875,-2.1048247814178467,-0.577235758304596,0.897702693939209
1740006568916431600,5.315431640625,-2.1210711002349854,-0.36804768443107605,0.1220274567604065
1740006568926414800,5.325414794921875,-2.110722064971924,-0.35292625427246094,-0.5322777628898621
1740006568936396500,5.335396484375,-2.007570505142212,-0.5206758379936218,-1.0367015600204468
1740006568946379800,5.3453798828125,-1.8792990446090698,-0.7341331243515015,-1.4361035823822021
1740006568956362800,5.35536279296875,-1.754272699356079,-0.8978144526481628,-1.771000862121582
1740006568966345500,5.365345458984375,-1.6231354475021362,-0.9720643758773804,-2.0310747623443604
1740006568976328700,5.37532861328125,-1.477012038230896,-1.0015356540679932,-2.1791062355041504
1740006568986311700,5.385311767578125,-1.341118335723877,-1.0288755893707275,-2.2205183506011963
1740006568996294700,5.395294677734375,-1.2248167991638184,-1.0604780912399292,-2.176069736480713
1740006569006277600,5.405277587890625,-1.1165989637374878,-1.0619726181030273,-2.079608678817749
1740006569016259600,5.415259521484375,-1.0042058229446411,-1.01357102394104,-1.9404207468032837
1740006569026242800,5.425242919921875,-0.8453363180160522,-0.9366583228111267,-1.7662725448608398
1740006569036225500,5.4352255859375,-0.6144618391990662,-0.818051278591156,-1.5512771606445312
1740006569046208500,5.44520849609375,-0.30161723494529724,-0.6909046173095703,-1.318838119506836
1740006569056191700,5.455191650390625,0.04635724425315857,-0.5685041546821594,-1.121496558189392
1740006569066174700,5.4651748046875,0.3866733908653259,-0.50287926197052,-1.022178292274475
1740006569076157700,5.47515771484375,0.6892005205154419,-0.5828366875648499,-1.005070686340332
1740006569086140700,5.485140625,0.9425472617149353,-0.7618817090988159,-0.9942066073417664
1740006569096123600,5.49512353515625,1.1531708240509033,-0.8795364499092102,-0.9468518495559692
1740006569106105600,5.505105712890625,1.3612406253814697,-0.9427450895309448,-0.8155678510665894
1740006569116088600,5.515088623046875,1.618822693824768,-1.0110859870910645,-0.6200886368751526
1740006569126071800,5.52507177734375,1.920059323310852,-1.08929443359375,-0.37895867228507996
1740006569136054800,5.5350546875,2.254887819290161,-1.061951994895935,-0.13082368671894073
1740006569146037500,5.54503759765625,2.600672960281372,-0.9072645902633667,0.09867332130670547
1740006569156020700,5.555020751953125,2.9564852714538574,-0.6364759802818298,0.30464327335357666
1740006569166003700,5.565003662109375,3.3028903007507324,-0.32983726263046265,0.5098267793655396
1740006569175986700,5.574986572265625,3.605560064315796,-0.034990690648555756,0.7247726321220398
1740006569185969700,5.5849697265625,3.7836880683898926,0.1085580363869667,0.9534131288528442
1740006569195951600,5.59495166015625,3.8456876277923584,0.06094258651137352,1.1772938966751099
1740006569205934800,5.604934814453125,3.832326889038086,-0.11295462399721146,1.3748209476470947
1740006569215917600,5.61491748046875,3.752100944519043,-0.2654581665992737,1.5060604810714722
1740006569225900500,5.624900634765625,3.6978328227996826,-0.24370576441287994,1.5331779718399048
1740006569235883800,5.6348837890625,3.7356936931610107,-0.029321029782295227,1.4559234380722046
1740006569245866500,5.644866455078125,3.8843276500701904,0.11290522664785385,1.3696544170379639
1740006569255849500,5.654849365234375,4.092366695404053,0.19872692227363586,1.3114819526672363
1740006569265832700,5.664832763671875,4.278851509094238,0.24411073327064514,1.2971409559249878
1740006569275814700,5.674814697265625,4.383044242858887,0.30236950516700745,1.31043541431427
1740006569285797600,5.684797607421875,4.346822261810303,0.32262226939201355,1.3318803310394287
1740006569295780600,5.694780517578125,4.229118824005127,0.3133821487426758,1.3879529237747192
1740006569305763800,5.704763916015625,4.062009334564209,0.36458277702331543,1.4438986778259277
1740006569315746600,5.71474658203125,3.876465082168579,0.4453867971897125,1.4983816146850586
1740006569325729500,5.7247294921875,3.659724712371826,0.5697421431541443,1.5326735973358154
1740006569335712800,5.734712646484375,3.456624984741211,0.7339436411857605,1.5524358749389648
1740006569345695700,5.74469580078125,3.3109397888183594,0.8676915764808655,1.5536478757858276
1740006569355678500,5.754678466796875,3.29337477684021,0.9851449728012085,1.4878957271575928
1740006569365660700,5.76466064453125,3.389612913131714,0.994926929473877,1.4148550033569336
1740006569375643600,5.7746435546875,3.4888882637023926,0.9353190064430237,1.3577523231506348
1740006569385626600,5.784626708984375,3.5082080364227295,0.8794662952423096,1.2795644998550415
1740006569395609600,5.794609619140625,3.4613757133483887,0.8651653528213501,1.1692439317703247
1740006569405592600,5.804592529296875,3.4088399410247803,0.8744258880615234,1.0342644453048706
1740006569415575800,5.814575927734375,3.356628894805908,0.8883664608001709,0.8874390721321106
1740006569425558500,5.82455859375,3.293081283569336,0.8875224590301514,0.715766966342926
1740006569435541500,5.83454150390625,3.2337000370025635,0.8520153164863586,0.5131203532218933
1740006569445524700,5.844524658203125,3.192002058029175,0.7299286127090454,0.2717604339122772
1740006569455506700,5.854506591796875,3.152942180633545,0.43682774901390076,-0.011354112066328526
1740006569465489700,5.86448974609375,3.114647388458252,0.02925666607916355,-0.3334060311317444
1740006569475472600,5.87447265625,3.053316354751587,-0.37834760546684265,-0.6460954546928406
1740006569485456000,5.884455810546875,2.938058376312256,-0.7220316529273987,-0.8906564712524414
1740006569495438600,5.8944384765625,2.77773118019104,-0.9714713096618652,-1.073764443397522
1740006569505421600,5.904421630859375,2.61617112159729,-1.1439486742019653,-1.2027281522750854
1740006569515404800,5.91440478515625,2.477280616760254,-1.2476385831832886,-1.2865828275680542
1740006569525387800,5.9243876953125,2.332669496536255,-1.2961153984069824,-1.3283331394195557
1740006569535370500,5.93437060546875,2.147705078125,-1.274842619895935,-1.3421401977539062
1740006569545352700,5.944352783203125,1.885827660560608,-1.221020221710205,-1.3240511417388916
1740006569555335700,5.954335693359375,1.5543893575668335,-1.1424365043640137,-1.2658677101135254
1740006569565318700,5.964318603515625,1.181800127029419,-1.044840931892395,-1.1407694816589355
1740006569575301600,5.974301513671875,0.790867805480957,-0.8589845299720764,-0.9552842378616333
1740006569585284600,5.98428466796875,0.3977493643760681,-0.6034606695175171,-0.7577902674674988
1740006569595267600,5.994267578125,0.021069718524813652,-0.34376227855682373,-0.5683058500289917
1740006569605250600,6.00425048828125,-0.3392752707004547,-0.10985308885574341,-0.40209272503852844
1740006569615233500,6.014233642578125,-0.68635493516922,0.0919673815369606,-0.2478080689907074
1740006569625215500,6.024215576171875,-1.0642943382263184,0.25114527344703674,-0.12375161051750183
1740006569635198700,6.03419873046875,-1.5144610404968262,0.29494521021842957,-0.03191250190138817
1740006569645181700,6.044181640625,-1.999721884727478,0.2931952178478241,0.02661004848778248
1740006569655164700,6.05416455078125,-2.4395229816436768,0.29025107622146606,0.05183737725019455
1740006569665147600,6.064147705078125,-2.8325393199920654,0.31932586431503296,0.04825065657496452
1740006569675130600,6.074130615234375,-3.1767542362213135,0.3104250431060791,0.020758312195539474
1740006569685113600,6.084113525390625,-3.4326930046081543,0.3054210841655731,-0.016905615106225014
1740006569695096800,6.094096923828125,-3.627300500869751,0.36658111214637756,-0.06998907774686813
1740006569705079600,6.10407958984375,-3.763796329498291,0.5090657472610474,-0.1551872193813324
1740006569715061800,6.114061767578125,-3.841691732406616,0.6648766398429871,-0.27701830863952637
1740006569725044700,6.124044677734375,-3.907371997833252,0.765978217124939,-0.43071359395980835
1740006569735027500,6.13402734375,-3.979008197784424,0.8519392013549805,-0.6153044700622559
1740006569745010700,6.1440107421875,-4.074512004852295,0.9481682777404785,-0.7979756593704224
1740006569754993700,6.15399365234375,-4.18623685836792,1.0341039896011353,-0.9575362801551819
1740006569764976600,6.1639765625,-4.272481441497803,1.0507200956344604,-1.0659260749816895
1740006569774959600,6.173959716796875,-4.281287670135498,0.9357869029045105,-1.1157606840133667
1740006569784942600,6.183942626953125,-4.194193363189697,0.6872361302375793,-1.1146317720413208
1740006569794925600,6.193925537109375,-4.032868385314941,0.3601168096065521,-1.0989127159118652
1740006569804907500,6.203907470703125,-3.876878023147583,0.030916724354028702,-1.130935549736023
1740006569814890500,6.213890380859375,-3.776637315750122,-0.2387046366930008,-1.187577486038208
1740006569824873700,6.223873779296875,-3.7244908809661865,-0.4761826694011688,-1.1724787950515747
1740006569834856700,6.233856689453125,-3.7044148445129395,-0.6742798089981079,-1.1042853593826294
1740006569844840000,6.24383984375,-3.687756299972534,-0.8052274584770203,-1.0273030996322632
1740006569854823000,6.253822998046875,-3.634979724884033,-0.8153077960014343,-0.9725781679153442
1740006569864806000,6.263805908203125,-3.5259218215942383,-0.7113956809043884,-0.9367177486419678
1740006569874789000,6.2737890625,-3.380654811859131,-0.6123404502868652,-0.9169184565544128
1740006569884770800,6.283770751953125,-3.2652902603149414,-0.5286476612091064,-0.931767463684082
1740006569894754000,6.293754150390625,-3.1876943111419678,-0.45078563690185547,-0.9742070436477661
1740006569904737000,6.303737060546875,-3.125234603881836,-0.4018758237361908,-1.0171407461166382
1740006569914720000,6.313719970703125,-3.0609939098358154,-0.4060532748699188,-1.0115348100662231
1740006569924703000,6.323702880859375,-2.9906060695648193,-0.3819618225097656,-0.9363145232200623
1740006569934686000,6.33368603515625,-2.9328818321228027,-0.2833990454673767,-0.8096956014633179
1740006569944669000,6.3436689453125,-2.865435838699341,-0.15580755472183228,-0.6484765410423279
1740006569954652200,6.353652099609375,-2.776045799255371,-0.042847976088523865,-0.4471120238304138
1740006569964635000,6.363634765625,-2.677534580230713,0.017885128036141396,-0.23005832731723785
1740006569974617000,6.3736171875,-2.538839817047119,0.06917840987443924,0.008549980819225311
1740006569984600000,6.38360009765625,-2.4490296840667725,0.1411813646554947,0.16900967061519623
1740006569994582800,6.393582763671875,-2.3679327964782715,0.22964997589588165,0.24646104872226715
1740006570004566000,6.40356591796875,-2.2864251136779785,0.3154553174972534,0.25162482261657715
1740006570014549000,6.413549072265625,-2.1947405338287354,0.3706543743610382,0.2096174657344818
1740006570024532000,6.423531982421875,-2.0615642070770264,0.4121934771537781,0.14164459705352783
1740006570034515000,6.433514892578125,-1.9226692914962769,0.5061431527137756,0.05921150743961334
1740006570044498000,6.443497802734375,-1.790529727935791,0.5954362750053406,-0.02426607348024845
1740006570054481200,6.453481201171875,-1.6674103736877441,0.612730860710144,-0.09543532878160477
1740006570064462800,6.463462890625,-1.5602855682373047,0.5706157088279724,-0.13805973529815674
1740006570074446000,6.473446044921875,-1.4456127882003784,0.516173779964447,-0.15359927713871002
1740006570084429000,6.483428955078125,-1.317460060119629,0.42487579584121704,-0.16827300190925598
1740006570094412000,6.493412109375,-1.186699390411377,0.2557559907436371,-0.2104036808013916
1740006570104395000,6.50339501953125,-1.0165516138076782,0.03593647852540016,-0.2720716893672943
1740006570114378000,6.5133779296875,-0.7892455458641052,-0.15394558012485504,-0.35222992300987244
1740006570124361000,6.52336083984375,-0.5332872867584229,-0.24103876948356628,-0.4661625623703003
1740006570134344200,6.53334423828125,-0.25446364283561707,-0.25761106610298157,-0.582452654838562
1740006570144326000,6.543325927734375,0.0296750720590353,-0.26767677068710327,-0.6066806316375732
1740006570154309000,6.55330908203125,0.31058770418167114,-0.274952232837677,-0.48646849393844604
1740006570164292000,6.5632919921875,0.5763832330703735,-0.26310357451438904,-0.2111719846725464
1740006570174274800,6.57327490234375,0.8272812366485596,-0.23734812438488007,0.1701655238866806
1740006570184258000,6.583258056640625,1.0788462162017822,-0.2265663594007492,0.5909815430641174
1740006570194241000,6.593240966796875,1.3264834880828857,-0.21086782217025757,0.9791828393936157
1740006570204223700,6.6032236328125,1.5746711492538452,-0.13477416336536407,1.2900006771087646
1740006570214207000,6.61320703125,1.8183659315109253,0.029603073373436928,1.5030584335327148
1740006570224190000,6.62318994140625,2.0769224166870117,0.25086066126823425,1.6114031076431274
1740006570234172000,6.633171875,2.326190948486328,0.47649645805358887,1.6475023031234741
1740006570244155000,6.64315478515625,2.543813467025757,0.6414532661437988,1.6281063556671143
1740006570254138000,6.65313818359375,2.715177297592163,0.765923261642456,1.5731072425842285
1740006570264121000,6.66312109375,2.8512840270996094,0.9035356044769287,1.4879474639892578
1740006570274103800,6.673103759765625,2.975130081176758,1.025323510169983,1.3942707777023315
1740006570284087000,6.683087158203125,3.063394069671631,1.0828005075454712,1.309059739112854
1740006570294070000,6.693070068359375,3.112067699432373,1.075430989265442,1.2340677976608276
1740006570304053000,6.703052978515625,3.137082815170288,1.0041574239730835,1.1684932708740234
1740006570314036000,6.713035888671875,3.111994504928589,0.9047777056694031,1.114952802658081
1740006570324018000,6.723017822265625,3.0195040702819824,0.7965849041938782,1.0839873552322388
1740006570334001200,6.733001220703125,2.904435873031616,0.7108657360076904,1.0448873043060303
1740006570343983900,6.74298388671875,2.819462299346924,0.6677286028862,0.9817160367965698
1740006570353966800,6.752966796875,2.803417921066284,0.6166699528694153,0.9444258809089661
1740006570363950000,6.7629501953125,2.8447844982147217,0.6119917631149292,0.9442282915115356
1740006570373933000,6.77293310546875,2.889958143234253,0.6646525859832764,0.949508011341095
1740006570383915800,6.782915771484375,2.904630661010742,0.736781656742096,0.9357579946517944
1740006570393899000,6.79289892578125,2.9175591468811035,0.7927408218383789,0.9283748865127563
1740006570403881000,6.802880859375,2.979893445968628,0.8009181022644043,0.928310215473175
1740006570413864000,6.812864013671875,3.050236225128174,0.8345242738723755,0.9111261367797852
1740006570423847000,6.822846923828125,3.084723472595215,0.8335674405097961,0.8691269159317017
1740006570433830100,6.832830078125,3.1261096000671387,0.765362560749054,0.7747883796691895
1740006570443813000,6.842813232421875,3.2002573013305664,0.6776368618011475,0.6659074425697327
1740006570453795800,6.8527958984375,3.3014488220214844,0.6127244234085083,0.5620468258857727
1740006570463779000,6.862779052734375,3.3811800479888916,0.5558152794837952,0.45792219042778015
1740006570473762000,6.872761962890625,3.4429430961608887,0.5034916400909424,0.36872464418411255
1740006570483745000,6.8827451171875,3.466909885406494,0.47395798563957214,0.2926611602306366
1740006570493727000,6.89272705078125,3.4544613361358643,0.4921066164970398,0.2224634289741516
1740006570503710000,6.9027099609375,3.409100294113159,0.5045512318611145,0.16951310634613037
1740006570513693200,6.912693115234375,3.348228693008423,0.497312992811203,0.13220888376235962
1740006570523676000,6.922676025390625,3.2723917961120605,0.44400981068611145,0.12111582607030869
1740006570533659000,6.932658935546875,3.179302215576172,0.37223097681999207,0.13551340997219086
1740006570543642000,6.94264208984375,3.0759763717651367,0.3036656081676483,0.17307578027248383
1740006570553624800,6.952624755859375,2.997241497039795,0.23716674745082855,0.19571398198604584
1740006570563607800,6.96260791015625,2.9550857543945312,0.18087123334407806,0.1700187772512436
1740006570573590000,6.972590087890625,2.924762487411499,0.15087337791919708,0.08520429581403732
1740006570583573000,6.982572998046875,2.873718738555908,0.17815113067626953,-0.047794997692108154
1740006570593556000,6.992555908203125,2.8030548095703125,0.22028233110904694,-0.2086840122938156
1740006570603539000,7.0025390625,2.700387477874756,0.24010153114795685,-0.3924782872200012
1740006570613522200,7.012522216796875,2.564284086227417,0.22621260583400726,-0.5806223750114441
1740006570623505000,7.0225048828125,2.3801145553588867,0.2038489580154419,-0.758342444896698
1740006570633488000,7.03248779296875,2.131103038787842,0.20090588927268982,-0.9191592931747437
1740006570643471000,7.04247119140625,1.8394286632537842,0.20216959714889526,-1.0350538492202759
1740006570653454000,7.0524541015625,1.515617847442627,0.18267180025577545,-1.0902146100997925
1740006570663436000,7.06243603515625,1.1869510412216187,0.11415529251098633,-1.0718793869018555
1740006570673419000,7.0724189453125,0.8531927466392517,-0.02916059084236622,-0.9967017769813538
1740006570683402000,7.082402099609375,0.4961972236633301,-0.18952488899230957,-0.8955119848251343
1740006570693385000,7.092385009765625,0.1104859933257103,-0.31443727016448975,-0.8025509119033813
1740006570703368000,7.102367919921875,-0.28667062520980835,-0.37207621335983276,-0.7376902103424072
1740006570713351000,7.112350830078125,-0.6836555004119873,-0.3972838222980499,-0.694665789604187
1740006570723334100,7.122334228515625,-1.0941283702850342,-0.42600733041763306,-0.6509631872177124
1740006570733316900,7.13231689453125,-1.5220587253570557,-0.46521463990211487,-0.6034135222434998
1740006570743299800,7.1422998046875,-1.923089861869812,-0.4954502284526825,-0.5434286594390869
1740006570753282000,7.152281982421875,-2.2936575412750244,-0.47204291820526123,-0.4428839683532715
1740006570763264800,7.1622646484375,-2.6435277462005615,-0.38824886083602905,-0.30112573504447937
1740006570773248000,7.172248046875,-2.9847612380981445,-0.2946126461029053,-0.11884088814258575
1740006570783231000,7.18223095703125,-3.271176338195801,-0.2401256561279297,0.09301452338695526
1740006570793214200,7.192214111328125,-3.4890806674957275,-0.15271803736686707,0.3080517053604126
1740006570803197000,7.202197021484375,-3.605546712875366,-0.025366701185703278,0.5160897970199585
1740006570813180000,7.212179931640625,-3.611630916595459,0.09933927655220032,0.7155576348304749
1740006570823163100,7.2221630859375,-3.5414435863494873,0.22150643169879913,0.8577433228492737
1740006570833144800,7.232144775390625,-3.435487747192383,0.34316709637641907,0.8734365701675415
1740006570843127600,7.24212744140625,-3.338277816772461,0.46659380197525024,0.7394141554832458
1740006570853110500,7.252110595703125,-3.292017698287964,0.5773027539253235,0.44468796253204346
1740006570863093500,7.262093505859375,-3.3279330730438232,0.652134120464325,0.022703593596816063
1740006570873076500,7.272076416015625,-3.434227705001831,0.6658906936645508,-0.45716020464897156
1740006570883059500,7.2820595703125,-3.5622434616088867,0.5190512537956238,-0.9128745794296265
1740006570893042700,7.292042724609375,-3.6775379180908203,0.2554004192352295,-1.3124239444732666
1740006570903025700,7.302025634765625,-3.7530946731567383,-0.05887621268630028,-1.6249998807907104
1740006570913008400,7.31200830078125,-3.8018879890441895,-0.33882424235343933,-1.8151909112930298
1740006570922990600,7.321990478515625,-3.8512871265411377,-0.5281466245651245,-1.8668196201324463
1740006570932973600,7.3319736328125,-3.8936569690704346,-0.6354536414146423,-1.7835949659347534
1740006570942956500,7.34195654296875,-3.921525001525879,-0.670535683631897,-1.5810545682907104
1740006570952939500,7.351939453125,-3.9243531227111816,-0.6583061814308167,-1.3072837591171265
1740006570962922500,7.361922607421875,-3.896164655685425,-0.5892203450202942,-1.0018231868743896
1740006570972905700,7.37190576171875,-3.8050549030303955,-0.5049054622650146,-0.6904895901679993
1740006570982888400,7.381888427734375,-3.6602838039398193,-0.38820934295654297,-0.4172252416610718
1740006570992871400,7.391871337890625,-3.5194246768951416,-0.23409885168075562,-0.21726474165916443
1740006571002854700,7.401854736328125,-3.395439624786377,0.00020180828869342804,-0.10702603310346603
1740006571012836400,7.41183642578125,-3.28316068649292,0.24689015746116638,-0.056226763874292374
1740006571022819600,7.421819580078125,-3.1878774166107178,0.42561811208724976,-0.06618016958236694
1740006571032802600,7.431802490234375,-3.066876173019409,0.4940778613090515,-0.12116459012031555
1740006571042785300,7.441785400390625,-2.94038724899292,0.4540518522262573,-0.21044161915779114
1740006571052768500,7.4517685546875,-2.8285536766052246,0.374239057302475,-0.33863475918769836
1740006571062751500,7.46175146484375,-2.7614638805389404,0.263965368270874,-0.4704192876815796
1740006571072734700,7.471734619140625,-2.7223706245422363,0.15549109876155853,-0.569530189037323
1740006571082717400,7.481717529296875,-2.6938469409942627,0.05970396101474762,-0.6401458382606506
1740006571092699600,7.49169970703125,-2.652141571044922,-0.036464378237724304,-0.6821390986442566
1740006571102682600,7.5016826171875,-2.5995075702667236,-0.16238689422607422,-0.6948858499526978
1740006571112665300,7.511665283203125,-2.5428953170776367,-0.25340867042541504,-0.7147778272628784
1740006571122648600,7.521648681640625,-2.4227101802825928,-0.2087794691324234,-0.7560487985610962
1740006571132631600,7.531631591796875,-2.176086902618408,-0.10553377866744995,-0.7920759916305542
1740006571142614500,7.541614501953125,-1.8001043796539307,-0.024386998265981674,-0.8124217391014099
1740006571152597500,7.551597412109375,-1.390048623085022,0.00936297606676817,-0.7892264127731323
1740006571162580500,7.56158056640625,-1.0549323558807373,-0.055044081062078476,-0.7393925786018372
1740006571172563500,7.5715634765625,-0.8069132566452026,-0.25161999464035034,-0.7125838398933411
1740006571182545400,7.58154541015625,-0.6399918794631958,-0.4670572876930237,-0.7262151837348938
1740006571192528400,7.5915283203125,-0.5486236214637756,-0.5866401195526123,-0.7708268761634827
1740006571202511600,7.60151171875,-0.5380080938339233,-0.6156138181686401,-0.8353267312049866
1740006571212494600,7.61149462890625,-0.5568696856498718,-0.6050378680229187,-0.8732197880744934
1740006571222477300,7.621477294921875,-0.5259971618652344,-0.61568284034729,-0.8421580791473389
1740006571232460500,7.63146044921875,-0.4209839105606079,-0.6744393706321716,-0.7477394342422485
1740006571242443500,7.641443603515625,-0.2214125394821167,-0.7764089107513428,-0.6044315099716187
1740006571252426800,7.6514267578125,0.03834979236125946,-0.9135614037513733,-0.4244265556335449
1740006571262409500,7.661409423828125,0.33579641580581665,-1.0262774229049683,-0.21351681649684906
1740006571272391700,7.6713916015625,0.6385970115661621,-1.0393767356872559,0.020434431731700897
1740006571282374700,7.681374755859375,0.9440794587135315,-0.898131787776947,0.2556453347206116
1740006571292357400,7.691357421875,1.2627253532409668,-0.5972731113433838,0.47877800464630127
1740006571302340600,7.701340576171875,1.5974905490875244,-0.20241744816303253,0.6887869238853455
1740006571312323600,7.711323486328125,1.9365944862365723,0.2056984007358551,0.894731879234314
1740006571322306600,7.721306640625,2.264458417892456,0.5713427066802979,1.1007921695709229
1740006571332289500,7.73128955078125,2.575462818145752,0.853756308555603,1.3065344095230103
1740006571342272500,7.7412724609375,2.872283697128296,1.0378743410110474,1.4916476011276245
1740006571352254700,7.751254638671875,3.146073341369629,1.135168433189392,1.6538910865783691
1740006571362237400,7.761237548828125,3.3782546520233154,1.1653612852096558,1.7486716508865356
1740006571372220400,7.771220458984375,3.5644235610961914,1.1459585428237915,1.7570263147354126
1740006571382203600,7.78120361328125,3.7004201412200928,1.0818506479263306,1.70555579662323
1740006571392186600,7.7911865234375,3.8053512573242188,1.0068671703338623,1.6296982765197754
1740006571402169300,7.80116943359375,3.8709542751312256,0.9692527651786804,1.5522751808166504
1740006571412152600,7.811152587890625,3.8758811950683594,0.9479778409004211,1.4766368865966797
1740006571422135600,7.821135498046875,3.815920829772949,0.9139722585678101,1.4115235805511475
1740006571432118500,7.831118408203125,3.720501184463501,0.8225720524787903,1.4097211360931396
1740006571442100500,7.8411005859375,3.6254401206970215,0.7055767178535461,1.4648844003677368
1740006571452083700,7.851083740234375,3.545233964920044,0.6089248061180115,1.527690052986145
1740006571462066400,7.86106640625,3.461221694946289,0.5671831965446472,1.5849828720092773
1740006571472049400,7.87104931640625,3.3654286861419678,0.5606001615524292,1.6334761381149292
1740006571482032600,7.88103271484375,3.2637271881103516,0.5647783875465393,1.6651523113250732
1740006571492015600,7.891015625,3.207608699798584,0.5945477485656738,1.6826809644699097
1740006571501998300,7.900998291015625,3.16097354888916,0.5907436609268188,1.6580430269241333
1740006571511981600,7.910981689453125,3.1142427921295166,0.5417770743370056,1.5563985109329224
1740006571521964500,7.920964599609375,3.103267192840576,0.5105911493301392,1.3818358182907104
1740006571531947500,7.930947509765625,3.1448357105255127,0.5573049187660217,1.173829197883606
1740006571541929500,7.940929443359375,3.201569080352783,0.6247103214263916,0.9612051844596863
1740006571551912400,7.950912353515625,3.2172646522521973,0.6649120450019836,0.7558000087738037
1740006571561895700,7.960895751953125,3.1775052547454834,0.7026799321174622,0.5640042424201965
1740006571571878400,7.97087841796875,3.0903666019439697,0.791737973690033,0.3876272737979889
1740006571581861400,7.980861328125,2.9866514205932617,0.8970590233802795,0.23491601645946503
1740006571591844600,7.9908447265625,2.8925845623016357,0.955607533454895,0.10263355821371078
1740006571601827600,8.00082763671875,2.816113233566284,0.9756049513816833,-0.018079543486237526
1740006571611810600,8.010810546875,2.7552249431610107,0.9583126306533813,-0.14321324229240417
1740006571621792500,8.02079248046875,2.6902172565460205,0.9261658787727356,-0.2835690379142761
1740006571631775700,8.030775634765625,2.6061453819274902,0.8826286792755127,-0.4363600015640259
1740006571641758500,8.040758544921875,2.500415086746216,0.8213695883750916,-0.5753839015960693
1740006571651741400,8.050741455078125,2.3663792610168457,0.7301073670387268,-0.6716522574424744
1740006571661724700,8.060724609375,2.203068494796753,0.5949923992156982,-0.7226619124412537
1740006571671707600,8.070707763671875,2.022893190383911,0.43143323063850403,-0.7378097772598267
1740006571681690400,8.0806904296875,1.8331332206726074,0.2742904722690582,-0.7373349070549011
1740006571691673600,8.090673583984374,1.6298748254776,0.12797850370407104,-0.7432412505149841
1740006571701656600,8.100656494140624,1.4068814516067505,-0.006184893660247326,-0.7583538889884949
1740006571711638500,8.110638427734376,1.1683934926986694,-0.1281481236219406,-0.7871710062026978
1740006571721621500,8.12062158203125,0.9129356741905212,-0.2383238971233368,-0.7991973161697388
1740006571731604500,8.1306044921875,0.6567479968070984,-0.3266874849796295,-0.7914395332336426
1740006571741587700,8.140587646484375,0.3811366856098175,-0.40039873123168945,-0.7523054480552673
1740006571751570400,8.1505703125,0.10026676952838898,-0.4186593294143677,-0.6834098100662231
1740006571761553400,8.160553466796875,-0.17288833856582642,-0.4182468056678772,-0.5853756666183472
1740006571771536600,8.17053662109375,-0.42885279655456543,-0.48264074325561523,-0.4716848134994507
1740006571781519400,8.180519287109375,-0.6889743804931641,-0.6156936287879944,-0.3580160439014435
1740006571791501600,8.19050146484375,-0.9774978160858154,-0.753097414970398,-0.24245478212833405
1740006571801484500,8.200484619140624,-1.2911779880523682,-0.8481876850128174,-0.12542536854743958
1740006571811467500,8.210467529296874,-1.5935219526290894,-0.8783839344978333,-0.002219123300164938
1740006571821450500,8.220450439453124,-1.8551690578460693,-0.8750213980674744,0.14398017525672913
1740006571831433500,8.23043359375,-2.0710501670837402,-0.8309918642044067,0.29556381702423096
1740006571841416700,8.240416748046876,-2.2443182468414307,-0.729430079460144,0.4338444769382477
1740006571851400200,8.250400146484376,-2.367279052734375,-0.5780131220817566,0.5639207363128662
1740006571861382100,8.260382080078125,-2.4389824867248535,-0.37235772609710693,0.6722642779350281
1740006571871365400,8.270365478515625,-2.493717670440674,-0.15096276998519897,0.7598037123680115
1740006571881348000,8.28034814453125,-2.5490193367004395,0.04198964685201645,0.8163647055625916
1740006571891331000,8.2903310546875,-2.5967466831207275,0.2010384202003479,0.8284727931022644
1740006571901314300,8.300314208984375,-2.626218795776367,0.3008255362510681,0.7807460427284241
1740006571911297300,8.31029736328125,-2.627875566482544,0.3332703113555908,0.6561540365219116
1740006571921280300,8.3202802734375,-2.601076364517212,0.30002737045288086,0.4459783434867859
1740006571931263200,8.33026318359375,-2.5655434131622314,0.21602967381477356,0.1459045261144638
1740006571941246200,8.34024609375,-2.5365798473358154,0.08987662196159363,-0.2453027069568634
1740006571951228200,8.350228271484376,-2.501115560531616,-0.06911276280879974,-0.7124448418617249
1740006571961211100,8.360211181640626,-2.466047525405884,-0.25941649079322815,-1.2209097146987915
1740006571971194400,8.3701943359375,-2.456292152404785,-0.4577471613883972,-1.713576316833496
1740006571981177300,8.38017724609375,-2.4825940132141113,-0.6515003442764282,-2.1327691078186035
1740006571991160000,8.39016015625,-2.5370843410491943,-0.8392226099967957,-2.4383342266082764
1740006572001143300,8.400143310546875,-2.606755495071411,-1.000750184059143,-2.6226744651794434
1740006572011126300,8.410126220703125,-2.667625904083252,-1.1285206079483032,-2.701014757156372
1740006572021109200,8.420109130859375,-2.702690362930298,-1.229429006576538,-2.713420867919922
1740006572031091200,8.43009130859375,-2.724027395248413,-1.3518577814102173,-2.6601336002349854
1740006572041074200,8.44007421875,-2.7826905250549316,-1.4864354133605957,-2.5312540531158447
1740006572051057400,8.450057373046874,-2.8558154106140137,-1.4887944459915161,-2.3593602180480957
1740006572061040000,8.4600400390625,-2.9173622131347656,-1.3388464450836182,-2.1343705654144287
1740006572071023000,8.470023193359374,-2.964012861251831,-1.068534255027771,-1.866355299949646
1740006572081006300,8.48000634765625,-2.953517198562622,-0.7237074971199036,-1.5502064228057861
1740006572090989300,8.4899892578125,-2.894123077392578,-0.3109931945800781,-1.1791415214538574
1740006572100972300,8.49997216796875,-2.8222625255584717,0.05988784506917,-0.7767241597175598
1740006572110955300,8.509955322265625,-2.760732412338257,0.32649505138397217,-0.3775346875190735
1740006572120937500,8.5199375,-2.7303943634033203,0.5087353587150574,-0.010375111363828182
1740006572130920200,8.529920166015625,-2.733856439590454,0.6726590394973755,0.28725337982177734
1740006572140903200,8.539903076171875,-2.7223970890045166,0.7867569923400879,0.49394458532333374
1740006572150886400,8.549886474609375,-2.6730494499206543,0.8534761071205139,0.6093189120292664
1740006572160869000,8.559869140625,-2.582056760787964,0.8850842118263245,0.6704585552215576
1740006572170852000,8.56985205078125,-2.486494541168213,0.9185899496078491,0.7166175246238708
1740006572180835300,8.57983544921875,-2.4262423515319824,0.9605249166488647,0.7618622183799744
1740006572190818300,8.589818359375,-2.391150951385498,1.0324784517288208,0.7933689951896667
1740006572200800300,8.59980029296875,-2.3574085235595703,1.0983741283416748,0.7951598763465881
1740006572210783200,8.609783203125,-2.311948299407959,1.1350538730621338,0.7626913785934448
1740006572220766200,8.61976611328125,-2.2669270038604736,1.190622329711914,0.7281313538551331
1740006572230749200,8.629749267578125,-2.185086250305176,1.3010166883468628,0.7639258503913879
1740006572240732200,8.639732177734375,-2.039121627807617,1.4811334609985352,0.9129672646522522
1740006572250715100,8.649715087890625,-1.8212753534317017,1.64528489112854,1.184126377105713
1740006572260698400,8.659698486328125,-1.525495171546936,1.61428964138031,1.526690125465393
1740006572270681000,8.66968115234375,-1.210172414779663,1.2162996530532837,1.808647871017456
1740006572280664300,8.679664306640625,-0.8897362351417542,0.44055020809173584,1.9037247896194458
1740006572290646300,8.689646240234374,-0.5859153866767883,-0.6090716123580933,1.7829853296279907
1740006572300629200,8.699629150390624,-0.3051275312900543,-1.6056687831878662,1.4794878959655762
1740006572310612200,8.7096123046875,-0.01801266148686409,-2.314600944519043,1.0350557565689087
1740006572320595200,8.71959521484375,0.28967607021331787,-2.642606258392334,0.42003339529037476
1740006572330578400,8.729578369140626,0.6093763113021851,-2.5910286903381348,-0.32215818762779236
1740006572340561200,8.73956103515625,0.9213871955871582,-2.2653234004974365,-1.0686484575271606
1740006572350544100,8.749544189453125,1.1497719287872314,-1.7918015718460083,-1.6473994255065918
1740006572360527400,8.75952734375,1.2937064170837402,-1.335641860961914,-1.9670631885528564
1740006572370509000,8.769509033203125,1.4286959171295166,-0.9307010173797607,-2.0408403873443604
1740006572380492300,8.7794921875,1.6195372343063354,-0.5428757667541504,-1.9147721529006958
1740006572390475300,8.789475341796875,1.8881497383117676,-0.21267041563987732,-1.6696622371673584
1740006572400458200,8.799458251953125,2.2157044410705566,0.06143637001514435,-1.3375731706619263
1740006572410441200,8.809441162109374,2.533081293106079,0.34483426809310913,-0.9664562940597534
1740006572420424200,8.819424072265624,2.802072763442993,0.6379391551017761,-0.6093332767486572
1740006572430407200,8.8294072265625,2.9954612255096436,0.902360737323761,-0.2738359868526459
1740006572440390400,8.839390380859374,3.11147141456604,1.1259711980819702,0.04097094386816025
1740006572450373000,8.849373046875,3.1664950847625732,1.3129013776779175,0.32250064611434937
1740006572460355300,8.859355224609375,3.1885857582092285,1.468354344367981,0.5797157883644104
1740006572470338300,8.86933837890625,3.1749773025512695,1.574968695640564,0.8144300580024719
1740006572480321300,8.8793212890625,3.1296029090881348,1.6220629215240479,1.0231188535690308
1740006572490304300,8.88930419921875,3.0775363445281982,1.5669314861297607,1.2100285291671753
1740006572500287200,8.899287353515625,3.0367727279663086,1.3817049264907837,1.3410613536834717
1740006572510270200,8.909270263671875,2.972393751144409,1.0879080295562744,1.3765058517456055
1740006572520253200,8.919253173828125,2.8869082927703857,0.7919778227806091,1.2846683263778687
1740006572530236200,8.929236083984375,2.771496057510376,0.5596087574958801,1.0977610349655151
1740006572540218000,8.939218017578124,2.6410000324249268,0.4020363986492157,0.836743175983429
1740006572550201000,8.949201171875,2.5368850231170654,0.2975507378578186,0.5696680545806885
1740006572560184300,8.959184326171876,2.5165460109710693,0.18499641120433807,0.3765066862106323
1740006572570167300,8.969167236328126,2.6001763343811035,0.031323496252298355,0.2620410919189453
1740006572580150000,8.97914990234375,2.7648746967315674,-0.15270169079303741,0.17885208129882812
1740006572590133200,8.98913330078125,2.9556000232696533,-0.27982717752456665,0.10474269092082977
1740006572600116200,8.9991162109375,3.1274523735046387,-0.27311280369758606,0.05561124533414841
1740006572610099200,9.00909912109375,3.24931001663208,-0.16237801313400269,0.03991271182894707
1740006572620082200,9.019082275390625,3.3267529010772705,-0.01483319140970707,0.07162537425756454
1740006572630064000,9.029064208984375,3.3749849796295166,0.11578340828418732,0.1415187120437622
1740006572640047400,9.03904736328125,3.406703233718872,0.22265145182609558,0.24468323588371277
1740006572650030000,9.049030029296874,3.4295263290405273,0.31058236956596375,0.36600860953330994
1740006572660013300,9.059013427734374,3.431720495223999,0.38327428698539734,0.49031081795692444
1740006572669996300,9.068996337890624,3.4138665199279785,0.41059672832489014,0.6011004447937012
1740006572679979300,9.078979248046876,3.374542236328125,0.3729051947593689,0.6529515385627747
1740006572689962200,9.088962158203126,3.318652391433716,0.28725793957710266,0.6389041543006897
1740006572699945200,9.0989453125,3.2339890003204346,0.19080625474452972,0.564818263053894
1740006572709927400,9.108927490234375,3.126824378967285,0.08422628790140152,0.45858287811279297
1740006572719910100,9.11891015625,2.9895801544189453,-0.022176604717969894,0.3299720883369446
1740006572729893000,9.12889306640625,2.822746992111206,-0.10844997316598892,0.19759035110473633
1740006572739876400,9.13887646484375,2.627847671508789,-0.16091613471508026,0.06599203497171402
1740006572749859300,9.148859375,2.402566432952881,-0.15760822594165802,-0.06958922743797302
1740006572759842000,9.158842041015625,2.152433395385742,-0.10076799988746643,-0.1942661702632904
1740006572769825300,9.1688251953125,1.874405026435852,0.03690890595316887,-0.2941861152648926
1740006572779808300,9.178808349609374,1.5566368103027344,0.23464655876159668,-0.3514450788497925
1740006572789791200,9.188791259765624,1.2049823999404907,0.4113302528858185,-0.33730050921440125
1740006572799773200,9.198773193359376,0.830827534198761,0.45600202679634094,-0.22188687324523926
1740006572809756200,9.208756103515626,0.41971057653427124,0.34230634570121765,0.005930308252573013
1740006572819739400,9.218739501953126,-0.027134595438838005,0.10569151490926743,0.3178130090236664
1740006572829722000,9.22872216796875,-0.4791204333305359,-0.14109589159488678,0.64453125
1740006572839705300,9.238705322265625,-0.8691822290420532,-0.3627402186393738,0.9088602066040039
1740006572849687600,9.2486875,-1.1708918809890747,-0.5207194089889526,1.0582091808319092
1740006572859670500,9.25867041015625,-1.4195747375488281,-0.5699108839035034,1.0797061920166016
1740006572869653500,9.268653564453125,-1.6688634157180786,-0.496761292219162,1.0038915872573853
1740006572879635500,9.278635498046874,-1.921804666519165,-0.3174673616886139,0.8774744868278503
1740006572889618700,9.28861865234375,-2.1517245769500732,-0.10782012343406677,0.7514025568962097
1740006572899601400,9.298601318359376,-2.3278234004974365,0.05704684555530548,0.6769207715988159
1740006572909584600,9.308584716796876,-2.4334843158721924,0.16587264835834503,0.6607478857040405
1740006572919567600,9.318567626953126,-2.473384380340576,0.2057374268770218,0.670818567276001
1740006572929550300,9.32855029296875,-2.494119882583618,0.16394948959350586,0.6408665180206299
1740006572939533600,9.338533447265625,-2.5445444583892822,0.06380267441272736,0.5220709443092346
1740006572949516500,9.3485166015625,-2.630764961242676,-0.08527947962284088,0.29790544509887695
1740006572959498500,9.35849853515625,-2.746387004852295,-0.2377653270959854,-0.008605346083641052
1740006572969481500,9.3684814453125,-2.869922399520874,-0.371662437915802,-0.34797224402427673
1740006572979464400,9.37846435546875,-2.990678310394287,-0.5090723633766174,-0.6638295650482178
1740006572989447700,9.38844775390625,-3.112578868865967,-0.6714178323745728,-0.9324653148651123
1740006572999430400,9.398430419921874,-3.2175238132476807,-0.8340044021606445,-1.153827428817749
1740006573009413400,9.408413330078124,-3.2725183963775635,-0.976605236530304,-1.3415405750274658
1740006573019396600,9.418396728515624,-3.2749807834625244,-1.1164908409118652,-1.4915753602981567
1740006573029379600,9.428379638671874,-3.255174398422241,-1.2454744577407837,-1.5968027114868164
1740006573039362300,9.4383623046875,-3.2442307472229004,-1.320047378540039,-1.6681883335113525
1740006573049344500,9.448344482421875,-3.280043840408325,-1.322881817817688,-1.691891074180603
1740006573059327500,9.458327392578125,-3.3617336750030518,-1.2239748239517212,-1.6496975421905518
1740006573069310500,9.468310546875,-3.5108187198638916,-1.055055856704712,-1.5514205694198608
1740006573079293400,9.47829345703125,-3.6815454959869385,-0.8658071756362915,-1.3785024881362915
1740006573089276700,9.488276611328125,-3.8147573471069336,-0.7315665483474731,-1.1231727600097656
1740006573099259600,9.498259765625,-3.872488498687744,-0.6229434013366699,-0.824141800403595
1740006573109242400,9.508242431640625,-3.8286314010620117,-0.5907809138298035,-0.5211438536643982
1740006573119225600,9.5182255859375,-3.7469120025634766,-0.5483682751655579,-0.2163848727941513
1740006573129207600,9.52820751953125,-3.642561912536621,-0.5160409212112427,0.031117061153054237
1740006573139190500,9.5381904296875,-3.5235776901245117,-0.3985538184642792,0.19839157164096832
1740006573149173500,9.548173583984376,-3.379657506942749,-0.20031793415546417,0.2713991701602936
1740006573159156500,9.558156494140626,-3.2023727893829346,0.09683162719011307,0.2634020447731018
1740006573169139700,9.5681396484375,-3.0193498134613037,0.3648310899734497,0.1908644735813141
1740006573179122400,9.578122314453125,-2.8412392139434814,0.5602000951766968,0.08262604475021362
1740006573189105400,9.58810546875,-2.699995279312134,0.674140214920044,-0.04485707730054855
1740006573199088600,9.598088623046875,-2.605458974838257,0.7182286977767944,-0.1659553050994873
1740006573209071600,9.608071533203125,-2.556528329849243,0.6835085153579712,-0.2488320767879486
1740006573219053600,9.618053466796875,-2.527987003326416,0.6234623193740845,-0.29492896795272827
1740006573229036500,9.62803662109375,-2.486032009124756,0.5519428253173828,-0.2712779641151428
1740006573239019500,9.63801953125,-2.405301094055176,0.4847097098827362,-0.2093319147825241
1740006573249002500,9.64800244140625,-2.2847838401794434,0.4122597277164459,-0.1502845734357834
1740006573258985500,9.6579853515625,-2.1696298122406006,0.42406558990478516,-0.15188029408454895
1740006573268968700,9.66796875,-2.090615749359131,0.38672542572021484,-0.2883457541465759
1740006573278951400,9.677951416015626,-2.0465245246887207,0.28661301732063293,-0.5602213144302368
1740006573288934400,9.687934326171876,-2.005321979522705,0.1503175050020218,-0.9169802069664001
1740006573298916600,9.69791650390625,-1.9740201234817505,0.0669034868478775,-1.3082716464996338
1740006573308899600,9.707899658203125,-1.8865243196487427,0.03906786069273949,-1.6242948770523071
1740006573318882600,9.717882568359375,-1.6582306623458862,-0.01998797059059143,-1.790161371231079
1740006573328865500,9.727865478515625,-1.2750319242477417,-0.21491912007331848,-1.7994182109832764
1740006573338848500,9.7378486328125,-0.7984580993652344,-0.5604686141014099,-1.6789371967315674
1740006573348831500,9.74783154296875,-0.31613969802856445,-0.963645339012146,-1.4480820894241333
1740006573358814500,9.757814453125,0.08581957221031189,-1.3069772720336914,-1.144356369972229
1740006573368797400,9.76779736328125,0.35905271768569946,-1.5756137371063232,-0.8293285965919495
1740006573378779400,9.777779296875,0.527829110622406,-1.7653242349624634,-0.5317173600196838
1740006573388762400,9.787762451171876,0.6617206335067749,-1.7981079816818237,-0.24779537320137024
1740006573398745600,9.79774560546875,0.8155067563056946,-1.6199629306793213,0.019931761547923088
1740006573408728600,9.807728515625,1.020512342453003,-1.2999180555343628,0.27131444215774536
1740006573418711300,9.817711181640625,1.2907969951629639,-0.8965380191802979,0.5069456100463867
1740006573428694500,9.827694580078125,1.5952898263931274,-0.47667521238327026,0.7141685485839844
1740006573438677500,9.837677490234375,1.9022243022918701,-0.05653947964310646,0.9055626392364502
1740006573448660700,9.84766064453125,2.175414800643921,0.31822293996810913,1.1063381433486938
1740006573458643500,9.8576435546875,2.4050886631011963,0.6619800329208374,1.2940083742141724
1740006573468625700,9.867625732421875,2.5916824340820312,0.9639281630516052,1.464559555053711
1740006573478608600,9.877608642578124,2.7305586338043213,1.2083832025527954,1.595281720161438
1740006573488591400,9.88759130859375,2.8030688762664795,1.423520803451538,1.695259928703308
1740006573498574600,9.89757470703125,2.8340842723846436,1.588661789894104,1.7473273277282715
1740006573508557600,9.9075576171875,2.8466105461120605,1.6988940238952637,1.7462455034255981
1740006573518540500,9.91754052734375,2.862550973892212,1.7605197429656982,1.7172051668167114
1740006573528523500,9.9275234375,2.9086344242095947,1.734755039215088,1.6761229038238525
1740006573538506500,9.937506591796875,2.9772868156433105,1.655449390411377,1.6356221437454224
1740006573548488700,9.94748876953125,3.0618488788604736,1.502060890197754,1.6096919775009155
1740006573558471400,9.957471435546875,3.1375732421875,1.3003790378570557,1.5692216157913208
1740006573568454400,9.967454345703125,3.1806342601776123,1.077768087387085,1.4966694116592407
1740006573578437600,9.977437744140625,3.200852155685425,0.8477860689163208,1.385597586631775
1740006573588420600,9.987420654296875,3.1998069286346436,0.6844725012779236,1.2335851192474365
1740006573598403300,9.9974033203125,3.189338445663452,0.5769782066345215,1.0436577796936035
1740006573608386600,10.007386474609374,3.138666868209839,0.57724529504776,0.8363256454467773
1740006573618369500,10.01736962890625,3.076432228088379,0.6563084721565247,0.6433340907096863
1740006573628351500,10.0273515625,3.0137076377868652,0.7842957377433777,0.4342348873615265
1740006573638334500,10.03733447265625,2.9585013389587402,0.9186297059059143,0.21118193864822388
1740006573648317700,10.047317626953125,2.9483399391174316,1.051501989364624,-0.026388008147478104
1740006573658300700,10.05730078125,2.9912500381469727,1.150240421295166,-0.22503572702407837
1740006573668283400,10.067283447265625,3.0366954803466797,1.162498116493225,-0.37817466259002686
1740006573678266600,10.0772666015625,3.0522897243499756,1.132440447807312,-0.5098679065704346
1740006573688249600,10.08724951171875,3.0100197792053223,1.0813345909118652,-0.6250799894332886
1740006573698232300,10.097232421875,2.8999154567718506,1.024847149848938,-0.7207356691360474
1740006573708214500,10.107214599609375,2.733119010925293,0.9431596994400024,-0.7940168380737305
1740006573718197500,10.117197509765624,2.5319464206695557,0.8717682361602783,-0.8528372645378113
1740006573728180500,10.127180419921874,2.3584461212158203,0.8586508631706238,-0.907407820224762
1740006573738163500,10.13716357421875,2.239595890045166,0.8995962142944336,-0.975755512714386
1740006573748146400,10.147146484375,2.185516834259033,0.9344031810760498,-1.0464938879013062
1740006573758129700,10.157129638671876,2.1790499687194824,0.9226298332214355,-1.1029773950576782
1740006573768112400,10.1671123046875,2.2074084281921387,0.8455845713615417,-1.125868320465088
1740006573778095400,10.177095458984375,2.2324490547180176,0.6885290145874023,-1.0986131429672241
1740006573788078600,10.18707861328125,2.220930337905884,0.4805375039577484,-1.0196757316589355
1740006573798060500,10.197060546875,2.160167694091797,0.27693939208984375,-0.8988582491874695
1740006573808043500,10.20704345703125,2.063354015350342,0.12625746428966522,-0.7597043514251709
1740006573818026500,10.217026611328125,1.943385362625122,0.03714719042181969,-0.6149293184280396
1740006573828009700,10.227009765625,1.806655764579773,-0.005359789822250605,-0.4681777358055115
1740006573837992400,10.236992431640624,1.6521354913711548,-0.03390992432832718,-0.3302038013935089
1740006573847975400,10.246975341796874,1.4720112085342407,-0.08560161292552948,-0.20188072323799133
1740006573857958700,10.256958740234374,1.2750695943832397,-0.17667892575263977,-0.08747655153274536
1740006573867941600,10.266941650390624,1.0861707925796509,-0.25485923886299133,0.017244266346096992
1740006573877923600,10.276923583984376,0.9022451639175415,-0.31654122471809387,0.09121029078960419
1740006573887906600,10.286906494140625,0.7229923009872437,-0.377800852060318,0.12313093990087509
1740006573897889500,10.2968896484375,0.5374019742012024,-0.42819491028785706,0.12869825959205627
1740006573907872800,10.306872802734375,0.34691354632377625,-0.46084898710250854,0.12089333683252335
1740006573917855500,10.31685546875,0.16151505708694458,-0.47552233934402466,0.09346428513526917
1740006573927838500,10.32683837890625,-0.012254882603883743,-0.4937455654144287,0.05273149907588959
1740006573937821700,10.33682177734375,-0.1637687385082245,-0.4970836639404297,0.02101118676364422
1740006573947804700,10.3468046875,-0.33242058753967285,-0.5119935870170593,0.021045008674263954
1740006573957786600,10.35678662109375,-0.5426949262619019,-0.5168205499649048,0.054100580513477325
1740006573967769600,10.36676953125,-0.7938722968101501,-0.4977925717830658,0.1123465746641159
1740006573977752600,10.376752685546874,-1.0990145206451416,-0.4503055214881897,0.17804203927516937
1740006573987735600,10.386735595703126,-1.4282803535461426,-0.39084646105766296,0.2531075179576874
1740006573997718500,10.396718505859376,-1.7112016677856445,-0.3146049380302429,0.3280576765537262
1740006574007701800,10.40670166015625,-1.897207260131836,-0.26850560307502747,0.3543452024459839
1740006574017684700,10.416684814453125,-1.9727901220321655,-0.28804200887680054,0.2819817066192627
1740006574027667500,10.42666748046875,-1.9721760749816895,-0.34708961844444275,0.11252903938293457
1740006574037649700,10.436649658203125,-1.9341119527816772,-0.363507479429245,-0.14102990925312042
1740006574047632600,10.446632568359375,-1.9027918577194214,-0.3326486349105835,-0.45578521490097046
1740006574057615600,10.45661572265625,-1.9008221626281738,-0.28776657581329346,-0.7723063230514526
1740006574067598600,10.4665986328125,-1.9286104440689087,-0.3168879747390747,-1.035520076751709
1740006574077581600,10.47658154296875,-1.9624779224395752,-0.45425450801849365,-1.2058757543563843
1740006574087564800,10.486564697265624,-2.0084800720214844,-0.6082757711410522,-1.2712068557739258
1740006574097547500,10.496547607421874,-2.083232879638672,-0.7359431385993958,-1.241196632385254
1740006574107530500,10.506530517578126,-2.1857759952545166,-0.8320595622062683,-1.1284635066986084
1740006574117512700,10.5165126953125,-2.2967469692230225,-0.8896520733833313,-0.934433102607727
1740006574127495400,10.526495361328125,-2.4220666885375977,-0.9430606961250305,-0.7082868218421936
1740006574137478700,10.536478759765625,-2.54453706741333,-0.9622902870178223,-0.46648988127708435
1740006574147461600,10.546461669921875,-2.636465072631836,-0.9229825735092163,-0.24727392196655273
1740006574157444600,10.556444580078125,-2.67370343208313,-0.8307068943977356,-0.06053313612937927
1740006574167427600,10.566427490234375,-2.669957160949707,-0.7123664021492004,0.09750603139400482
1740006574177410600,10.57641064453125,-2.6496615409851074,-0.5828189253807068,0.21242830157279968
1740006574187393800,10.586393798828125,-2.626574754714966,-0.4411236047744751,0.29080647230148315
1740006574197376500,10.59637646484375,-2.6216816902160645,-0.30733561515808105,0.31951063871383667
1740006574207358700,10.606358642578124,-2.6478986740112305,-0.18632742762565613,0.3086113929748535
1740006574217341700,10.616341796875,-2.6973369121551514,-0.08285507559776306,0.27222752571105957
1740006574227324700,10.62632470703125,-2.783790111541748,0.0007327618077397346,0.22092866897583008
1740006574237307600,10.6363076171875,-2.90177845954895,0.061204832047224045,0.16231557726860046
1740006574247290600,10.64629052734375,-3.0722358226776123,0.06743262708187103,0.0880645141005516
1740006574257273600,10.656273681640625,-3.290414571762085,0.01021778117865324,0.013012891635298729
1740006574267256600,10.666256591796875,-3.529493808746338,-0.03169930726289749,-0.07229428738355637
1740006574277239600,10.676239501953125,-3.746126413345337,-0.007480446249246597,-0.1428927779197693
1740006574287221800,10.6862216796875,-3.918351888656616,0.05978168174624443,-0.18599656224250793
1740006574297204500,10.69620458984375,-4.0426459312438965,0.03562990576028824,-0.2154386192560196
1740006574307187500,10.7061875,-4.163394451141357,-0.1585502326488495,-0.18238933384418488
1740006574317170700,10.716170654296874,-4.280702114105225,-0.556407630443573,-0.07314419001340866
1740006574327153700,10.726153564453124,-4.378864288330078,-1.1210838556289673,0.1352878361940384
1740006574337136400,10.736136474609374,-4.447336196899414,-1.7949187755584717,0.45528843998908997
1740006574347119600,10.74611962890625,-4.413330554962158,-2.474609136581421,0.812703549861908
1740006574357102600,10.7561025390625,-4.184940338134766,-2.9609861373901367,1.0985894203186035
1740006574367084500,10.76608447265625,-3.7097280025482178,-3.059770345687866,1.2842192649841309
1740006574377067500,10.776067626953125,-3.035553216934204,-2.8786630630493164,1.420696496963501
1740006574387050800,10.78605078125,-2.344452142715454,-2.544296979904175,1.592629075050354
1740006574397033700,10.79603369140625,-1.7367252111434937,-2.092679262161255,1.84962797164917
1740006574407016400,10.806016357421875,-1.217568039894104,-1.6104371547698975,2.1431355476379395
1740006574416999700,10.815999755859375,-0.7594270706176758,-1.1883375644683838,2.3702774047851562
1740006574426982700,10.825982666015625,-0.38177168369293213,-0.7912237644195557,2.452183723449707
1740006574436965600,10.835965576171875,-0.08338034152984619,-0.2467832863330841,2.370943784713745
1740006574446947600,10.845947509765624,0.20586903393268585,0.48237529397010803,2.159456491470337
1740006574456930600,10.8559306640625,0.5315995216369629,1.241557240486145,1.8805499076843262
1740006574466913800,10.865913818359376,0.8652526140213013,1.902374029159546,1.6008704900741577
1740006574476896500,10.875896484375,1.1807937622070312,2.423698663711548,1.3723688125610352
1740006574486879500,10.88587939453125,1.4257785081863403,2.8143653869628906,1.194125771522522
1740006574496862700,10.89586279296875,1.606452226638794,3.0891103744506836,1.0656496286392212
1740006574506845700,10.905845703125,1.718813419342041,3.2911696434020996,0.9958943128585815
1740006574516828400,10.915828369140625,1.7603492736816406,3.396300792694092,0.9760586619377136
1740006574526810600,10.925810546875,1.7322579622268677,3.4334876537323,0.9962776303291321
1740006574536793600,10.935793701171875,1.6659296751022339,3.397503614425659,1.035745620727539
1740006574546776600,10.945776611328125,1.5984151363372803,3.335034132003784,1.071764349937439
1740006574556759600,10.955759521484374,1.5595066547393799,3.262507438659668,1.0950186252593994
1740006574566742800,10.96574267578125,1.5859715938568115,3.160968542098999,1.104246735572815
1740006574576725800,10.975725830078124,1.6676558256149292,2.9999194145202637,1.0962865352630615
1740006574586708500,10.98570849609375,1.7676432132720947,2.771965265274048,1.0800013542175293
1740006574596691700,10.995691650390626,1.8661280870437622,2.4770143032073975,1.0769612789154053
1740006574606673700,11.005673583984375,1.9448813199996948,2.1347758769989014,1.06560480594635
1740006574616656600,11.01565673828125,2.0073418617248535,1.814138412475586,1.0182493925094604
1740006574626639600,11.0256396484375,2.07299542427063,1.592511773109436,0.9275026917457581
1740006574636622600,11.03562255859375,2.15305495262146,1.4626212120056152,0.8138062357902527
1740006574646605600,11.04560546875,2.2338204383850098,1.3999087810516357,0.6791379451751709
1740006574656588500,11.055588623046875,2.3170597553253174,1.3898206949234009,0.5703139901161194
1740006574666571500,11.065571533203125,2.41082501411438,1.4311583042144775,0.5052995681762695
1740006574676554800,11.0755546875,2.520688772201538,1.5037550926208496,0.4916239082813263
1740006574686536400,11.085536376953126,2.6515164375305176,1.575191617012024,0.48974692821502686
1740006574696519700,11.095519775390626,2.77721905708313,1.6181557178497314,0.46502089500427246
1740006574706502700,11.105502685546876,2.8887946605682373,1.6207906007766724,0.384469598531723
1740006574716485400,11.1154853515625,2.969809055328369,1.6264334917068481,0.26135867834091187
1740006574726468600,11.125468505859375,3.0181214809417725,1.6648093461990356,0.11777513474225998
1740006574736451600,11.13545166015625,3.0243947505950928,1.7340933084487915,-0.04720441624522209
1740006574746434800,11.145434814453125,2.983997106552124,1.795311689376831,-0.21858228743076324
1740006574756417500,11.15541748046875,2.9058306217193604,1.8434666395187378,-0.39215269684791565
1740006574766399700,11.165399658203125,2.8085434436798096,1.8804086446762085,-0.5684155821800232
1740006574776382700,11.1753828125,2.704172372817993,1.884502649307251,-0.7438636422157288
1740006574786365400,11.185365478515624,2.5907211303710938,1.8364789485931396,-0.9334385991096497
1740006574796348700,11.1953486328125,2.4695122241973877,1.7590135335922241,-1.1445391178131104
1740006574806331600,11.20533154296875,2.3383607864379883,1.695271372795105,-1.3687388896942139
1740006574816314600,11.215314697265624,2.203383207321167,1.6463392972946167,-1.6201921701431274
1740006574826297600,11.225297607421876,2.0689210891723633,1.5891779661178589,-1.8772050142288208
1740006574836280600,11.235280517578126,1.9355494976043701,1.4920170307159424,-2.1287150382995605
1740006574846263600,11.245263671875,1.8002982139587402,1.352617621421814,-2.3597986698150635
1740006574856246000,11.25524609375,1.6346973180770874,1.1573331356048584,-2.5495028495788574
1740006574866229000,11.26522900390625,1.4380258321762085,0.9067427515983582,-2.6742866039276123
1740006574876212200,11.275212158203125,1.2221232652664185,0.6746265292167664,-2.725249767303467
1740006574886195000,11.28519482421875,1.001712679862976,0.4750121831893921,-2.7022621631622314
1740006574896178000,11.295177978515625,0.773201048374176,0.2981967329978943,-2.613481044769287
1740006574906161200,11.3051611328125,0.557270884513855,0.1605437844991684,-2.4716062545776367
1740006574916144000,11.31514404296875,0.3437667489051819,0.07866489142179489,-2.243864059448242
1740006574926126800,11.325126953125,0.1269785314798355,0.03727297484874725,-1.9225941896438599
1740006574936109000,11.335109130859376,-0.11662853509187698,-0.02055070921778679,-1.5105106830596924
1740006574946092000,11.345092041015626,-0.36463916301727295,-0.13265195488929749,-1.0306793451309204
1740006574956075000,11.355074951171876,-0.5859846472740173,-0.3035038709640503,-0.4954017996788025
1740006574966058000,11.36505810546875,-0.7847079038619995,-0.529542088508606,0.09169154614210129
1740006574976041000,11.375041015625,-0.9805841445922852,-0.8074139356613159,0.7021699547767639
1740006574986024200,11.385024169921875,-1.1806256771087646,-1.1115939617156982,1.332627773284912
1740006574996007000,11.3950068359375,-1.3365920782089233,-1.412947654724121,1.9454823732376099
1740006575005990100,11.404990234375,-1.4037981033325195,-1.6472302675247192,2.5086159706115723
1740006575015972000,11.41497216796875,-1.4000803232192993,-1.7686244249343872,2.994553565979004
1740006575025955000,11.424955078125,-1.3390710353851318,-1.8181687593460083,3.3852713108062744
1740006575035938000,11.43493798828125,-1.2397880554199219,-1.8513578176498413,3.6334848403930664
1740006575045921000,11.444921142578124,-1.1805750131607056,-1.825619101524353,3.7812273502349854
1740006575055904000,11.454904052734374,-1.1711503267288208,-1.7228693962097168,3.8117594718933105
1740006575065887000,11.464886962890626,-1.1592692136764526,-1.5506336688995361,3.7149124145507812
1740006575075870000,11.474869873046876,-1.128048062324524,-1.3198658227920532,3.4715590476989746
1740006575085853200,11.484853271484376,-1.0981225967407227,-1.0436068773269653,3.060305595397949
1740006575095835000,11.4948349609375,-1.0833739042282104,-0.7452762722969055,2.448598623275757
1740006575105818000,11.504818115234375,-1.108293890953064,-0.43677300214767456,1.646451473236084
1740006575115801000,11.514801025390625,-1.1651487350463867,-0.18762707710266113,0.7255004048347473
1740006575125783800,11.52478369140625,-1.251493215560913,-0.11814946681261063,-0.22088021039962769
1740006575135767000,11.53476708984375,-1.3312424421310425,-0.33168813586235046,-1.0858137607574463
1740006575145750000,11.54475,-1.4003567695617676,-0.7899677753448486,-1.827201008796692
1740006575155733000,11.55473291015625,-1.4384276866912842,-1.3462905883789062,-2.4744536876678467
1740006575165716000,11.564716064453124,-1.4898197650909424,-1.8731664419174194,-3.063458204269409
1740006575175698000,11.574697998046876,-1.623061180114746,-2.2892274856567383,-3.5898962020874023
1740006575185681200,11.58468115234375,-1.9222506284713745,-2.536795139312744,-3.9898552894592285
1740006575195664000,11.594663818359376,-2.394338369369507,-2.6114654541015625,-4.23098611831665
1740006575205647000,11.604647216796875,-2.995421886444092,-2.494636058807373,-4.297702312469482
1740006575215630000,11.614630126953125,-3.6090385913848877,-2.234503746032715,-4.194026470184326
1740006575225613000,11.624613037109375,-4.119437217712402,-1.9546514749526978,-3.958230972290039
1740006575235596000,11.634595947265625,-4.455862045288086,-1.7146580219268799,-3.6625864505767822
1740006575245579000,11.6445791015625,-4.544251441955566,-1.534609079360962,-3.3197245597839355
1740006575255561200,11.654561279296875,-4.409638404846191,-1.4006659984588623,-2.9773316383361816
1740006575265544000,11.6645439453125,-4.0762939453125,-1.3025593757629395,-2.6144232749938965
1740006575275527000,11.67452685546875,-3.6343765258789062,-1.207736611366272,-2.239274501800537
1740006575285510100,11.68451025390625,-3.2079882621765137,-1.0692293643951416,-1.8879053592681885
1740006575295493000,11.6944931640625,-2.8836705684661865,-0.8333260416984558,-1.5964761972427368
1740006575305475800,11.704475830078126,-2.673035144805908,-0.5026165843009949,-1.356695294380188
1740006575315459000,11.714458984375,-2.5454962253570557,-0.1367036998271942,-1.147460699081421
1740006575325442000,11.724442138671876,-2.468926429748535,0.21049021184444427,-0.9469429850578308
1740006575335424000,11.734424072265625,-2.4120726585388184,0.5089039206504822,-0.7371217608451843
1740006575345407000,11.744406982421875,-2.3423655033111572,0.7464144825935364,-0.5107613205909729
1740006575355390000,11.754389892578125,-2.2227416038513184,0.9386375546455383,-0.2604716718196869
1740006575365373200,11.764373291015625,-2.0653114318847656,1.1094430685043335,-0.02041007950901985
1740006575375356000,11.77435595703125,-1.895681381225586,1.2006763219833374,0.18763130903244019
1740006575385339100,11.784339111328125,-1.7339345216751099,1.1890734434127808,0.3650851547718048
1740006575395322000,11.794322021484374,-1.5985623598098755,1.0939229726791382,0.5082986354827881
1740006575405304800,11.804304931640624,-1.4920638799667358,0.9828795790672302,0.6065189838409424
1740006575415287000,11.814287109375,-1.3914637565612793,0.8899707198143005,0.6595524549484253
1740006575425270000,11.82427001953125,-1.2586108446121216,0.8267464637756348,0.6806244254112244
1740006575435253200,11.834253173828126,-1.0540095567703247,0.7166649103164673,0.7006518840789795
1740006575445236000,11.844236083984375,-0.783595621585846,0.4701363444328308,0.7599162459373474
1740006575455219000,11.854218994140625,-0.4791170656681061,0.12222767621278763,0.8423111438751221
1740006575465202200,11.8642021484375,-0.17009173333644867,-0.25088605284690857,0.9344170689582825
1740006575475185000,11.874184814453125,0.10639950633049011,-0.5692557692527771,1.0145633220672607
1740006575485167900,11.88416796875,0.3302347660064697,-0.821794331073761,1.0580564737319946
1740006575495151000,11.894151123046875,0.518575131893158,-1.007021427154541,1.0748125314712524
1740006575505132800,11.9041328125,0.711566150188446,-1.0213255882263184,1.066008448600769
1740006575515116000,11.914115966796874,0.941988468170166,-0.8231142163276672,1.0490646362304688
1740006575525099000,11.92409912109375,1.2357256412506104,-0.4859442114830017,1.0155402421951294
1740006575535082000,11.93408203125,1.5676138401031494,-0.056151024997234344,0.9715656638145447
1740006575545065000,11.94406494140625,1.917691707611084,0.4003068208694458,0.9498376250267029
1740006575555048000,11.9540478515625,2.2575581073760986,0.8117769360542297,0.9683631062507629
1740006575565031200,11.96403125,2.568378210067749,1.1824297904968262,1.0058413743972778
1740006575575014100,11.97401416015625,2.813537359237671,1.46016263961792,1.0429770946502686
1740006575584996000,11.98399609375,2.969775676727295,1.6172192096710205,1.0641142129898071
1740006575594979000,11.99397900390625,3.0168912410736084,1.6996980905532837,1.0319719314575195
1740006575604962000,12.003962158203125,2.9890074729919434,1.7548418045043945,0.9503090977668762
1740006575614945000,12.013945068359375,2.9238014221191406,1.7886980772018433,0.8240893483161926
1740006575624928000,12.023927978515625,2.887693405151367,1.8031721115112305,0.6085935831069946
1740006575634911000,12.033910888671874,2.9254887104034424,1.7347277402877808,0.35319802165031433
1740006575644894200,12.043894287109374,3.0091753005981445,1.575538158416748,0.10802476108074188
1740006575654877000,12.053876953125,3.1071815490722656,1.344805121421814,-0.11556492000818253
1740006575664859100,12.063859130859376,3.1898341178894043,1.1016169786453247,-0.3101178705692291
1740006575674842000,12.073842041015626,3.246124505996704,0.8641842007637024,-0.47713977098464966
1740006575684824800,12.083824951171875,3.3099632263183594,0.633030116558075,-0.5791985392570496
1740006575694808000,12.09380810546875,3.3762435913085938,0.4121246635913849,-0.5901414155960083
1740006575704791000,12.103791015625,3.434938907623291,0.17223158478736877,-0.532795786857605
1740006575714774000,12.11377392578125,3.459465980529785,-0.05951003357768059,-0.4451543986797333
1740006575724757000,12.123757080078125,3.458754062652588,-0.272731214761734,-0.38666489720344543
1740006575734740000,12.133739990234375,3.47031307220459,-0.3818052411079407,-0.36105409264564514
1740006575744722200,12.14372216796875,3.534026861190796,-0.34335869550704956,-0.3403284549713135
1740006575754705000,12.153704833984374,3.6390366554260254,-0.18433496356010437,-0.30348360538482666
1740006575764688100,12.163688232421874,3.7569799423217773,0.0047134472988545895,-0.23426763713359833
1740006575774671000,12.173671142578126,3.8590312004089355,0.1900140643119812,-0.1326906830072403
1740006575784654000,12.183654052734376,3.940662145614624,0.3616589307785034,-0.005122694186866283
1740006575794637000,12.193636962890626,4.011318683624268,0.4972465932369232,0.11970632523298264
1740006575804620000,12.2036201171875,4.068291664123535,0.5682785511016846,0.22703401744365692
1740006575814602200,12.213602294921875,4.074855804443359,0.5598352551460266,0.28570693731307983
1740006575824585000,12.2235849609375,3.9946067333221436,0.5245081782341003,0.2885996401309967
1740006575834568000,12.23356787109375,3.8294436931610107,0.5039295554161072,0.21652227640151978
1740006575844551200,12.24355126953125,3.584970474243164,0.5058915019035339,0.07284525781869888
1740006575854533600,12.25353369140625,3.276038408279419,0.5292288661003113,-0.12788166105747223
1740006575864516600,12.2635166015625,2.9367008209228516,0.5425747632980347,-0.3520875871181488
1740006575874499600,12.27349951171875,2.588650703430176,0.5355032682418823,-0.5710358023643494
1740006575884481800,12.283481689453126,2.2363576889038086,0.515289306640625,-0.7585833072662354
1740006575894464800,12.29346484375,1.9126992225646973,0.47931504249572754,-0.9072916507720947
1740006575904447500,12.303447509765626,1.6312326192855835,0.41202256083488464,-1.008056879043579
1740006575914430700,12.3134306640625,1.39542555809021,0.2918499708175659,-1.0681425333023071
1740006575924413700,12.32341357421875,1.1650402545928955,0.14020398259162903,-1.0871002674102783
1740006575934396700,12.333396728515625,0.906566321849823,0.013696311041712761,-1.0665583610534668
1740006575944379600,12.343379638671875,0.6032604575157166,-0.04263433814048767,-1.010801911354065
1740006575954362600,12.353362548828125,0.26034554839134216,-0.02612093649804592,-0.9421341419219971
1740006575964344800,12.3633447265625,-0.09535368531942368,0.02226257510483265,-0.8759340643882751
1740006575974327600,12.37332763671875,-0.4857166111469269,0.11820586025714874,-0.8266769051551819
1740006575984310500,12.383310546875,-0.9128814935684204,0.22802717983722687,-0.7830439209938049
1740006575994293800,12.393293701171874,-1.3561103343963623,0.34732434153556824,-0.7361452579498291
1740006576004276700,12.40327685546875,-1.801311731338501,0.33794817328453064,-0.6738011837005615
1740006576014259500,12.413259521484376,-2.194408416748047,0.18028321862220764,-0.5878971219062805
1740006576024242700,12.42324267578125,-2.5244109630584717,0.014836473390460014,-0.4901231825351715
1740006576034225700,12.4332255859375,-2.7914328575134277,-0.0798531249165535,-0.39494314789772034
1740006576044207600,12.44320751953125,-2.9768481254577637,-0.09835916012525558,-0.32238268852233887
1740006576054190600,12.453190673828125,-3.0913853645324707,-0.07364389300346375,-0.2786973714828491
1740006576064173800,12.463173828125,-3.131417751312256,-0.02169547788798809,-0.2551731467247009
1740006576074156800,12.47315673828125,-3.136564016342163,0.0751856192946434,-0.2455102652311325
1740006576084139500,12.483139404296875,-3.1180214881896973,0.2127954214811325,-0.25492772459983826
1740006576094122800,12.493122802734375,-3.095691680908203,0.3524288535118103,-0.2937149405479431
1740006576104105700,12.503105712890624,-3.105217218399048,0.513690173625946,-0.3681902289390564
1740006576114088400,12.51308837890625,-3.1534485816955566,0.6681907773017883,-0.46481186151504517
1740006576124070700,12.523070556640626,-3.200193405151367,0.7967053651809692,-0.5472447276115417
1740006576134053600,12.5330537109375,-3.2174291610717773,0.7582257390022278,-0.5829058885574341
1740006576144036600,12.54303662109375,-3.206752061843872,0.4788646697998047,-0.6002547740936279
1740006576154019600,12.55301953125,-3.182568311691284,0.03857320919632912,-0.653286337852478
1740006576164002600,12.56300244140625,-3.1489627361297607,-0.4127686619758606,-0.7846342921257019
1740006576173985800,12.57298583984375,-3.1070380210876465,-0.782992422580719,-0.9971944093704224
1740006576183968500,12.582968505859375,-3.0688600540161133,-1.012773871421814,-1.266484260559082
