time,seconds_elapsed,z,y,x
1740247032614355000,0.02635498046875,0.08345394375622273,-0.8802209922850132,-0.4444732213966548
1740247032624336600,0.036336669921875,-0.3453197503358125,-0.8829802278652786,-0.296828325824067
1740247032634317800,0.04631787109375,-0.7176976034671068,-0.7705044800251721,-0.24128183170165865
1740247032644298800,0.056298828125,-1.0585668041348457,-0.6765636290460825,-0.4503516119107604
1740247032654281000,0.066281005859375,-1.3861241032868623,-0.7601496747493743,-0.5995734379438683
1740247032664262000,0.076261962890625,-1.7235370260208844,-0.9314131271228193,-0.626750089085102
1740247032674242800,0.086242919921875,-1.1291413925737142,-0.5955816283613443,-0.4225326442779973
1740247032684224800,0.096224853515625,-0.8838397673040628,-0.8555886553317308,-0.7163399052478373
1740247032694205700,0.106205810546875,-1.7401169894218445,-1.4544175950512288,-1.1253053946074099
1740247032704187000,0.116186767578125,-1.2881424524843692,-0.44425329503566025,-0.2170025825023651
1740247032714168800,0.1261689453125,-0.4509674057215452,0.5848597433388233,0.8161857424870133
1740247032724150000,0.13614990234375,-0.4188637099742889,0.8337298747450113,1.577606460085511
1740247032734131000,0.146130859375,-1.0886550684064626,0.876573283432424,2.2525293361872434
1740247032744112600,0.156112548828125,-1.7350678893387317,1.1170891357302666,3.0554294806435705
1740247032754093800,0.16609375,-2.1812860547065736,1.5747043089032173,3.5025530704185366
1740247032764074800,0.17607470703125,-2.2058295443326235,1.941219407480955,3.45637788695991
1740247032774057000,0.186056884765625,-1.5501953060686586,2.0726228508919475,2.8737048400104044
1740247032784038000,0.196037841796875,-0.5554419256746769,2.0037638341993094,2.2537194227546453
1740247032794018800,0.206018798828125,0.5726572643697262,2.0736650534212586,2.0667728096894917
1740247032804000800,0.216000732421875,1.6729583469063043,2.220496075327694,2.2706638355538247
1740247032813981700,0.225981689453125,2.648299755343795,2.419208967901766,2.5466309404611587
1740247032823963000,0.235962890625,3.490239240029454,2.8257199767813086,2.3916692190691826
1740247032833944800,0.24594482421875,4.219041005834937,3.2084006127402183,1.8427230851545928
1740247032843925800,0.25592578125,4.7229561578899615,3.48463367510736,1.3437423207618295
1740247032853907000,0.265906982421875,5.0752363948881625,3.807547532367706,1.1440277037993072
1740247032863888600,0.275888671875,5.429058016109466,4.095015689976513,1.0583186745926738
1740247032873869800,0.285869873046875,5.945994562301039,4.389055627191066,0.9618272623479366
1740247032883850800,0.295850830078125,6.553843551561236,4.758891102363169,0.7114937803909183
1740247032893833000,0.3058330078125,6.984441538470983,5.019787479388714,0.28885259770452976
1740247032903814000,0.31581396484375,7.179331657886505,5.177172336274385,-0.167550277069211
1740247032913795800,0.3257958984375,7.193061492553353,5.361793575131893,-0.6423840038076043
1740247032923776800,0.33577685546875,7.066070604887604,5.460709291914105,-1.0690817684084177
1740247032933757700,0.3457578125,6.870542772090435,5.612353559321165,-1.4794479914113878
1740247032943740000,0.355739990234375,6.5183899608641855,5.890320021352172,-2.0306886660039423
1740247032953720800,0.365720947265625,6.050791738337278,6.175279703271388,-2.649932909503579
1740247032963701800,0.37570166015625,5.594121152538061,6.4353767466127865,-3.2638357919752594
1740247032973683700,0.38568359375,5.115231720668077,6.715441642227768,-3.816861888679862
1740247032983664600,0.39566455078125,4.710341006466746,6.9701324426114555,-4.222495530202985
1740247032993645800,0.405645751953125,4.420800426498055,7.203965748405456,-4.3963060367107385
1740247033003627800,0.415627685546875,4.1473768685936925,7.478118789628148,-4.336329414653778
1740247033013609000,0.42560888671875,3.920049875953793,7.760095656344294,-4.120028842940926
1740247033023590000,0.43558984375,3.6544022127479314,8.098522724556922,-3.635620355388522
1740247033033571800,0.44557177734375,3.183237529911101,8.303684647139907,-2.846953611207008
1740247033043552800,0.455552734375,2.5579025683209298,8.520031396082043,-2.034238467440009
1740247033053533700,0.46553369140625,1.846022418960929,8.983331044632196,-1.143662669879198
1740247033063516000,0.475515869140625,1.0959440563708542,9.565880172941089,-0.2773006915986538
1740247033073496800,0.485496826171875,0.24277239905297754,10.138170942085981,0.953769628098607
1740247033083477800,0.495477783203125,-0.6707881143845618,10.692690492218732,2.749552975162864
1740247033093460000,0.5054599609375,-1.4411445642411709,11.125962666773795,4.859745385992527
1740247033103441000,0.51544091796875,-1.9602982019603252,11.450683281195163,7.389982241013645
1740247033113422000,0.525422119140625,-2.2872277246028183,11.599914057719706,9.948471377050875
1740247033123404000,0.535404052734375,-2.5129566343963146,11.372628566133976,12.2082166359663
1740247033133385200,0.54538525390625,-2.671875276720524,10.500092867654562,13.92642925209403
1740247033143366100,0.5553662109375,-2.974760491430759,9.121337831830978,15.32634164223671
1740247033153348000,0.56534814453125,-3.4356127468287943,7.72964791111052,16.22260425326228
1740247033163329000,0.5753291015625,-3.8661715707719324,6.167305655652284,16.078247220253942
1740247033173310000,0.58531005859375,-4.49621134905219,4.578859821644425,15.738481012392043
1740247033183292200,0.595292236328125,-5.644264947366715,3.108475718915462,15.942022055774926
1740247033193273000,0.605273193359375,-7.143226909804344,1.5511714576244353,16.518034475791453
1740247033203254000,0.61525390625,-8.41608353035152,0.1000987890869379,16.965318809086085
1740247033213236000,0.625236083984375,-9.147904351717234,-1.102992805838585,16.980192553091047
1740247033223217000,0.635216796875,-9.001775048339367,-2.142915699779987,16.607312011134624
1740247033233198000,0.645197998046875,-8.180801194792986,-3.0036306120842693,15.736708742022513
1740247033243180000,0.655179931640625,-7.070551549693942,-3.3948265629321335,14.606003753393887
1740247033253161200,0.6651611328125,-5.984547872579097,-3.378717724174261,13.161298281800747
1740247033263143200,0.67514306640625,-5.039655378419161,-3.42607218054533,11.530150201141833
1740247033273124000,0.6851240234375,-4.140134642380476,-3.7753058894544838,9.872135156345367
1740247033283105000,0.69510498046875,-3.1168548402041196,-4.154709695699811,8.248647235050797
1740247033293087000,0.7050869140625,-2.190442005586624,-4.268060180547833,7.061139578226208
1740247033303068200,0.715068115234375,-1.5877486455239354,-4.295023590797186,6.3123892493695015
1740247033313049000,0.725049072265625,-1.2629936904415489,-4.523771556150913,5.868872159653901
1740247033323031300,0.73503125,-1.0443142607681453,-4.972248898622393,5.724716786697506
1740247033333012200,0.74501220703125,-0.7861079996094107,-5.741875426769257,6.027710137957334
1740247033342993000,0.754992919921875,-0.3726093237996101,-6.69048489562571,6.6598202927708625
1740247033352975000,0.76497509765625,0.072273647441715,-7.568279537546634,7.382761057588458
1740247033362956000,0.7749560546875,0.25982261031419035,-8.427581660443543,8.108739582666754
1740247033372937000,0.78493701171875,-0.16516688906401394,-9.761156076803802,8.315366901627183
1740247033382919200,0.794919189453125,-1.1349275747597216,-11.308777732992171,8.105493148091435
1740247033392900000,0.804900146484375,-2.242736840969324,-12.338714654970168,8.169850761711597
1740247033402881000,0.814881103515625,-3.1651430702939627,-12.52180093934536,9.106451812866329
1740247033412863000,0.824863037109375,-3.88631770222187,-11.796989119958877,10.602144544374942
1740247033422844200,0.83484423828125,-4.2953602754056455,-10.729728137236833,11.411363662719726
1740247033432825000,0.8448251953125,-4.654697737438976,-9.728816818735003,11.00509990659952
1740247033442807300,0.854807373046875,-5.078725990569591,-8.932440815350413,9.910200390845537
1740247033452788200,0.864788330078125,-5.37602902123332,-8.096005773299932,8.418784021481871
1740247033462769200,0.87476904296875,-4.957083478194475,-6.97946901075542,6.885269801101088
1740247033472751000,0.884751220703125,-4.064935901272297,-5.624528565761446,5.694133432385325
1740247033482732000,0.89473193359375,-3.208718884909153,-4.369408092913031,4.838654082646966
1740247033492713000,0.904712890625,-2.5325860484957694,-3.2540713538080452,4.387970754563808
1740247033502695200,0.914695068359375,-1.896304453216493,-2.3024013283371922,4.131964779928326
1740247033512676000,0.924676025390625,-1.2836939486429095,-1.5118343034923076,4.027928651392459
1740247033522657300,0.9346572265625,-0.8245534655988216,-0.8166945687919854,4.056690050974488
1740247033532639000,0.944638916015625,-0.45358445635214445,-0.12220248434543608,4.191486643955111
1740247033542620200,0.9546201171875,-0.15683087626472114,0.6165259244516491,4.325354431653023
1740247033552602000,0.96460205078125,0.054298430290073155,1.522956586009264,4.526116073450446
1740247033562583000,0.9745830078125,0.1598395565614104,2.426154256995022,4.788371756130457
1740247033572564200,0.984564208984375,0.27673823541030285,3.2314383739784356,5.061013808268308
1740247033582546000,0.9945458984375,0.49241775261536236,4.122751253642142,5.284049825716019
1740247033592527000,1.004527099609375,0.7374247788526117,5.20715246399641,5.591272192847728
1740247033602508000,1.014508056640625,0.9300853856503963,6.415014342063665,6.017033845642208
1740247033612490200,1.024490234375,1.1101847631692885,7.602257794994116,6.493337352672219
1740247033622471200,1.03447119140625,1.3254817107975483,8.573485922893882,6.807919434916973
1740247033632452000,1.0444521484375,1.5641284082226454,9.263961172914504,6.777355954349041
1740247033642434000,1.05443408203125,1.7517817082524298,9.635593760636448,6.511555146408081
1740247033652415000,1.0644150390625,1.8203296131692825,9.784028418347239,6.048751756942272
1740247033662396200,1.074396240234375,1.8268392873242496,10.011496865284442,5.608755242568254
1740247033672378000,1.084378173828125,1.8136369836628436,10.559942063939571,5.420009617257118
1740247033682359000,1.094359130859375,1.750185817363113,11.472374888521433,5.566873664650321
1740247033692340200,1.10434033203125,1.5839114054486154,12.482604070466756,5.658811359113455
1740247033702322000,1.114322021484375,1.1487034405253826,12.906536754268407,5.164061510288715
1740247033712303000,1.12430322265625,0.49010874502062796,12.391744818890094,3.9670004276990887
1740247033722284000,1.134283935546875,-0.21770634685754775,11.334826366484165,2.5783026745319364
1740247033732266200,1.144266357421875,-0.8399719840049743,10.493687676787376,1.5086632722407578
1740247033742247200,1.1542470703125,-1.249533320365846,10.075241315442323,0.7141004557579755
1740247033752228000,1.16422802734375,-1.2546972790002822,9.821233821147679,-0.12510697361528872
1740247033762210000,1.1742099609375,-1.0987027074292302,9.598443887415527,-1.1160744057297707
1740247033772191000,1.18419091796875,-0.9221943401396274,9.474756132948398,-2.0472534318357707
1740247033782173200,1.194173095703125,-0.6898039266303181,9.697864631110429,-2.734857510334253
1740247033792154000,1.204154052734375,-0.18524989214986562,10.325489164942502,-3.5245296321660278
1740247033802135000,1.214135009765625,0.573724309079349,11.579047795301674,-4.407795983496308
1740247033812117000,1.224116943359375,0.9863637377113104,12.907183235478401,-5.367141365900635
1740247033822098000,1.234097900390625,0.6855795869335531,13.403079916250705,-6.547839342710375
1740247033832079000,1.2440791015625,-0.202658999851346,13.100802604305743,-7.7491820481419555
1740247033842061000,1.25406103515625,-1.1157941274836658,12.472660184079407,-8.591314425051213
1740247033852042200,1.264042236328125,-1.7620020734935997,11.724854442596435,-8.678576528918743
1740247033862023200,1.274023193359375,-2.1719737442210314,11.032773510944843,-7.890497229236364
1740247033872004900,1.2840048828125,-2.3311872778385876,10.502004254233837,-6.52710985841453
1740247033881986000,1.293986083984375,-2.0852106759168207,10.220502019292116,-5.15539889588356
1740247033891967000,1.303967041015625,-1.517516148521006,10.074992309117317,-4.041103774785995
1740247033901949200,1.31394921875,-1.017612862455845,9.732334471467137,-3.2941198710799213
1740247033911930000,1.32393017578125,-0.8081456438943744,9.090625882703065,-3.1172359484761953
1740247033921911000,1.3339111328125,-0.770483291106671,8.35686561770737,-3.48386912047565
1740247033931893000,1.34389306640625,-0.775266287599504,7.683928362464904,-4.1210348051130765
1740247033941874000,1.3538740234375,-0.8808943615019321,7.1016352547436945,-4.568047335729003
1740247033951855000,1.363855224609375,-1.1374249445334077,6.65057315647602,-4.692576217195391
1740247033961837000,1.373837158203125,-1.5104428491339086,6.421030825874209,-4.4667187125861645
1740247033971818000,1.38381787109375,-1.953295337460935,6.405990493130684,-3.98527492005825
1740247033981799200,1.393799072265625,-2.3021292333975434,6.303599209192395,-3.555637887135148
1740247033991781000,1.403781005859375,-2.576203656426072,6.177540633940696,-3.218899502661824
1740247034001762000,1.413761962890625,-2.7173163006857037,6.126360481801629,-2.813020361945033
1740247034011743000,1.423742919921875,-2.757926251232624,6.12561170926094,-2.280821949213743
1740247034021725200,1.43372509765625,-2.7261247533023356,6.087949794864654,-1.7348276508420706
1740247034031706000,1.4437060546875,-2.6211621575713155,5.826970707991719,-1.2294967867702244
1740247034041688000,1.45368798828125,-2.484716043817997,5.316246460443735,-0.8124766588360071
1740247034051669200,1.463669189453125,-2.319300002298504,4.892625619070231,-0.4524439080148935
1740247034061650000,1.47364990234375,-2.1155964618302883,4.6702872284978625,0.1496598155915737
1740247034071632100,1.483632080078125,-1.7501966310180723,4.626906936454772,0.8851514344245195
1740247034081613000,1.493613037109375,-1.272289195922762,4.675409686078131,1.6806699441969393
1740247034091593700,1.50359375,-0.7409459387160837,4.611597723641991,2.594562904459238
1740247034101576000,1.513575927734375,-0.2101671835243702,4.517171427233517,3.5706811424881217
1740247034111556900,1.523556884765625,0.2741790524467826,4.60835479619801,4.4767724890887735
1740247034121538000,1.5335380859375,0.6079577103316783,4.915320558220148,5.319354363331199
1740247034131519700,1.543519775390625,0.7134056053616106,5.156146499380469,6.183530229744314
1740247034141501000,1.5535009765625,0.6915877413071692,5.167867916834354,7.111814118930697
1740247034151481900,1.56348193359375,0.7658056546844542,5.157091671276092,8.326625377744437
1740247034161463800,1.5734638671875,0.9796062262751162,5.0985845372498035,9.710367554330825
1740247034171445000,1.583445068359375,0.9878080913007259,4.867013915690779,11.00648288539052
1740247034181426000,1.593426025390625,0.657747431025654,4.614461880901455,12.297590032899379
1740247034191407900,1.603407958984375,0.07070493682026863,4.147487927752733,13.44975398914218
1740247034201388800,1.613388916015625,-0.6866166748963296,3.458198672646284,14.330365442049503
1740247034211369700,1.62336962890625,-1.4470423901081084,2.4682132373064753,14.957164630973338
1740247034221352000,1.63335205078125,-2.0738295963332054,1.1893605912148952,15.419004728364943
1740247034231332900,1.643332763671875,-2.5031191309928893,-0.4051391360044479,15.649839436864852
1740247034241314800,1.653314697265625,-2.6725767029881475,-2.026949479475617,15.538193417847156
1740247034251295700,1.663295654296875,-2.743255628584325,-3.623960312733054,15.103083506470918
1740247034261276700,1.673276611328125,-2.795136037947237,-5.322237225291133,14.278639930987357
1740247034271259000,1.6832587890625,-2.870629962609708,-6.909357948175073,13.315298756945133
1740247034281239800,1.69323974609375,-2.828415791736543,-7.923159727910161,12.267681216847896
1740247034291221000,1.703220947265625,-2.6932150018692016,-8.350072888827324,11.21672254962921
1740247034301202700,1.71320263671875,-2.407230653077364,-8.328307631742954,9.994953726762533
1740247034311184000,1.723183837890625,-1.968761786662042,-8.168943583738804,8.679975289800762
1740247034321164800,1.733164794921875,-1.5303113326862454,-8.087779212224483,7.436750421929359
1740247034331146800,1.743146728515625,-1.062836298147589,-8.07946789547503,6.299326354178786
1740247034341128000,1.7531279296875,-0.6630043286405504,-8.1275477435112,5.417762715113163
1740247034351108900,1.76310888671875,-0.47850934651121496,-8.214649103859067,4.811335283088684
1740247034361090800,1.7730908203125,-0.4362229871846735,-8.326178218498825,4.443724205967784
1740247034371071700,1.78307177734375,-0.5188368268549441,-8.487644207218288,4.311845546260476
1740247034381052700,1.793052734375,-0.7738486758865416,-8.66265532168746,4.50050173972249
1740247034391035000,1.803034912109375,-1.182362549021095,-8.696494462925195,5.0054029802054165
1740247034401015800,1.813015869140625,-1.6017292400814591,-8.595863758918643,5.617538268482685
1740247034410997000,1.8229970703125,-1.9823582042075691,-8.43680132420957,6.281289177706837
1740247034420978700,1.832978759765625,-2.3019290346503256,-8.206106316441296,6.779003721556067
1740247034430959900,1.8429599609375,-2.4512347761072215,-7.922196435835957,6.95442049421668
1740247034440940800,1.85294091796875,-2.426650808340311,-7.580531116354465,6.840493670785427
1740247034450922800,1.8629228515625,-2.385117020946741,-7.322134447190165,6.554575957489013
1740247034460904000,1.872904052734375,-2.3415771544277666,-7.015811074724793,6.143138598123192
1740247034470885600,1.8828857421875,-2.2798645023584365,-6.651006871718168,5.68284105399847
1740247034480866800,1.89286669921875,-2.234453142879158,-6.218775730648637,5.348372368022799
1740247034490847700,1.90284765625,-2.147312619564682,-5.690698781761527,5.193976171559095
1740247034500830000,1.912829833984375,-2.03138790031448,-5.115045258185267,5.055725054210424
1740247034510811000,1.922810791015625,-1.879098905263096,-4.517795988872647,4.906784785065055
1740247034520791800,1.932791748046875,-1.6878478730022906,-3.915357918745279,4.731610004466772
1740247034530773800,1.942773681640625,-1.4745242712736129,-3.2578397664308545,4.529623204788566
1740247034540754700,1.952754638671875,-1.2818706787385046,-2.570830731216073,4.350432758808136
1740247034550735600,1.962735595703125,-1.0899510995663702,-1.85239838373363,4.232008039435744
1740247034560717800,1.9727177734375,-0.9135482384778558,-1.1330430761873722,4.048632416725159
1740247034570698800,1.98269873046875,-0.7274528354145586,-0.47050446536242957,3.87566888243556
1740247034580680000,1.992679931640625,-0.5435916211441159,0.19077040913701057,3.7988650442183016
1740247034590662000,2.002661865234375,-0.34579628180637956,0.8981330810725688,3.746291391894221
1740247034600642800,2.012642822265625,-0.18723872787952422,1.5585568917006254,3.6966771738976236
1740247034610623700,2.022623779296875,-0.06788885648623108,2.254710771879554,3.796454475945234
1740247034620606000,2.03260595703125,0.01679667489156127,3.0632933458864686,4.012632298061251
1740247034630587000,2.0425869140625,0.05769669442623853,3.953311217303574,4.33272583720386
1740247034640567800,2.05256787109375,0.13216302960664034,4.895086456225812,4.799612696591019
1740247034650550000,2.062550048828125,0.2397232406154275,5.948210484784841,5.299909658148884
1740247034660530700,2.07253076171875,0.23238223020285367,6.869988645339012,5.6949219524145125
1740247034670513000,2.082512939453125,0.1710249674424529,7.568968104332685,5.960024256697297
1740247034680493800,2.092493896484375,0.040843174780905246,8.04337951400578,6.050017246833443
1740247034690474800,2.102474853515625,-0.10981441967636346,8.33706376965046,5.980885258418321
1740247034700457000,2.11245703125,-0.20868512827306984,8.537152042230963,5.803568205094337
1740247034710438000,2.12243798828125,-0.2731321737423539,8.90812587378323,5.708796163988113
1740247034720418800,2.132418701171875,-0.40175767687261105,9.571219780403375,5.68892125069499
1740247034730400800,2.14240087890625,-0.7601873764112591,10.207211160564421,5.565720402961969
1740247034740381700,2.152381591796875,-1.1884238948866723,10.356752902734279,4.805968203097581
1740247034750363000,2.16236279296875,-1.6103797256574033,9.901322672384977,3.5261347292751073
1740247034760344800,2.1723447265625,-2.0259742047026754,9.310230172136425,2.2550825278013944
1740247034770326000,2.182325927734375,-2.340807923620939,8.955193914428353,1.063055347725749
1740247034780307000,2.192306884765625,-2.408132862614095,8.8136092687428,-0.07753039892613887
1740247034790289000,2.202288818359375,-2.2836659404680133,8.858317009997368,-1.1019488497436045
1740247034800269800,2.212269775390625,-2.068321062044799,9.014034225931763,-2.091335734668374
1740247034810250800,2.222250732421875,-1.8376771999418735,9.070772596719861,-3.1503672337055204
1740247034820233000,2.23223291015625,-1.648299414207041,9.004346944653987,-4.147572683426738
1740247034830214000,2.2422138671875,-1.5588140813320874,9.00676803432107,-4.85793103004694
1740247034840194800,2.25219482421875,-1.4920651886612175,9.192814922067523,-5.176724007984996
1740247034850176800,2.2621767578125,-1.4580790401682258,9.558992166993022,-5.235366751089692
1740247034860157700,2.27215771484375,-1.4724460036948321,9.843098446953297,-5.152503174442052
1740247034870140000,2.282139892578125,-1.6426269215285778,9.898169761312007,-4.990207749161124
1740247034880120800,2.292120849609375,-1.8792495657801627,9.816654676663875,-4.721363920262456
1740247034890102000,2.30210205078125,-2.0988225832924248,9.654353990685939,-4.342847418245673
1740247034900083700,2.312083740234375,-2.199165118007362,9.572639584073423,-3.9906823320597407
1740247034910065000,2.32206494140625,-2.1445848020359874,9.393150447407365,-3.9484792671024795
1740247034920045800,2.3320458984375,-1.9119772386446594,9.130664463102818,-4.293174163538217
1740247034930027800,2.34202783203125,-1.6136033638790248,8.770628789672255,-4.997571555927395
1740247034940009000,2.352009033203125,-1.388509829379618,8.312957502397895,-5.744259107035398
1740247034949990000,2.361989990234375,-1.1591279500365257,7.897183575132488,-6.382053737226128
1740247034959971800,2.371971923828125,-1.016383320660889,7.478519187122583,-6.850948429304361
1740247034969952800,2.381952880859375,-1.0307046914801001,7.016607193538547,-7.0881970964998
1740247034979933700,2.39193359375,-1.221571254467964,6.55282882156074,-7.033636069750785
1740247034989916000,2.401916015625,-1.5141723910510538,6.171541685786843,-6.768470052582025
1740247034999896800,2.411896728515625,-1.8066766431309282,5.830682421991229,-6.416138377657532
1740247035009878000,2.4218779296875,-2.0918796322867275,5.56191458093822,-5.947205107134581
1740247035019859700,2.431859619140625,-2.32307002235651,5.327791936808824,-5.392134352859855
1740247035029841000,2.4418408203125,-2.4416984476074575,5.107987740889191,-4.735564879572391
1740247035039821800,2.45182177734375,-2.4059645786643027,4.835170039923489,-4.086213667100668
1740247035049803800,2.4618037109375,-2.28518701255545,4.562546107964217,-3.5626515652894972
1740247035059785000,2.471784912109375,-2.215522670829296,4.376055275842547,-3.0274077935129404
1740247035069766700,2.4817666015625,-2.1772188052676618,4.287570644442737,-2.4512474894583223
1740247035079747800,2.491747802734375,-2.166147083894163,4.208795213891565,-1.8515408901214598
1740247035089728500,2.501728515625,-2.1635519528344274,4.060027086442709,-1.1650620162606238
1740247035099710700,2.511710693359375,-2.1280058615483344,3.871802270135283,-0.4110071512550115
1740247035109691600,2.521691650390625,-2.0734571097590027,3.5504952635496854,0.378944956561923
1740247035119672800,2.5316728515625,-1.857268035596609,3.189257520852983,1.3410235633224248
1740247035129654500,2.541654541015625,-1.2892775939941405,2.808417252063751,2.156718599683046
1740247035139635700,2.5516357421875,-0.4518447730779648,2.5400726048588753,2.9416876583904026
1740247035149616600,2.56161669921875,0.44066053124070165,2.484693831986189,3.6893326563537117
1740247035159598600,2.5715986328125,1.185445317467302,2.704051160921156,4.461768981224298
1740247035169579800,2.581579833984375,1.6647931606292723,2.979940232156217,5.371299070101976
1740247035179560700,2.591560791015625,1.8309435077726839,3.083910309718549,6.406121426033973
1740247035189542700,2.601542724609375,1.654469335013628,2.9704356139689683,7.787901362636685
1740247035199523600,2.611523681640625,1.198852057659626,2.63032979888916,9.52456441221237
1740247035209504500,2.62150439453125,0.7658440869987011,2.070951702809334,11.05971061770916
1740247035219486700,2.63148681640625,0.4351778620459139,1.4643249488204717,12.320960387092828
1740247035229467600,2.641467529296875,0.17584537333622574,0.846798615154624,13.403448165041208
1740247035239449900,2.651449951171875,-0.13714987810850143,0.2565858203500509,14.490550158786773
1740247035249430800,2.6614306640625,-0.4365443280935287,-0.49641865881979463,15.393560490506886
1740247035259411700,2.67141162109375,-0.591287146037817,-1.609870899352431,15.799609142571686
1740247035269393700,2.6813935546875,-0.7067655828252434,-2.965122309991717,15.755376033091544
1740247035279374600,2.69137451171875,-0.7870612086810171,-4.336153473564982,15.100141023278235
1740247035289355800,2.701355712890625,-0.8211864733837544,-5.580234666004777,13.99886437370777
1740247035299337700,2.711337646484375,-0.8967056786179542,-6.632587417930364,12.790073105835914
1740247035309318700,2.721318603515625,-0.7805611791372299,-7.341293905690312,11.61163722873926
1740247035319299600,2.731299560546875,-0.23699096610732376,-7.460304900518059,10.294184510618448
1740247035329281800,2.74128173828125,0.4712754497349262,-7.174177928385138,8.822923040533066
1740247035339262700,2.7512626953125,1.0967908093933016,-6.85109806690812,7.300790630388259
1740247035349243600,2.76124365234375,1.480340117945522,-6.69406567672193,5.945173309046029
1740247035359225900,2.771225830078125,1.6203402709186077,-6.7283116451948874,4.81061515212059
1740247035369206800,2.781206787109375,1.6315771197259425,-6.8240183368027205,3.9648078860908744
1740247035379187700,2.791187744140625,1.627755661741644,-6.910439898192882,3.583976092869043
1740247035389169700,2.801169677734375,1.58616912124753,-6.857577492055296,3.5522687029629942
1740247035399150600,2.811150634765625,1.5176725081264972,-6.708782768860459,3.7107992227524518
1740247035409131800,2.8211318359375,1.3973030844271181,-6.681921649941802,3.8899855770796536
1740247035419113700,2.83111376953125,1.287878248590231,-6.6957169510602945,4.04980438311398
1740247035429095000,2.841094970703125,1.0875391430538146,-6.668879213017225,4.218861557614803
1740247035439076600,2.85107666015625,0.7873192750953137,-6.51513651202619,4.444501620081067
1740247035449057800,2.861057861328125,0.5242120170872658,-6.313980317953229,4.608698495069146
1740247035459038700,2.871038818359375,0.30524200696945186,-6.194930744680762,4.685035884818435
1740247035469020700,2.881020751953125,0.1399403856098652,-6.038432607501745,4.7454146579355
1740247035479001900,2.891001953125,0.003017228929325938,-5.7472401686728,4.7653076914072034
1740247035488982800,2.900982666015625,-0.21486907760500906,-5.42597232505381,4.604409857964516
1740247035498964700,2.91096484375,-0.4343676416415721,-5.08915444560349,4.289541359993815
1740247035508945700,2.920945556640625,-0.5806734706301242,-4.654153839820623,3.8760166729599237
1740247035518926600,2.930926513671875,-0.8813830948669463,-4.067479156014323,3.434863389766216
1740247035528908800,2.94090869140625,-1.3582348103642463,-3.808482182869315,3.087066435661912
1740247035538889700,2.9508896484375,-1.2863890329457819,-3.5924347091346975,2.6603368146181103
1740247035548871000,2.960870849609375,-1.2954082057036458,-3.2356618368923664,2.4826842457294465
1740247035558852600,2.9708525390625,-0.8955389729261398,-2.538662738060951,2.4369611899524926
1740247035568833500,2.98083349609375,-0.4302981271803379,-1.6218372314780949,2.2405536517113447
1740247035578814700,2.990814697265625,-0.4435223504126072,-0.9189394299969077,1.8980419445335863
1740247035588796700,3.000796630859375,-0.5163714596547186,-0.5432473377510905,1.458033739721775
1740247035598777900,3.01077783203125,-0.6542131194196641,-0.0631336247831583,1.2483686605006457
1740247035608758800,3.0207587890625,-0.8670655965052545,0.6037324938520788,1.3948019152611493
1740247035618740700,3.03074072265625,-1.0365326669812203,1.433393511722982,1.8249007204771042
1740247035628721700,3.0407216796875,-1.1373146160267293,2.3464865537792443,2.2263725661456584
1740247035638703900,3.050703857421875,-1.1574899735711515,3.2993811526089907,2.518987146732211
1740247035648684800,3.060684814453125,-1.181118686439842,4.258533642789721,2.8020944787830113
1740247035658665700,3.070665771484375,-1.2157307117462157,5.290642063587904,3.218196907350421
1740247035668647700,3.080647705078125,-1.3047801374219357,6.30911125061214,3.6943928623527285
1740247035678628600,3.090628662109375,-1.4780851786255835,7.173955810067057,4.1230391306728125
1740247035688609500,3.100609619140625,-1.628876482465118,7.822073096829652,4.405687028518319
1740247035698591700,3.110591796875,-1.7447978407144547,8.276815929436683,4.510967019635439
1740247035708572700,3.12057275390625,-1.925531132222712,8.472661742141842,4.4357910748809575
1740247035718553900,3.130553955078125,-2.0980267567396162,8.543807408466934,4.284696842572092
1740247035728535600,3.14053564453125,-2.1994122246362267,8.707747678345441,4.161770135605335
1740247035738516700,3.150516845703125,-2.1555752748668193,9.04113792143464,4.010165615686774
1740247035748497700,3.16049755859375,-1.9784655806832014,9.715271692985295,3.8725802687704562
1740247035758479600,3.170479736328125,-1.754015750914812,10.64140687970519,3.6339036145985126
1740247035768460800,3.180460693359375,-1.6278715432062745,11.430054334664344,2.933740498778224
1740247035778442500,3.1904423828125,-1.4825836590886114,11.805060198211669,1.758639319062233
1740247035788423700,3.200423583984375,-1.3377379657804964,11.826209369224308,0.1423532919704914
1740247035798404600,3.210404541015625,-1.1590696439780295,11.666321589607,-1.7579986830711363
1740247035808386800,3.22038671875,-0.914517668031901,11.36085278814435,-3.64425841987431
1740247035818367700,3.23036767578125,-0.6918269568905234,11.04555466658473,-5.215667778885364
1740247035828348700,3.2403486328125,-0.6380532811269164,10.851498075383901,-6.193277132254838
1740247035838330600,3.25033056640625,-0.7785856412805616,10.787450842887162,-6.605240561321377
1740247035848311600,3.2603115234375,-1.0056816016435624,10.78462292598486,-6.508405742466449
1740247035858292700,3.270292724609375,-1.2001914895698427,11.02231407625079,-5.952818270841241
1740247035868274700,3.280274658203125,-1.345775434024632,11.496980921989678,-5.188661114016175
1740247035878255600,3.290255615234375,-1.5095499919474125,11.706090120893716,-4.5887171987921
1740247035888236800,3.30023681640625,-1.6535985435284672,11.544411366206408,-4.1774563650369645
1740247035898218800,3.31021875,-1.7710124784231185,11.13053947317004,-3.965873469495773
1740247035908199700,3.32019970703125,-1.7898846444144845,10.527377180421352,-3.845638485831022
1740247035918180600,3.3301806640625,-1.669617950437218,9.857532630497216,-3.713232587379217
1740247035928162800,3.340162841796875,-1.3618084310673177,9.210912888815999,-3.501521097022295
1740247035938143700,3.350143798828125,-1.036442504479736,8.559325295594334,-3.30046368714869
1740247035948125700,3.360125732421875,-0.7763187923271209,7.825036622810363,-3.119554162290692
1740247035958107000,3.37010693359375,-0.5758031611800194,7.059878764510154,-2.938473372519016
1740247035968087600,3.380087646484375,-0.41748540735840795,6.326326004785299,-2.7413755139261484
1740247035978069800,3.39006982421875,-0.33134668149761853,5.6315919282764195,-2.652655027943849
1740247035988050700,3.40005078125,-0.3926947380382567,4.956837979000807,-2.71162510330677
1740247035998031600,3.410031494140625,-0.631483547347784,4.307787210780382,-2.8089310468047857
1740247036008013800,3.420013916015625,-0.9902058000922203,3.668787588714063,-2.897074025160074
1740247036017994800,3.429994873046875,-1.3926491211414336,3.1139675943300125,-2.8651205515384675
1740247036027975700,3.4399755859375,-1.6976316003918648,2.6383541153907775,-2.717040698614716
1740247036037957600,3.44995751953125,-1.8921207377910614,2.2450008403785526,-2.4410844073623417
1740247036047938800,3.459938720703125,-2.023695446115732,1.8838522372700273,-2.051445038306713
1740247036057919700,3.469919677734375,-2.0043933642745015,1.4774565253332257,-1.523901757904887
1740247036067901700,3.479901611328125,-1.9178420390248299,0.9903650823071598,-0.9197025233238935
1740247036077883000,3.4898828125,-1.7346750906288624,0.48076691617965694,-0.3045364890486002
1740247036087863800,3.49986376953125,-1.3742261602222918,-0.009769406603276728,0.1808779606759548
1740247036097845500,3.509845458984375,-0.9140379216909408,-0.33805648133456706,0.6050210723578929
1740247036107826400,3.519826416015625,-0.405879104184173,-0.4800535072132945,1.0812596974581479
1740247036117808600,3.52980859375,0.06168810214996338,-0.5754343278676272,1.579495634832978
1740247036127789600,3.53978955078125,0.48217561393380165,-0.752949534112215,2.1144366242706774
1740247036137770800,3.549770751953125,0.8052560599327087,-0.9606687399625777,2.7670506379306317
1740247036147752400,3.55975244140625,1.0404618231236935,-1.1803946099489926,3.5318531069219112
1740247036157733600,3.569733642578125,1.216871698474884,-1.3746721504241228,4.3981502032727
1740247036167714600,3.579714599609375,1.298066465127468,-1.5305144540429114,5.501807025977969
1740247036177696500,3.589696533203125,1.3603332439482212,-1.6935966457873581,6.798350811582804
1740247036187677700,3.599677734375,1.3911761259794235,-1.8106378018468616,8.105229528719187
1740247036197658600,3.60965869140625,1.3851555505156516,-1.8353496337771416,9.315431832432747
1740247036207640600,3.619640625,1.310375327080488,-1.8430629846334456,10.515002852016687
1740247036217621500,3.62962158203125,1.079704284709692,-1.9219395374715327,11.68118364317417
1740247036227602400,3.6396025390625,0.7471206087630242,-2.2075503767758606,12.726322810459136
1740247036237584600,3.649584716796875,0.2916295881371945,-2.717804084202647,13.437791164147853
1740247036247565600,3.659565673828125,-0.2261223660904914,-3.4383296045720577,13.871159200292825
1740247036257546800,3.669546630859375,-0.6189163267195225,-4.20355585193336,14.241983394241332
1740247036267528400,3.679528564453125,-0.8693512962896376,-4.795586509814858,14.833392120832205
1740247036277509600,3.689509521484375,-0.9604968905270099,-5.011231832489371,15.602418344998359
1740247036287491600,3.69949169921875,-1.0612344159089029,-5.026431739708781,16.016757855546473
1740247036297472500,3.709472412109375,-1.1285491257689892,-5.11015397901237,15.81347867797017
1740247036307453700,3.71945361328125,-1.1143150679070501,-5.370330517330766,14.876729742777346
1740247036317435400,3.729435302734375,-0.9267921893239021,-5.737652256116271,13.313967216080426
1740247036327416600,3.73941650390625,-0.5097581789948046,-6.161461021277308,11.396093612873553
1740247036337397500,3.7493974609375,-0.11349193914532661,-6.590621668860316,9.595610125294327
1740247036347379700,3.759379638671875,0.1919675099670887,-6.8673810931891195,8.218937740963696
1740247036357360600,3.769360595703125,0.4375684104442596,-6.943999053445458,7.3949851638674735
1740247036367341600,3.779341552734375,0.5658965380631387,-6.872439545622467,6.987799616727233
1740247036377323500,3.789323486328125,0.5977344955462962,-6.716421885436773,6.895009689348936
1740247036387304400,3.799304443359375,0.6611351007025689,-6.426728745254874,7.0021309244185685
1740247036397285600,3.80928564453125,0.7581167806822806,-5.973658229774236,7.114570139640569
1740247036407267600,3.819267578125,0.7887982616066932,-5.486643943637609,6.99686905836761
1740247036417248500,3.82924853515625,0.7055997539162635,-5.020827928352356,6.667876757976412
1740247036427230700,3.839230712890625,0.5942097554862499,-4.48343720767498,6.260184430357813
1740247036437211400,3.84921142578125,0.4550923766970634,-3.8088615375757215,5.953920679125189
1740247036447192600,3.859192626953125,0.24997546229958534,-3.1008272499889133,5.703494550448656
1740247036457174500,3.869174560546875,0.020288754791021345,-2.4352473717719314,5.557018041068315
1740247036467155700,3.87915576171875,-0.26620537015385926,-1.8047949210375547,5.5107987262070175
1740247036477136600,3.88913671875,-0.5676245308995247,-1.2628314856171607,5.445083852759003
1740247036487118600,3.89911865234375,-0.8270891946215182,-0.8234078026950359,5.229635513961314
1740247036497100500,3.9091005859375,-0.9189971515335142,-0.5786638113081455,5.057955589741468
1740247036507081500,3.91908154296875,-1.1617081027228384,-0.2561246325790882,4.642234853968024
1740247036517062700,3.929062744140625,-1.3939282011665404,0.025076573589444158,4.115705134522915
1740247036527044600,3.939044677734375,-1.712481963521242,0.24203531695008276,3.641709904435277
1740247036537025800,3.94902587890625,-1.9035455103859305,0.5087658069565892,3.301752557915449
1740247036547006700,3.9590068359375,-2.2147405805408953,0.929959128922224,3.1370453953176733
1740247036556988400,3.968988525390625,-2.473535309112072,1.3247834994003176,3.065456661400199
1740247036566969600,3.978969482421875,-2.5218074648499487,1.7103046194821596,3.0012358259022234
1740247036576950500,3.988950439453125,-2.349093083015829,2.2232114717662332,2.87667830286324
1740247036586932700,3.9989326171875,-2.0555147719636557,2.7966832673892377,2.5809178254663943
1740247036596913700,4.00891357421875,-1.8439878443934021,3.347381797929108,2.230675816297531
1740247036606895600,4.0188955078125,-1.7547208304442465,3.899128668478131,1.8680483728080988
1740247036616876500,4.02887646484375,-1.7796213168144226,4.410250975432992,1.5345067385494708
1740247036626857500,4.038857421875,-1.918020902723074,4.840283145153522,1.256637307152152
1740247036636839700,4.048839599609375,-2.087199073255062,5.267969044008851,1.1377397095710038
1740247036646820600,4.058820556640625,-2.259774631140381,5.803075453141331,1.0705132625162601
1740247036656801500,4.068801513671875,-2.37470770900473,6.38507220826447,1.0473702873378992
1740247036666783500,4.078783447265625,-2.456584174311161,6.991992392241954,1.0394441705137492
1740247036676764400,4.088764404296875,-2.496303605759144,7.557609090450406,0.9595523031532764
1740247036686745600,4.09874560546875,-2.545097155022621,8.048555455338954,0.7890794166356324
1740247036696727600,4.1087275390625,-2.605329797667265,8.459879417458176,0.6456050116807222
1740247036706708700,4.118708740234375,-2.682523219723999,8.96025295138359,0.6547890196114778
1740247036716689700,4.128689697265625,-2.746718628519773,9.589541034513712,0.8096715382874011
1740247036726671600,4.138671630859375,-2.8299837717056273,10.157058013385534,0.9647644848436117
1740247036736652500,4.148652587890625,-2.904595652836561,10.576065515744686,1.060486958542466
1740247036746634500,4.158634521484375,-2.8887562786698338,11.004530582278965,1.1764379812777042
1740247036756615700,4.16861572265625,-2.7882395564317703,11.543763715952634,1.13297234903872
1740247036766596600,4.1785966796875,-2.7030665337979793,11.944052489316462,0.696536742016673
1740247036776578600,4.18857861328125,-2.6387697104543446,11.938020223414897,-0.12155015791654586
1740247036786559500,4.1985595703125,-2.5081600477695463,11.776030503082275,-1.2148527598679064
1740247036796540400,4.20854052734375,-2.2668694117069244,11.760213340747356,-2.2865374042510984
1740247036806522600,4.218522705078125,-1.8034788700029254,12.102186703264712,-3.2328643151283263
1740247036816503600,4.228503662109375,-1.2392017498351633,12.695483435559272,-3.958985463547706
1740247036826484700,4.238484619140625,-0.7525193260014057,13.257138828921317,-4.390754832324386
1740247036836466400,4.248466552734375,-0.4732141627125442,13.364431328904628,-4.785505260783434
1740247036846447400,4.258447265625,-0.3341264484092593,12.89174250524044,-5.215739675077796
1740247036856428500,4.268428466796875,-0.129091951598227,12.152407654982804,-5.531591923388839
1740247036866409500,4.278409423828125,0.3165782244980335,11.215466996610164,-5.4981344749450685
1740247036876391700,4.2883916015625,0.3594093582257628,10.894500181764364,-5.305268554833531
1740247036886372600,4.29837255859375,0.19065438154190778,10.56813238465786,-4.936871295771002
1740247036896353500,4.308353515625,-0.20505378603339194,10.43157404270172,-4.295090810814499
1740247036906335500,4.31833544921875,-0.7162801378846169,10.477512787055968,-3.367513024070859
1740247036916316400,4.32831640625,-1.2394308824159204,10.556876831150054,-2.3798563239395616
1740247036926297600,4.338297607421875,-1.6822319328166544,10.490279914170504,-1.4862310756802557
1740247036936279600,4.348279541015625,-1.9907387868009507,10.217813218599558,-0.7569079163491725
1740247036946260700,4.3582607421875,-2.2177824324548245,9.815267021697759,-0.21912790409326552
1740247036956241700,4.36824169921875,-2.3218495406508444,9.384872448405623,0.17003858675360678
1740247036966223400,4.378223388671875,-2.2417758869826794,8.805067650368809,0.20543197169601915
1740247036976204500,4.38820458984375,-2.059710031696409,8.049342806324363,0.06344634399414062
1740247036986185500,4.398185546875,-1.944934628611803,7.348855865377187,0.02390752981007099
1740247036996167700,4.408167724609375,-1.865028148204088,6.803681651216745,0.14202420614659786
1740247037006148600,4.418148681640625,-1.7337071223795413,6.202446527138352,0.3308265300810337
1740247037016130600,4.428130615234375,-1.6218002604685722,5.558942287129163,0.49339434256255627
1740247037026111500,4.438111572265625,-1.574222516735643,4.958969145810604,0.7739613424807786
1740247037036092400,4.448092529296875,-1.509840937718004,4.52014050617218,1.096509873560071
1740247037046074600,4.45807470703125,-1.4705739262126385,3.973317063499987,1.2283832725703716
1740247037056055600,4.4680556640625,-1.3939140265107155,3.385036405801773,1.188066459751129
1740247037066036500,4.478036376953125,-1.3084300382316112,2.963960572735965,1.0653016653478145
1740247037076018700,4.488018798828125,-1.1826502799212932,2.610553085273504,1.051581767553091
1740247037085999600,4.49799951171875,-1.0588825920857488,2.271747246876359,1.2994319082617758
1740247037095980500,4.50798046875,-0.7856032649576663,1.7388450697898863,1.7794442066818474
1740247037105962800,4.517962646484375,-0.23538696497678754,1.0579632852837442,2.3000509658187624
1740247037115943700,4.527943603515625,0.504867849669978,0.4763777413100004,2.8497634079307317
1740247037125924600,4.537924560546875,1.2805658797502517,0.11221008264124392,3.367376830470562
1740247037135906800,4.54790673828125,1.8658967477321624,-0.07390051799118519,3.723863286986947
1740247037145887500,4.557887451171875,2.0921908901929855,-0.2836702266305685,3.9657536425083872
1740247037155869700,4.56786962890625,1.9577929411411283,-0.6899655469328164,4.192725245839357
1740247037165850600,4.5778505859375,1.4632126036643982,-1.221703940936923,4.738712529948353
1740247037175831800,4.587831787109375,0.8897826744217425,-1.671323439180851,5.60880083527565
1740247037185813800,4.597813720703125,0.4295230511546135,-2.140855260118842,6.686951460802555
1740247037195795000,4.607794921875,0.22141813392229376,-2.6970342678964134,7.675125462806224
1740247037205775600,4.617775634765625,0.11574001033306121,-3.319157281702757,8.37331873985827
1740247037215757600,4.627757568359375,-0.031063758240267633,-3.9046389563322066,8.965153582906723
1740247037225738800,4.63773876953125,-0.23671492564491925,-4.466950767776369,9.525254148042201
1740247037235719700,4.6477197265625,-0.4674024076938629,-5.087395619237423,10.071136802732944
1740247037245702000,4.657701904296875,-0.6961924586236476,-5.662052532991766,10.737112986791134
1740247037255682800,4.667682861328125,-0.8205903341215104,-6.195008486092091,11.602944219195843
1740247037265664800,4.677664794921875,-0.7647264080803841,-6.62410892792046,12.510020485180616
1740247037275645700,4.687645751953125,-0.5933410828929394,-6.997063119634985,13.351162682008743
1740247037285626600,4.697626708984375,-0.3884393456161022,-7.196065935066342,14.038677328658103
1740247037295608800,4.70760888671875,-0.1052092639684677,-7.171746317324042,14.644068987894057
1740247037305589800,4.71758984375,0.27129297561645505,-6.9240522439599035,15.12814429796934
1740247037315570700,4.72757080078125,0.7830827335041016,-6.427767440652847,15.487293251693249
1740247037325552600,4.737552734375,1.3750211099922656,-5.727751039826869,15.806525205570459
1740247037335533600,4.747533447265625,1.9426281052350998,-5.091607099452615,15.904190630030632
1740247037345514800,4.7575146484375,2.414841128081083,-4.697181665164232,15.54400473447442
1740247037355496700,4.76749658203125,2.6486265030801293,-4.721444584283232,14.710177244573831
1740247037365478000,4.777477783203125,2.6594787364840506,-5.346211390596628,13.408840963995456
1740247037375458800,4.787458740234375,2.6257261044859885,-6.220159293961524,11.898174535238741
1740247037385440500,4.7974404296875,2.6215748300254345,-6.7085822778522965,10.65595329145193
1740247037395421700,4.807421630859375,2.586245157968998,-6.580873597306013,9.878819748675822
1740247037405403600,4.817403564453125,2.4366776968359947,-5.940171555235982,9.361123908549546
1740247037415384800,4.827384765625,2.077164001452923,-5.227504347151518,8.867998446056246
1740247037425365800,4.83736572265625,1.6056921523630618,-4.626238827934861,8.385153554558753
1740247037435347700,4.84734765625,1.2234908243536948,-4.108357109847665,8.081829948431253
1740247037445328600,4.85732861328125,1.0478081672985107,-3.4173294866412878,7.809042934864759
1740247037455309600,4.8673095703125,0.9287152663409709,-2.5850872201055286,7.537998381051421
1740247037465291800,4.877291748046875,0.8220025390069932,-1.8698890322387218,7.196121464645862
1740247037475272700,4.887272705078125,0.6168482882738113,-1.2349538831323386,6.852110458821058
1740247037485254000,4.89725390625,0.3430956445455551,-0.6412532462120055,6.68526277706325
1740247037495235600,4.907235595703125,0.01587795261144638,0.057369069907069206,6.7785507170915595
1740247037505216500,4.917216552734375,-0.3140589351534843,0.8253846557259559,7.062322650530934
1740247037515197700,4.92719775390625,-0.6585351473372429,1.6328788499742746,7.293126963892579
1740247037525179600,4.9371796875,-1.0920787592448293,2.3958505964070556,7.196582067894935
1740247037535160800,4.947160888671875,-1.516632059162855,3.0206501359462736,6.655873016449808
1740247037545142500,4.957142578125,-1.9252596218049525,3.3568048753127453,5.732346550923586
1740247037555123700,4.967123779296875,-2.254573409235477,3.340359936468303,4.638721292889118
1740247037565104600,4.977104736328125,-2.3073230026483533,3.233928144967556,3.9012668495506047
1740247037575086600,4.987086669921875,-2.121883579275757,3.4137136342316863,3.8720658895075317
1740247037585067800,4.99706787109375,-1.7819864385105668,4.019999027436971,4.304463619315624
1740247037595048700,5.007048583984375,-1.5031179130733012,4.727194233851135,4.48722315595448
1740247037605030700,5.01703076171875,-1.352020319763571,5.267846878933907,4.0744834818184374
1740247037615011600,5.027011474609375,-1.2970799383081495,5.5993157985717055,3.1795559187889095
1740247037624992500,5.036992431640625,-1.3533598978042602,5.914346793627739,2.2951707925617693
1740247037634974700,5.046974609375,-1.4693348859369755,6.233051508760452,1.6245272012144327
1740247037644955600,5.05695556640625,-1.5659750590026378,6.490370904082059,1.1953893499851227
1740247037654937900,5.066937744140625,-1.591983945006132,6.757787330526113,1.0583072764158248
1740247037664918800,5.076918701171875,-1.4582676946081221,7.15776221563518,1.0152367809742688
1740247037674899700,5.086899658203125,-1.2036803545989097,7.547329103976487,0.874952696493268
1740247037684881700,5.096881591796875,-0.9949804671481252,7.942201112988591,0.5841273374110459
1740247037694862600,5.106862548828125,-0.8834006452344357,8.301171787536143,0.19087562307715414
1740247037704843800,5.11684375,-0.8948492370963096,8.627215759515762,-0.23766776939034462
1740247037714825700,5.12682568359375,-1.031890248002857,8.890552807691693,-0.6623030485033988
1740247037724807000,5.136806884765625,-1.2622748746477066,9.15270327643156,-0.9324217196434735
1740247037734787600,5.14678759765625,-1.5068481856428086,9.530918165153265,-0.9868477218359708
1740247037744769800,5.156769775390625,-1.6921311032794415,10.023389547652005,-0.9410761507421731
1740247037754750700,5.166750732421875,-1.759370994337648,10.565698435509205,-0.8785153574109077
1740247037764732700,5.176732666015625,-1.7315502366065978,11.126051514101027,-0.9043249214500189
1740247037774713900,5.1867138671875,-1.6380549374379216,11.724317851501702,-1.1281225709199905
1740247037784694800,5.19669482421875,-1.5433341881275175,12.2380564784348,-1.5463690257787703
1740247037794676700,5.2066767578125,-1.4162228889524935,12.571992664968967,-2.085813756376505
1740247037804657700,5.21665771484375,-1.3126422490991652,12.73021105006933,-2.7992057716041803
1740247037814638600,5.226638671875,-1.2011981823943554,12.604663931471109,-3.6043782449066635
1740247037824620800,5.236620849609375,-1.0766133329570293,12.380454194068909,-4.362134302517772
1740247037834601700,5.246601806640625,-0.85744115133062,12.30696810209751,-4.835623336648941
1740247037844583000,5.2565830078125,-0.5706127529300749,12.529266452920437,-4.94118389827311
1740247037854564600,5.266564697265625,-0.33494653262048957,12.83034315690398,-4.855496496376395
1740247037864545800,5.2765458984375,-0.24393866635337472,12.932739701539278,-4.781671966230869
1740247037874527700,5.28652783203125,-0.3418399453960359,12.724639387416838,-4.771624034947156
1740247037884508700,5.2965087890625,-0.5715687384806573,12.430533691489696,-4.694516245347261
1740247037894489900,5.30648974609375,-0.7915164345242083,11.995705519664288,-4.6167093675673
1740247037904471600,5.316471435546875,-0.9285738120436667,11.466444329428672,-4.504759397166967
1740247037914452700,5.32645263671875,-1.0046131686944515,11.023055250006914,-4.270041709753871
1740247037924433700,5.33643359375,-1.000549499452114,10.613577792537212,-3.898364113846421
1740247037934416000,5.346415771484375,-0.9540390926897525,10.23776411973834,-3.340902665042877
1740247037944396800,5.356396728515625,-0.8252714046098292,9.940133756816387,-2.571738493710756
1740247037954377700,5.366377685546875,-0.5621009451724589,9.794328278565406,-1.7231185083478688
1740247037964359700,5.376359619140625,-0.18429960568770765,9.675394440627098,-0.9335755658537149
1740247037974340600,5.386340576171875,0.17701427098512648,9.525285712224244,-0.32318682898283
1740247037984321500,5.396321533203125,0.4755996696095913,9.339159914022684,0.19151041384935377
1740247037994303700,5.4063037109375,0.7440916893959045,9.099740917050838,0.6446294446468352
1740247038004284700,5.41628466796875,0.9769172063868492,8.748712141418457,1.080517354658246
1740247038014266600,5.4262666015625,1.1447066259741783,8.305550441011786,1.4070178382337093
1740247038024247600,5.43624755859375,1.2249205648958683,7.793280133065581,1.531164442384243
1740247038034228700,5.446228759765625,1.275406889551878,7.284459673312306,1.4994938773572444
1740247038044210700,5.456210693359375,1.262581310248375,6.860697085380554,1.4451070381313562
1740247038054191600,5.466191650390625,1.0687163691621273,6.466821686190366,1.43680039755702
1740247038064172800,5.4761728515625,0.6966425404787063,6.073435531821847,1.4563614225953816
1740247038074154500,5.486154541015625,0.20414295479878783,5.709755948930979,1.477314194253087
1740247038084135700,5.4961357421875,-0.38104397466778755,5.245564319977164,1.5251912131935357
1740247038094117000,5.5061171875,-1.0116729510128497,4.637444404821098,1.730652410984039
1740247038104099300,5.516099365234375,-1.4546049343168734,4.006258379115164,2.051403537252545
1740247038114080300,5.526080322265625,-1.6732383328914642,3.2863056901976466,2.3722990404278037
1740247038124062200,5.536062255859375,-1.6837644030809402,2.6083874316722153,2.759694429948926
1740247038134043100,5.546043212890625,-1.5775193663239477,2.066124721044302,3.1915555686622854
1740247038144024000,5.556024169921875,-1.4826409422338007,1.6314473558664322,3.5876731938213107
1740247038154006300,5.56600634765625,-1.484518426543474,1.1632193110033868,4.015384811639786
1740247038163987200,5.5759873046875,-1.6200222910106181,0.6787421421289443,4.549743032753467
1740247038173968400,5.585968505859375,-1.7797053418360649,0.1518383286744356,5.111733357158303
1740247038183950000,5.5959501953125,-1.8743768451772629,-0.4599509226441383,5.833817212885618
1740247038193931000,5.605930908203125,-1.8753413062952458,-1.2473790649414063,6.6335927955806255
1740247038203912200,5.615912109375,-1.6668460015058517,-2.0814163982003926,7.418591080382466
1740247038213894100,5.62589404296875,-1.2525824788033961,-2.849876220655441,8.120335327914356
1740247038223875300,5.635875244140625,-0.7852502868015319,-3.558933421549201,8.5098718211174
1740247038233857300,5.645857177734375,-0.3909467983923852,-4.165209462404251,8.698926073986291
1740247038243838200,5.655838134765625,-0.0055061962008476255,-4.624739529287814,8.822699168649315
1740247038253819100,5.665819091796875,0.3049403936743736,-4.943500358521938,9.046630089110135
1740247038263801000,5.675801025390625,0.5792354006510227,-5.100447993034124,9.481691485169529
1740247038273782300,5.6857822265625,0.8384826222300529,-5.061035435578226,10.103280830490588
1740247038283763200,5.69576318359375,1.0137035069923848,-4.914965168911218,10.737388881123065
1740247038293745200,5.7057451171875,1.138196221166849,-4.6922155671894545,11.356886222600936
1740247038303726000,5.71572607421875,1.2515057894825934,-4.433337836509943,11.85313829268217
1740247038313707000,5.72570703125,1.2670669312298297,-4.1886943828880785,12.235696179044245
1740247038323689200,5.735689208984375,1.1086357801616191,-4.191165741437674,12.44591129336357
1740247038333670100,5.745670166015625,0.8644926772773265,-4.687012737849354,12.467075661945342
1740247038343652400,5.75565234375,0.9379588955044745,-5.195573669883609,12.308147667270898
1740247038353633300,5.76563330078125,1.239092882633209,-5.288692098563909,12.190732417201994
1740247038363614200,5.7756142578125,1.3893500795960425,-5.044871067240834,12.398478511059283
1740247038373596200,5.78559619140625,1.2505717235028744,-4.7698155242204665,12.686859399598836
1740247038383577000,5.7955771484375,0.8514823890566825,-4.816556817129254,12.713355776858329
1740247038393558300,5.805558349609375,0.2548714907128364,-5.180267964202165,12.42922319341302
1740247038403540200,5.815540283203125,-0.33704460087828336,-5.59281708420217,11.941256136596202
1740247038413521400,5.825521484375,-0.9101426678180694,-6.1137973528265945,11.199268726003169
1740247038423502000,5.835502197265625,-1.331420453196764,-6.724064509144425,10.261242025959492
1740247038433484300,5.845484375,-1.5354326212227343,-7.176739887827634,9.384639808693528
1740247038443465200,5.85546533203125,-1.4720482365489005,-7.28105775591433,8.704844358119368
1740247038453447200,5.865447265625,-1.2420388729572296,-6.941486778363585,8.274406530207395
1740247038463428400,5.875428466796875,-0.9894412454605102,-6.2768631779581305,8.011488584226369
1740247038473409300,5.8854091796875,-0.7430640268485993,-5.47657263147831,7.737781533205509
1740247038483391200,5.89539111328125,-0.5962977407414466,-4.72583200558722,7.335371529904007
1740247038493372200,5.9053720703125,-0.5401777210474014,-4.09698932813704,6.8924483144283295
1740247038503353000,5.91535302734375,-0.5560591442575678,-3.463208025240898,6.566015050870179
1740247038513335300,5.925335205078125,-0.5273042474815621,-2.770564783531427,6.426702441769838
1740247038523316200,5.935316162109375,-0.5060042332887649,-2.018221983140707,6.502980794808268
1740247038533297400,5.94529736328125,-0.5752899144282564,-1.3877216016113758,6.56614481472969
1740247038543279000,5.955279052734375,-0.5327929080257192,-0.9019926791101693,6.569776449230313
1740247038553260000,5.965260009765625,-0.47481648334264753,-0.4531821591615677,6.516496694463491
1740247038563241200,5.9752412109375,-0.47971821084432303,-0.05162146616578102,6.3604457165300845
1740247038573223200,5.98522314453125,-0.4483832344472408,0.26191139928698537,6.0673974207013845
1740247038583204400,5.995204345703125,-0.3459562946736812,0.5810241106987,5.6837844723284245
1740247038593186000,6.00518603515625,-0.2731319545466453,0.8436556409537792,5.2066959524005645
1740247038603167200,6.015167236328125,-0.27272739233374593,1.051221702069044,4.722024429997801
1740247038613148200,6.025148193359375,-0.28623109009452163,1.3107605270057916,4.298879097181558
1740247038623130400,6.03513037109375,-0.4432208101827651,1.6853788525402544,4.006623413035273
1740247038633111300,6.045111328125,-0.6351848130185157,2.120807912868261,3.879688054949045
1740247038643092200,6.05509228515625,-0.8876926433399319,2.6232176287963984,3.728137311044335
1740247038653074200,6.06507421875,-1.2026093643665312,3.17513517973721,3.4751036302179097
1740247038663055000,6.07505517578125,-1.518898981181532,3.6213653278037903,3.1243776369243856
1740247038673037300,6.085037353515625,-1.6961833012796936,3.9838200450748205,2.78574072535336
1740247038683018200,6.095018310546875,-1.756809765547514,4.427682294966281,2.398627075383067
1740247038692999200,6.104999267578125,-1.8032231416761875,4.958194069784879,2.0775614763379098
1740247038702981000,6.114981201171875,-1.9179472529649733,5.520655518832802,1.8094208272725343
1740247038712962000,6.124962158203125,-2.061653420849144,6.074318744397163,1.6429928322315215
1740247038722943200,6.134943115234375,-2.2493853390730916,6.485350445571542,1.436571264976263
1740247038732925200,6.14492529296875,-2.4586066200494763,6.857900732660293,1.2289490897595883
1740247038742906000,6.154906005859375,-2.6213205630034206,7.343086634325981,1.0879308457851409
1740247038752887300,6.16488720703125,-2.7661308927372095,7.871897158184647,0.9483476030498742
1740247038762869000,6.174868896484375,-2.940650132036209,8.323117077362538,0.82836104118824
1740247038772850200,6.18485009765625,-3.0676188078701494,8.840303214401006,0.7316296827077865
1740247038782832000,6.19483203125,-3.136117466817796,9.456906588003038,0.7492559402912855
1740247038792813300,6.204813232421875,-3.221157802982628,10.138343960565328,0.8352923017561436
1740247038802794200,6.214794189453125,-3.263689953763783,10.817378363639115,0.9569657937914132
1740247038812776200,6.224776123046875,-3.2801699639216064,11.453517043316364,0.9874299056380986
1740247038822757000,6.234757080078125,-3.2841482199028134,11.991701544719934,0.8239952471941709
1740247038832738000,6.244738037109375,-3.2976316785931585,12.258152341002225,0.408272173333168
1740247038842720300,6.25472021484375,-3.270767052543163,12.260386383664608,-0.2791343367666006
1740247038852701200,6.264701171875,-3.0822306860685345,12.142115393549203,-1.0693845507472752
1740247038862682000,6.27468212890625,-2.8682103342473506,11.994438276207447,-1.872419427499175
1740247038872664300,6.284664306640625,-2.5158883039340374,11.947912671875953,-2.563504918372631
1740247038882645200,6.294645263671875,-2.062975024841726,12.151648945569992,-2.997793576493859
1740247038892627200,6.304627197265625,-1.6505317033037543,12.375637733697891,-3.2928625644952056
1740247038902608100,6.314608154296875,-1.3971370802104472,12.430866868966817,-3.6284850966811177
1740247038912589300,6.32458935546875,-1.3108616492927074,12.237746681833267,-4.005034682539105
1740247038922571300,6.3345712890625,-1.3596540295124053,11.901627890563011,-4.262227821132541
1740247038932552200,6.34455224609375,-1.504681216867268,11.502911481082439,-4.414035754668713
1740247038942533400,6.354533447265625,-1.6675851294353603,11.014265209829807,-4.511595380666852
1740247038952515000,6.36451513671875,-1.8068597446128725,10.3777500980556,-4.584835973444581
1740247038962496300,6.374496337890625,-1.8900477309092878,9.780920515459774,-4.627077616846561
1740247038972478200,6.384478271484375,-1.8853755013145506,9.334608242067693,-4.423586842346191
1740247038982459400,6.39445947265625,-1.786880055771023,9.133681765097379,-3.9785616861552
1740247038992440300,6.4044404296875,-1.5605015960276125,9.126195208734273,-3.401991047734022
1740247039002422000,6.414422119140625,-1.1980582769334316,9.17616715412736,-2.861027729266882
1740247039012403200,6.4244033203125,-0.7844003189086913,9.18183467836976,-2.5461691681683063
1740247039022384000,6.434384033203125,-0.36153044203296303,9.188989226299524,-2.304897236806154
1740247039032366300,6.444366455078125,-0.019246113870292902,9.179318896156548,-2.1522236263513563
1740247039042347300,6.45434716796875,0.1485830532055348,9.080330114138127,-2.1703069800525903
1740247039052328200,6.464328125,0.23306655920520422,8.738405851459502,-2.177855495736003
1740247039062310100,6.47431005859375,0.36288653281703587,8.36058025431633,-1.918690180286765
1740247039072291000,6.484291015625,0.5144248556315899,7.8894561957508325,-1.6089900248646736
1740247039082273300,6.494273193359375,0.6753647015850991,7.386210905781388,-1.3224176470518112
1740247039092254200,6.504254150390625,0.9038917907297611,6.92894469217658,-1.0251683924019337
1740247039102235100,6.514235107421875,1.167330034257844,6.568470042806863,-0.8039414702028036
1740247039112216800,6.524216796875,1.4120084861278532,6.228608557876944,-0.6430740318983793
1740247039122198000,6.534197998046875,1.4797966587185858,5.9637751336634155,-0.5558861623108386
1740247039132179000,6.544178955078125,1.2786299432516097,5.784011271709203,-0.4154781591892242
1740247039142161000,6.554160888671875,0.8007856365203857,5.5298821968615055,-0.2270113508194685
1740247039152142000,6.56414208984375,0.09083360567875207,5.167172920307517,-0.03148117993474007
1740247039162123000,6.574123046875,-0.6031459992010146,4.803601766227185,0.4820417584210634
1740247039172105000,6.58410498046875,-1.1497791799981147,4.445990689595043,1.3335083653867243
1740247039182086000,6.5940859375,-1.4451578915357588,3.9644665253072975,2.172108476516604
1740247039192068000,6.604068115234375,-1.4592542214274407,3.3352062069669364,2.9546476777285338
1740247039202049000,6.614049072265625,-1.2522668369829655,2.794578988586366,3.7268390879273414
1740247039212030000,6.624030029296875,-0.9850327813684939,2.314809851272404,4.450106015959382
1740247039222012200,6.63401220703125,-0.8902828790288418,1.8360884694457054,5.139995575046539
1740247039231992800,6.643992919921875,-0.8770131361544131,1.3173925123661756,5.845960070621967
1740247039241974000,6.65397412109375,-0.9885130246996879,0.7308668816417455,6.525161646956205
1740247039251956000,6.6639560546875,-1.1797932099897415,0.02993161240518093,7.128666469532251
1740247039261937000,6.67393701171875,-1.3252502401292323,-0.730793231883645,7.779030658438801
1740247039271918000,6.68391796875,-1.4501460552118717,-1.4735183091014623,8.553463710084557
1740247039281900000,6.693900146484375,-1.5571267127670347,-2.149630102726817,9.369275650823116
1740247039291881000,6.703880859375,-1.6452094853676855,-2.875288894331455,10.094382069242
1740247039301863000,6.71386279296875,-1.7359598697423935,-3.615868191692233,10.864251173973082
1740247039311844000,6.723843994140625,-1.7646553644813596,-4.236740913176536,11.583884129416942
1740247039321825000,6.733824951171875,-1.7194613010145723,-4.71313092944622,12.270547712194919
1740247039331807000,6.743806884765625,-1.5396179440833628,-4.970460846161842,12.840367707312106
1740247039341788200,6.7537880859375,-1.159466972732544,-4.942381583625078,13.12061555827856
1740247039351769000,6.76376904296875,-0.7140789745785295,-4.8076796831905835,12.969713049149512
1740247039361751000,6.7737509765625,-0.2719559695698321,-4.651635134997964,12.54986734240055
1740247039371732000,6.78373193359375,0.13962006761431695,-4.54151296454668,12.030719549900292
1740247039381714200,6.793714111328125,0.4534767581939697,-4.563116309067607,11.525463504630327
1740247039391695000,6.803695068359375,0.8395312545001506,-4.528870925116538,11.213374408245086
1740247039401676000,6.813676025390625,1.3115420327723026,-4.300830231249332,11.246315723860263
1740247039411658000,6.823657958984375,1.7243933505892752,-3.95979853349626,11.548541597878932
1740247039421639000,6.833638916015625,1.9617710509918629,-3.7136306467860933,11.821323935270309
1740247039431619800,6.843619873046875,1.8484394169747829,-3.833890764892101,11.783373267060517
1740247039441602000,6.85360205078125,1.4893665972270071,-4.350292473554611,11.449432404351233
1740247039451583000,6.8635830078125,1.0049288835801184,-5.2062692514210935,10.77400800846815
1740247039461565000,6.87356494140625,0.6176620888747274,-6.241963129490614,9.88578140438199
1740247039471545900,6.8835458984375,0.45091772136092184,-7.153807340529561,9.168159788760542
1740247039481527000,6.893527099609375,0.4090425731837749,-7.581380426660179,8.638087282142042
1740247039491509000,6.903509033203125,0.3617861703597009,-7.420582546460628,8.300355794978142
1740247039501490200,6.913490234375,0.21503844282254575,-6.9272536703497165,8.18267692553699
1740247039511471000,6.92347119140625,-0.02883431868776679,-6.2501084420233965,8.136261795842646
1740247039521452800,6.933452880859375,-0.3381844916284084,-5.585716896808147,8.174608185371756
1740247039531434000,6.94343408203125,-0.5881095389150083,-4.975728557431697,8.318163254347443
1740247039541415000,6.953414794921875,-0.7137466738842427,-4.326698831999302,8.493689332601427
1740247039551397000,6.963397216796875,-0.6474037316657603,-3.6169419584035873,8.664567292788623
1740247039561378000,6.9733779296875,-0.38377953711152074,-2.9102696068197487,8.656194016718864
1740247039571360000,6.983360107421875,-0.09821355986222624,-2.2911352534353733,8.466628307196498
1740247039581341000,6.9933408203125,0.06171133689507842,-1.82365861146152,8.241970241504907
1740247039591321900,7.00332177734375,0.0718538145944476,-1.470906080776453,8.070480286899208
1740247039601304000,7.013303955078125,0.14394070729240774,-1.1808230644941329,7.904311235055327
1740247039611285000,7.023284912109375,0.3571159865915775,-0.6817430775105953,7.588518607977032
1740247039621266000,7.033265869140625,0.6078032504223286,0.016179565906524657,7.098279514575004
1740247039631248000,7.043247802734375,0.7125146478712558,0.73057871235013,6.438004172506928
1740247039641228800,7.053228759765625,0.725219669535011,1.298221363428235,5.571586664646864
1740247039651210000,7.0632099609375,0.541273115068674,1.6932345344766973,4.706620524638891
1740247039661192000,7.07319189453125,0.41259632014259695,2.0535200910151006,3.9594565881907937
1740247039671173000,7.083173095703125,0.3684837683022022,2.5147765432998535,3.408218543946743
1740247039681155000,7.093155029296875,0.28994492298588154,3.0978862281009554,2.9879040506422516
1740247039691136000,7.103135986328125,0.15885770591720938,3.642034021823108,2.567736272332072
1740247039701117000,7.113116943359375,-0.029393121614307162,4.104464778584242,2.0655121421039104
1740247039711099000,7.123098876953125,-0.16669745963215826,4.582043420116603,1.5718933431357145
1740247039721080000,7.133080078125,-0.2502513566315174,5.1355724979072805,1.0641133323460816
1740247039731061000,7.14306103515625,-0.33911958052143454,5.6566147258520125,0.5691407806813716
1740247039741043200,7.153043212890625,-0.45910811514444644,6.134463124236464,0.15625380702912806
1740247039751024000,7.163024169921875,-0.5681915171325207,6.611246523737907,-0.15382161144614218
1740247039761005800,7.173005859375,-0.6756441761136055,7.0829808231562374,-0.43309798703193664
1740247039770987000,7.182987060546875,-0.8086918796002864,7.4302768420010805,-0.631345600181818
1740247039780968000,7.192968017578125,-0.9112427380144595,7.7183970337778325,-0.7475999897778034
1740247039790950100,7.2029501953125,-0.9161093942027538,7.982248461216687,-0.8509867144942284
1740247039800931000,7.21293115234375,-0.7880944972515106,8.238395305627584,-0.9218851280599832
1740247039810912000,7.222912109375,-0.6038858577828854,8.551391579985617,-0.9019646220594644
1740247039820894000,7.23289404296875,-0.4221521570604294,8.895134874784945,-0.8902262534707784
1740247039830875000,7.242875,-0.2784966233849525,9.183059836250543,-0.9461486317008733
1740247039840857000,7.252857177734375,-0.16206212798170744,9.511256017827987,-1.0085744004756212
1740247039850838000,7.262838134765625,-0.11142032050304114,9.95982162310481,-1.0313964731365441
1740247039860819200,7.272819091796875,-0.20813304734826088,10.444618233191967,-1.08194592615664
1740247039870801000,7.28280078125,-0.4775696545083076,10.837115329766274,-1.2345587463349104
1740247039880781800,7.29278173828125,-0.8818739471238106,11.046778655421733,-1.4419301616609095
1740247039890763000,7.302762939453125,-1.2706874598145483,11.171931806266308,-1.6852122638016938
1740247039900745000,7.312744873046875,-1.5215268454670905,11.312662465471028,-1.8279694603979586
1740247039910726100,7.32272607421875,-1.564979033702612,11.552553756129742,-1.883172876703739
1740247039920707800,7.332707763671875,-1.362630268844217,11.899048979985713,-1.9809090283125639
1740247039930689000,7.34268896484375,-0.9630769701480865,12.273402517104149,-2.1275275765120982
1740247039940670000,7.352669921875,-0.5214788657963275,12.645469404590129,-2.404521978640556
1740247039950652000,7.36265185546875,-0.08259411205649375,12.807753723955154,-2.92542918202877
1740247039960633000,7.372633056640625,0.2709025149941444,12.62387365885377,-3.7230987323552367
1740247039970614000,7.382614013671875,0.4661128062747419,12.178856101447343,-4.605853627032041
1740247039980596000,7.392595947265625,0.41669162663221354,11.59807982802987,-5.232705422925949
1740247039990577000,7.402576904296875,0.21120529440045355,11.106256095784902,-5.454595777469873
1740247040000559000,7.41255908203125,-0.04175371375456452,10.762898585432767,-5.217423682641983
1740247040010540000,7.4225400390625,-0.25004092875123024,10.4133369597435,-4.566088018354773
1740247040020521000,7.43252099609375,-0.32415947340726853,10.08160675882101,-3.6338159363150595
1740247040030503000,7.4425029296875,-0.22398995717167852,9.790203307589888,-2.5156051030784843
1740247040040483800,7.45248388671875,0.02058934517279267,9.601994857895374,-1.2834195156157016
1740247040050465000,7.462465087890625,0.29314349983148275,9.46753378047943,-0.0945604441821575
1740247040060447000,7.472447021484375,0.5126139337521046,9.250059488812088,0.7534498848497867
1740247040070428000,7.482427978515625,0.5574104492686689,8.85562820930481,1.0742442657381295
1740247040080409000,7.4924091796875,0.369833940802142,8.22629862512052,1.0456722512483596
1740247040090391000,7.50239111328125,0.17831885077767073,7.598710916167497,0.9825871417820453
1740247040100372200,7.512372314453125,0.10299392600655555,7.109896887132525,1.052090886119008
1740247040110354200,7.522354248046875,0.21301154010482132,6.60331456169486,1.0595482163876295
1740247040120335400,7.53233544921875,0.45718730314970013,5.997930501243472,0.9637415715366602
1740247040130316300,7.54231640625,0.7128793895304203,5.415009617012739,0.785454796397686
1740247040140298200,7.55229833984375,0.9058031042438,4.977540575289726,0.5423778614401817
1740247040150279200,7.562279052734375,0.9435012589972466,4.587777287593483,0.2367354569762945
1740247040160260000,7.572260009765625,0.7557365344822407,4.1396798843503,-0.01820201164484024
1740247040170242300,7.5822421875,0.3426829720914364,3.6243706470996138,-0.1255319210290909
1740247040180223200,7.59222314453125,-0.23371179830618202,3.145894179944694,-0.07413900292217732
1740247040190205400,7.602205322265625,-0.7310018331330269,2.67774767588526,0.19462708456516264
1740247040200186400,7.612186279296875,-0.9598317046165465,2.2003145803034303,0.7931874364763498
1740247040210167300,7.622167236328125,-0.9160802411735057,1.7374159137696026,1.415934719660878
1740247040220149200,7.632149169921875,-0.7491209888000041,1.1971505144387482,1.8397803097009657
1740247040230130200,7.642130126953125,-0.6236193898439407,0.7007967375487089,2.28448339433074
1740247040240111400,7.652111328125,-0.5305122132100164,0.33684652102291585,2.844894925111532
1740247040250093300,7.66209326171875,-0.45398536530323325,0.04303542412817478,3.4380613090246914
1740247040260074200,7.67207421875,-0.4035469714421779,-0.3177268100112676,3.9574914255976674
1740247040270056200,7.68205615234375,-0.3674000647187233,-0.7720125465005636,4.526901086348295
1740247040280037000,7.692037109375,-0.17145656379275023,-1.2532061636596918,5.242582673817873
1740247040290018300,7.702018310546875,0.09500110062174498,-1.7576333568900822,6.015902211263776
1740247040300000300,7.712000244140625,0.35418636288046834,-2.271120054888725,6.609622137406468
1740247040309981400,7.7219814453125,0.4931833301603794,-2.780330390742421,7.047439554175734
1740247040319962400,7.73196240234375,0.5459971479158848,-3.2215047167241573,7.5382544016391035
1740247040329944000,7.741944091796875,0.5452618924438953,-3.5976679336130615,8.224789974123238
1740247040339925200,7.75192529296875,0.4876923315286636,-3.9906922689318653,8.947616757172346
1740247040349907200,7.7619072265625,0.4213688246630132,-4.334399907895922,9.642237436434627
1740247040359888400,7.771888427734375,0.4152431813895702,-4.5596419109553095,10.41531147468686
1740247040369869300,7.781869384765625,0.40874578219428653,-4.588718367835879,11.081438465392589
1740247040379851300,7.791851318359375,0.317881854442507,-4.635035882374644,11.444335373473166
1740247040389832200,7.801832275390625,0.13669643525257705,-4.792108020049334,11.50238774946928
1740247040399813000,7.811813232421875,-0.07039163308739661,-4.959952896150947,11.348981148564814
1740247040409795300,7.82179541015625,-0.2197791345436126,-5.214122303009033,11.111139191651343
1740247040419776300,7.8317763671875,-0.2502887660324573,-5.438837651845812,10.937545542764664
1740247040429758200,7.84175830078125,-0.15783260065317153,-5.40723079970479,10.924046594244242
1740247040439739100,7.8517392578125,0.00653371261768043,-5.007009246358275,11.288163984030485
1740247040449720000,7.861719970703125,0.17781733099631963,-4.391844965648651,11.86490588736534
1740247040459702300,7.871702392578125,0.23313202565684912,-4.026265102094412,12.304057183086872
1740247040469683200,7.88168310546875,0.0685235011279583,-4.140150424471497,12.291908480131626
1740247040479664400,7.891664306640625,-0.2671348330236971,-4.76566717236936,11.814653371465205
1740247040489646000,7.90164599609375,-0.6037739949062466,-5.6530561565876,11.13416233984232
1740247040499628300,7.911628173828125,-0.5970223286889493,-5.632335440120101,11.097035847496986
1740247040509609200,7.921609130859375,-0.7291863812088966,-6.418015861967206,10.416402192533015
1740247040519591400,7.93159130859375,-0.7006711384076625,-6.9389920389384026,9.971894338214398
1740247040529572400,7.941572265625,-0.5616682528436183,-7.104051083713769,9.732783384278417
1740247040539553300,7.95155322265625,-0.4386545251805335,-6.849512259021401,9.7159345408082
1740247040549535200,7.96153515625,-0.3588767126537859,-6.186889477044343,9.86047277560234
1740247040559516200,7.97151611328125,-0.3349954863287508,-5.306256981348991,10.046123942029476
1740247040569497300,7.981497314453125,-0.36630474376268685,-4.432255301970243,10.077346763288974
1740247040579479300,7.991479248046875,-0.4504840791840106,-3.619508594021201,9.957290643322468
1740247040589460200,8.001460205078125,-0.5501135702587664,-2.8794243867009874,9.735791918444633
1740247040599442200,8.011442138671875,-0.672008449959755,-2.131876419371366,9.36028044346273
1740247040609423000,8.021423095703126,-0.8145067033588885,-1.481894507780671,8.854677776712178
1740247040619404300,8.031404296875,-0.9896480200789868,-0.944045521941781,8.279293133205176
1740247040629386200,8.04138623046875,-1.1007831669650971,-0.5143658189207315,7.711243070369958
1740247040639367400,8.051367431640625,-1.1676420958817004,-0.16259820761978624,7.152074817648529
1740247040649348400,8.061348388671876,-1.190999444463104,0.14929565845429896,6.59352382004261
1740247040659330000,8.071330078125,-1.167470392576605,0.4647568616211414,6.015971184846759
1740247040669311200,8.081311279296875,-1.0910850720323622,0.8294096734583377,5.445078592061996
1740247040679293200,8.091293212890625,-1.008885950642824,1.2685486942201851,4.86003706241548
1740247040689274400,8.1012744140625,-1.0316814275577664,1.749865937758982,4.318535983809828
1740247040699255300,8.11125537109375,-1.1638510330356657,2.284875900779664,3.817883048421144
1740247040709237200,8.1212373046875,-1.3401627087093888,2.813917310784757,3.2587685717135666
1740247040719218200,8.13121826171875,-1.5487877773582934,3.3044597710475325,2.829956299176812
1740247040729199000,8.14119921875,-1.7084255277372895,3.8667408950924873,2.5141128186941146
1740247040739181300,8.151181396484375,-1.8451300001658497,4.4964048257976765,2.2578309497267006
1740247040749162200,8.161162353515625,-1.9154912381149827,5.101045958927274,2.0652356632500886
1740247040759144200,8.171144287109374,-1.9281097505390643,5.7114586611956355,1.8229197757929563
1740247040769125000,8.181125,-1.9459530118741093,6.209440916070342,1.525848800319433
1740247040779106000,8.19110595703125,-1.9742963321745395,6.6642544758260245,1.1789631158411502
1740247040789088300,8.201088134765625,-2.0187635426715014,7.17960287604332,0.9556628944993019
1740247040799069200,8.211069091796874,-2.0706242244206368,7.7119649549037215,0.8218190721988677
1740247040809050400,8.22105029296875,-2.179740871091187,8.27947199690342,0.8136094622582196
1740247040819032300,8.2310322265625,-2.3589535289034247,8.9126956659168,0.9912766441941261
1740247040829013200,8.24101318359375,-2.606786133955419,9.45693932122886,1.184590308073163
1740247040838995200,8.2509951171875,-2.8332287449762226,9.854216053295135,1.2538888852268457
1740247040848976100,8.26097607421875,-3.0060508249685167,10.171577537125348,1.1950672784239054
1740247040858957300,8.270957275390625,-3.1346117384299634,10.519593686938284,1.168187454804778
1740247040868939300,8.280939208984375,-3.2431565765619275,10.901543670535087,1.0699877773374318
1740247040878920200,8.290920166015624,-3.2575030818223953,11.232130546641349,0.8981202215909957
1740247040888901000,8.300901123046875,-3.2167607370674607,11.540784992402791,0.652287850445509
1740247040898883300,8.31088330078125,-3.131009330023825,11.832915004342794,0.44284313597679137
1740247040908864300,8.3208642578125,-3.0694159204199907,12.117070968663691,0.12643559187054634
1740247040918846200,8.33084619140625,-3.0852731225043533,12.216942378735542,-0.46088908027708525
1740247040928827400,8.340827392578126,-3.065993837016821,12.093828040242194,-1.205618483054638
1740247040938808300,8.350808349609375,-2.972240033042431,11.9689765026927,-1.9174498248368501
1740247040948790300,8.360790283203125,-2.748761532524228,12.077856564128398,-2.4535657032728193
1740247040958771200,8.370771240234374,-2.428465164285898,12.463002713418007,-2.717377383223176
1740247040968752000,8.380752197265625,-2.069996594041586,12.933136007380485,-2.88134103397727
1740247040978734300,8.390734375,-1.7964704525455832,13.133842119598388,-3.1295623460859057
1740247040988715300,8.40071533203125,-1.571401760226488,12.970371220797299,-3.5852252161473035
1740247040998697200,8.410697265625,-1.3792775983929633,12.639065382766724,-4.088247803276777
1740247041008678100,8.42067822265625,-1.2639390084676443,12.252780584836005,-4.537546399003267
1740247041018659300,8.430659423828125,-1.189509205905348,11.661308729881048,-5.077414907971024
1740247041028641300,8.440641357421875,-1.128599686912447,10.966378838539123,-5.639838947618007
1740247041038622200,8.450622314453126,-1.096148054510355,10.281688601660727,-6.05630787141025
1740247041048603400,8.460603271484375,-1.1633376766860484,9.673455581519008,-6.135149937456846
1740247041058585000,8.470585205078125,-1.2155563780926166,9.115900609213114,-5.845559673127531
1740247041068566300,8.480566162109374,-1.1495033587314187,8.668409939691424,-5.120132936713099
1740247041078548200,8.49054833984375,-0.8877180700421333,8.31440185598731,-4.051488975200057
1740247041088529400,8.500529296875,-0.5015266494832933,8.118511619618534,-2.942368041869998
1740247041098510600,8.510510498046875,-0.0782556444607675,8.004993376988173,-1.938464555814862
1740247041108492500,8.520492431640625,0.2299122598927468,7.983633193573355,-1.0592653077930212
1740247041118473500,8.530473388671876,0.4241453036390245,7.988204739272594,-0.4632026179164648
1740247041128455400,8.540455322265625,0.4260964377067983,7.85290604198873,-0.13495792102217674
1740247041138436600,8.5504365234375,0.2603822169583291,7.630757913291454,-0.04230360272228718
1740247041148417500,8.56041748046875,-0.0063715077932924025,7.279384269744157,-0.15897884807884693
1740247041158399500,8.5703994140625,-0.19402736510634422,6.8731509087622165,-0.18301205009520052
1740247041168380400,8.58038037109375,-0.2843022409237921,6.511364007750153,-0.024959084689617154
1740247041178361300,8.590361328125,-0.3140517747603357,6.121465110975503,0.15012977119088172
1740247041188343600,8.600343505859374,-0.28847441204190255,5.718834158399701,0.2594797882258892
1740247041198324500,8.610324462890626,-0.25905776342153547,5.283367104148865,0.25440964535474775
1740247041208306400,8.620306396484375,-0.2540240801032632,4.93258499675393,0.21700550511181355
1740247041218287400,8.630287353515625,-0.3547627745289355,4.665232867717743,0.2519534843742847
1740247041228268300,8.640268310546874,-0.6047978580612688,4.409817844712734,0.45537470076978204
1740247041238250500,8.65025048828125,-0.9953731197275221,4.071837058962881,0.8131266471773385
1740247041248231400,8.6602314453125,-1.398834531778097,3.7770822514772413,1.2651479458659887
1740247041258212600,8.670212646484375,-1.606426311856508,3.4481098248302935,1.9065631046414375
1740247041268194600,8.680194580078124,-1.5667384445905685,3.0055358611837026,2.6295605680823324
1740247041278175500,8.690175537109376,-1.3422947523020208,2.5382106103792785,3.3149563228815793
1740247041288157400,8.700157470703125,-1.0661328554749487,1.9905700061053035,3.9259079543322324
1740247041298138400,8.710138427734375,-0.8968985708415508,1.4310285361573098,4.430093155500293
1740247041308119600,8.72011962890625,-0.9372470209080725,0.969693173417449,4.994218153846264
1740247041318101500,8.7301015625,-1.0467736366190015,0.41000937238931656,5.622611918485164
1740247041328082700,8.740082763671875,-1.1604198164779693,-0.2428220834136009,6.183150875037908
1740247041338064400,8.750064453125,-1.2679378688454628,-0.9134802878081798,6.671506638911366
1740247041348045600,8.760045654296874,-1.3443616217039525,-1.6219693334251641,7.199232290142774
1740247041358026500,8.770026611328126,-1.326621528482437,-2.3382465487003325,7.684357401531934
1740247041368008700,8.7800087890625,-1.2109516607761381,-2.955684035038948,8.148356722784042
1740247041377989600,8.78998974609375,-1.0800899230264127,-3.4233500621050594,8.584778885802626
1740247041387970600,8.799970458984374,-0.9943100205406546,-3.7700282413125037,9.130072926950454
1740247041397952500,8.809952392578126,-0.9244482565462588,-4.057327179834246,9.70869932885766
1740247041407933400,8.819933349609375,-0.845312175989151,-4.339427965191007,10.275445907878876
1740247041417915600,8.82991552734375,-0.6634136400938033,-4.580020682117342,10.96759698215723
1740247041427896600,8.839896484375,-0.3414578142106533,-4.764222234258056,11.628895822054147
1740247041437877500,8.84987744140625,0.17012626503705977,-4.936787709140777,12.116138071727752
1740247041447859500,8.859859375,0.7505248642485588,-5.064687528344988,12.282715119850636
1740247041457840400,8.86984033203125,1.2506535565674304,-5.184464831370115,12.029713003206252
1740247041467821600,8.879821533203126,1.686918483197689,-5.204817299047112,11.581991447538137
1740247041477803500,8.889803466796875,2.0203332762062547,-5.170141706985235,11.11000755727291
1740247041487784400,8.899784423828125,2.242158164298534,-5.089776961416006,10.802806232929228
1740247041497766400,8.909766357421875,2.288980559619516,-4.876787121686339,10.734251167619227
1740247041507747300,8.919747314453126,2.204434144451469,-4.612063003066182,10.886312199133634
1740247041517728500,8.929728515625,1.9638918425381182,-4.400589997640252,11.11140573363304
1740247041527710500,8.93971044921875,1.6424878053188323,-4.441257523593307,11.150642350000142
1740247041537691600,8.949691650390625,1.3332546828866003,-4.747126722550392,10.803188510245084
1740247041547673300,8.95967333984375,1.0293839642703533,-5.251434088793396,10.035025040388106
1740247041557654300,8.969654296875,0.7206207243721932,-5.8725686760842795,8.990382132187484
1740247041567635500,8.979635498046875,0.4134042755246162,-6.411092784705757,7.955870741900801
1740247041577617400,8.989617431640625,0.06827208365015686,-6.8174015490114686,7.114197799196839
1740247041587598600,8.9995986328125,-0.21203765357136725,-6.997165410965681,6.607886107394099
1740247041597579500,9.00957958984375,-0.4073509668350219,-6.7786512548565865,6.527740557533503
1740247041607561500,9.0195615234375,-0.43005628124848005,-6.215772457179427,6.802078307673335
1740247041617542400,9.02954248046875,-0.309768617548421,-5.435979339805245,7.13230511829555
1740247041627524600,9.039524658203124,-0.09766535139493644,-4.618962114930152,7.249298928081989
1740247041637505500,9.049505615234375,0.0034627076745033262,-3.9995571279108524,7.066642267295718
1740247041647486500,9.059486572265625,-0.036600422644615174,-3.574233866533637,6.595553280043601
1740247041657468700,9.06946875,-0.1386100137889385,-3.1573294739335775,6.082829383111
1740247041667449600,9.07944970703125,-0.21110826376676559,-2.5981676509529352,5.850061660721898
1740247041677430300,9.08943017578125,-0.24668233903832731,-1.8635066377252338,5.96300181120336
1740247041687412500,9.09941259765625,-0.2138904418312013,-1.1128554436832665,6.216303787577152
1740247041697393400,9.109393310546874,-0.17306889436021447,-0.40789866384565826,6.414462553399801
1740247041707375600,9.119375732421876,-0.1746914540607482,0.23503391375541685,6.4952060691535465
1740247041717356500,9.1293564453125,-0.2596015149094164,0.7510860783278942,6.334596405002475
1740247041727337500,9.13933740234375,-0.3834944365598261,1.119065404239297,6.043305181974172
1740247041737319400,9.1493193359375,-0.4579086762268096,1.4518378076910972,5.729355552414059
1740247041747300400,9.15930029296875,-0.5333807543836534,1.8227502644449471,5.446628744113445
1740247041757281500,9.169281494140625,-0.6189608965136111,2.275624088309705,5.194267847982049
1740247041767263500,9.179263427734375,-0.6514870554566383,2.8071514699116347,5.022051917189359
1740247041777244700,9.18924462890625,-0.7212989889599383,3.336428734499216,4.862352353620529
1740247041787226400,9.199226318359376,-0.7960882724843918,3.860515736967325,4.630117130672931
1740247041797207600,9.20920751953125,-0.8153997066758573,4.412440009909868,4.370051066991687
1740247041807188500,9.2191884765625,-0.7790379150927066,4.9592795269340275,4.078691454902291
1740247041817170400,9.22917041015625,-0.6235901637494564,5.425948359656334,3.709990828979015
1740247041827151600,9.239151611328126,-0.39888694374188777,5.890509990966319,3.286572524440288
1740247041837133300,9.24913330078125,-0.19292028064727781,6.45058951331377,2.852748561221361
1740247041847114500,9.259114501953125,-0.07223762628026306,6.950159329640865,2.364042668735981
1740247041857095400,9.269095458984374,0.004996420047804713,7.416230780991912,1.8401847988486288
1740247041867077600,9.27907763671875,0.051172480289265514,7.843662412825227,1.3605202909529208
1740247041877058600,9.28905859375,0.07584880251474678,8.260269283783435,0.919375191065669
1740247041887039500,9.29903955078125,0.03435118241310119,8.63562936759591,0.4619242685437202
1740247041897021400,9.309021484375,-0.008237082469463348,8.922296437954902,-0.019090484917163846
1740247041907002400,9.31900244140625,-0.014307926815748214,9.159619339430332,-0.4818856910765171
1740247041916984600,9.328984619140625,0.006806136350892483,9.419829195496439,-0.9336287573456764
1740247041926965500,9.338965576171875,0.042229404974915084,9.62007178185582,-1.368185126492381
1740247041936946400,9.348946533203126,0.15530509146954863,9.868126505225897,-1.7610124779343603
1740247041946928400,9.358928466796876,0.3662450494647026,10.271535456436872,-2.037396054688096
1740247041956909300,9.368909423828125,0.6212462309718132,10.75920089995861,-2.356405890247226
1740247041966891500,9.3788916015625,0.886457840847969,11.184059466433524,-2.7269156114190816
1740247041976872400,9.38887255859375,1.0671849948763847,11.474072340089082,-3.162444040468335
1740247041986853600,9.398853515625,1.1191700336575507,11.626411604022978,-3.5832740820795297
1740247041996835600,9.408835693359375,1.0522925461709498,11.576533182132243,-4.075401181185245
1740247042006816500,9.41881640625,0.9012310470879077,11.369563333344459,-4.472013311862946
1740247042016797400,9.42879736328125,0.7349848383545875,11.243500666439532,-4.460575387525558
1740247042026779400,9.438779296875,0.5224059175133705,11.378298428463935,-4.045259140899777
1740247042036760600,9.448760498046875,0.3472621531078592,11.645367648905514,-3.475356728196144
1740247042046742500,9.458742431640625,0.20854458729121833,11.869342408508063,-2.95194952468574
1740247042056723700,9.4687236328125,0.15198033096101135,11.854714163696766,-2.6138515422970054
1740247042066704400,9.478704345703125,0.24562778848409653,11.633239988738298,-2.420352584978938
1740247042076686300,9.488686279296875,0.5139700610687956,11.46295940992236,-2.287862515375018
1740247042086667500,9.49866748046875,0.8865244763433933,11.308607052600383,-2.26400525444746
1740247042096649500,9.5086494140625,1.1627426334023474,10.98745903596878,-2.5973709476172924
1740247042106630100,9.518630126953125,1.419855107975006,10.515285760611295,-3.137976538687944
1740247042116611000,9.528611083984375,1.5757973648369312,9.91450364099741,-3.770393567493558
1740247042126593000,9.538593017578124,1.6334639563858508,9.240212633058428,-4.255771192339062
1740247042136574000,9.548573974609376,1.5569348434567452,8.682021116414665,-4.456026053658127
1740247042146555100,9.55855517578125,1.4163362861990927,8.329774781686067,-4.111171582746506
1740247042156537000,9.568537109375,1.284237846261263,8.196896005025506,-3.118376350682974
1740247042166518000,9.57851806640625,1.1827451185978948,8.253570662927627,-1.9785469753563403
1740247042176500000,9.5885,1.1257786381423474,8.352735386034846,-0.9880787249356507
1740247042186481000,9.59848095703125,1.177690027165413,8.329913897895812,-0.25072891101539135
1740247042196462000,9.608462158203125,1.2657844902038573,8.293089603367447,0.09838321734070778
1740247042206444000,9.618444091796874,1.3629682686269282,8.265233628192544,0.19157354221343992
1740247042216425200,9.62842529296875,1.445161398667097,8.120809959688783,0.20890344719886778
1740247042226407200,9.6384072265625,1.4274211593151092,7.769348637858033,0.29516484959125516
1740247042236388000,9.64838818359375,1.3017828553020954,7.377181796151399,0.4317021487593651
1740247042246369000,9.658369140625,1.049244849038124,7.012495082044601,0.5594792183667421
1740247042256351000,9.66835107421875,0.7715829959768802,6.648180123859643,0.6605377923965454
1740247042266332200,9.678332275390625,0.4460615865666419,6.248845874741673,0.7730237693697214
1740247042276313000,9.68831298828125,0.059691375374794006,5.7591001178145405,0.8980074088662863
1740247042286295300,9.69829541015625,-0.2980780336242169,5.238170702594519,1.03090079857409
1740247042296276000,9.70827587890625,-0.6465723223429173,4.686716092990339,1.274700202587247
1740247042306258000,9.7182578125,-1.0446421775482595,4.110375463932752,1.661037607488036
1740247042316239000,9.728239013671875,-1.4411772974669932,3.5120009899824858,2.00870479773283
1740247042326220000,9.738219970703126,-1.7875439265072344,2.8210747813239694,2.2958897544860837
1740247042336202200,9.7482021484375,-1.9914881438635288,2.233570368695259,2.690553089183569
1740247042346183200,9.75818310546875,-2.0387223348557946,1.726971384383738,3.287574979481101
1740247042356165000,9.7681650390625,-2.067275060123205,1.2632006111904979,4.068018669718504
1740247042366146000,9.77814599609375,-2.0186882854782042,0.7561568057209253,4.934567695003747
1740247042376127000,9.788126953125,-1.8728595724821089,0.24316695132851598,5.68804446786046
1740247042386109200,9.798109130859375,-1.6620670966662465,-0.25437165143191814,6.407213897445797
1740247042396090000,9.808090087890625,-1.3930617935955523,-0.7338438516259193,7.124788166794181
1740247042406071300,9.8180712890625,-1.1348574321329592,-1.1480600280553102,7.6809584067434065
1740247042416053000,9.828052978515625,-1.0457669437944888,-1.6153513765901326,8.040895880496501
1740247042426034000,9.838033935546875,-1.1425836424708367,-2.3074369844168423,8.276078847333789
1740247042436016000,9.84801611328125,-1.3803990036383271,-3.1337223883748053,8.479236444357037
1740247042445997000,9.8579970703125,-1.7154124640151858,-3.881677767461538,8.808435665497184
1740247042455978200,9.867978271484375,-2.0026839300081134,-4.4781911237150425,9.30785584422052
1740247042465960000,9.8779599609375,-2.112470292633772,-4.922170570245385,9.944287369364499
1740247042475941000,9.887941162109374,-2.0318448503017423,-5.17858044950664,10.641253734970093
1740247042485923000,9.897923095703124,-1.8119813254103063,-5.222486811250448,11.316964546579122
1740247042495904000,9.907904052734375,-1.6116520836807786,-5.108617855486274,11.940330253922939
1740247042505885200,9.91788525390625,-1.4515375095702707,-4.977875506332516,12.451256161522865
1740247042515867000,9.927866943359374,-1.2932777695462108,-4.878318569037318,12.694344786918162
1740247042525848000,9.93784814453125,-1.0823884092271328,-4.718551785451173,12.674520142507552
1740247042535829000,9.9478291015625,-0.930576384037733,-4.654288279855251,12.313416547584533
1740247042545811200,9.957811279296875,-0.9264704100236296,-4.708021623608469,11.7508820333004
1740247042555792100,9.967792236328124,-1.0146076892904936,-4.774291208329797,11.17649575318098
1740247042565774000,9.977774169921876,-1.1424600160911678,-4.724961067971587,10.859076986205578
1740247042575755000,9.987755126953125,-1.2867105199851094,-4.675205980199575,10.950019239890574
1740247042585736000,9.99773583984375,-1.2863552768066524,-4.796195581623912,11.242913806462287
1740247042595718100,10.00771826171875,-1.0733712822958827,-5.163034505328536,11.262941864490509
1740247042605699000,10.017698974609376,-0.7034674180626869,-5.689141615447402,10.99368770122528
1740247042615681300,10.027681396484375,-0.372069663964957,-6.281677884763479,10.391429079318046
1740247042625662200,10.037662109375,-0.36473815203309057,-6.93987349794805,9.607284196475147
1740247042635643000,10.047642822265624,-0.6366121424078941,-7.619865932399034,8.751009312444925
1740247042645625000,10.057625,-1.1686427973568438,-8.201800143679977,8.054599411678314
1740247042655606000,10.06760595703125,-1.7973334991157053,-8.55163181848228,7.686306197512149
1740247042665588200,10.077588134765625,-2.3580025117889045,-8.568786951422691,7.543741308617592
1740247042675569200,10.087569091796874,-2.8425439780712125,-8.237167225137352,7.544592957010865
1740247042685550000,10.097550048828126,-3.266879397454858,-7.650680757379531,7.710711739972234
1740247042695532000,10.107531982421875,-3.567556872987747,-6.889093158781528,7.913366648170352
1740247042705513000,10.117512939453125,-3.6426632596373554,-5.9877142276555295,8.086077669003606
1740247042715494100,10.127494140625,-3.512752100610733,-5.016036017900705,8.304206625187396
1740247042725476000,10.13747607421875,-3.260651316720247,-4.033355937138199,8.381123276129365
1740247042735457300,10.147457275390625,-3.0424504643440247,-2.9825223576039073,8.371374620053171
1740247042745439000,10.15743896484375,-2.823033806437254,-1.936736124587059,8.361011631470918
1740247042755420000,10.167419921875,-2.6634184140205384,-1.0375748695105314,8.241258293843268
1740247042765401000,10.177401123046875,-2.5621499966323373,-0.25579613127708434,7.8900980007857076
1740247042775383000,10.187383056640625,-2.570789230161905,0.33636779759526253,7.400584299048781
1740247042785364200,10.1973642578125,-2.5554829399585723,0.8077835325837135,6.933035176360606
1740247042795346000,10.207345947265624,-2.4700468824744224,1.0593991633057593,6.416340622231364
1740247042805327000,10.2173271484375,-2.238131977522373,1.2171493463724852,6.034212943980098
1740247042815308000,10.22730810546875,-1.6511961585618555,1.7358628391087054,5.659764714315533
1740247042825290000,10.2372900390625,-0.9520308216072618,2.455420391228795,5.222923449102044
1740247042835271200,10.247271240234374,-0.41992052555084225,3.1089322305113076,4.676559148374199
1740247042845252000,10.257252197265625,-0.055657005292177195,3.6529067134931683,4.005378381410241
1740247042855234000,10.267234130859375,0.1357448336161673,4.091960978581011,3.360132850691676
1740247042865215000,10.277215087890625,0.1381238377071917,4.503604381912947,2.8722482114613053
1740247042875197200,10.287197265625,-0.006616787791252136,4.90649427768588,2.555078450810909
1740247042885178000,10.29717822265625,-0.17881006836071608,5.382237812745571,2.4340309817194936
1740247042895159000,10.307158935546875,-0.3156710465252399,5.946033140745759,2.4171195944070814
1740247042905141000,10.31714111328125,-0.44189036529660225,6.445109036076069,2.4021903208225965
1740247042915122000,10.327121826171876,-0.5478771895088255,6.961112685331702,2.3454122025460005
1740247042925104000,10.337104248046876,-0.5698235022485256,7.482670461583137,2.109669848260283
1740247042935085000,10.3470849609375,-0.5540870039343834,7.917204034376144,1.7248744121044872
1740247042945066000,10.35706591796875,-0.5921323646903037,8.362828910025954,1.396592890331149
1740247042955048200,10.367048095703124,-0.7156042844496667,8.873122949463129,1.2253642170101404
1740247042965029000,10.377029052734375,-1.0196028672292827,9.318120633125305,1.1077473068892956
1740247042975011000,10.387010986328125,-1.3950586665011941,9.576183540290593,1.0110042579710483
1740247042984992000,10.396991943359374,-1.7519146869823337,9.850977802026271,0.9727052147150039
1740247042994973200,10.40697314453125,-2.0654117504693565,10.279505996924637,0.9330383902370929
1740247043004955100,10.416955078125,-2.208944169221818,10.772303542637824,0.8581038530230521
1740247043014936000,10.42693603515625,-2.242449256199598,11.299261716628074,0.6657733549624681
1740247043024917200,10.436917236328124,-2.202009401522577,11.840710188263653,0.3934031055033207
1740247043034899000,10.44689892578125,-2.116449717658758,12.389967872345446,0.025085341417789456
1740247043044880100,10.456880126953125,-2.0459284668423234,12.821332167452573,-0.6032318508535623
1740247043054862000,10.466862060546875,-1.9906804807424545,12.965420320391654,-1.4654875628590582
1740247043064843300,10.47684326171875,-2.0078724385619164,12.854103971719741,-2.464939330202341
1740247043074824200,10.48682421875,-2.035852332377434,12.587481326001882,-3.469889694961905
1740247043084806000,10.496805908203125,-2.0337676350578664,12.365735932886599,-4.128371723872423
1740247043094787000,10.506787109375,-1.9994854262277484,12.414008088624477,-4.317368693596125
1740247043104768500,10.5167685546875,-1.9114833176478743,12.590699703526496,-4.208172990339994
1740247043114749700,10.526749755859376,-1.75603352047801,12.655994305735826,-4.0539533194869755
1740247043124730600,10.536730712890625,-1.546307212588936,12.596481794059276,-4.052529424163699
1740247043134712600,10.546712646484375,-1.2888541078850626,12.48988955129981,-4.165905043452978
1740247043144693500,10.556693603515624,-0.9951716058060526,12.314061859750748,-4.29639487915039
1740247043154675700,10.56667578125,-0.7639420527696609,11.855261276185512,-4.553439549183845
1740247043164656600,10.57665673828125,-0.6697476654209196,11.087035847008227,-4.872146602404118
1740247043174637600,10.586637451171875,-0.6895806392684578,10.297409902405738,-4.893322661423682
1740247043184619800,10.596619873046874,-0.696258071205765,9.829282687568664,-4.367151253896951
1740247043194600700,10.6066005859375,-0.7137633327580988,9.563643207669257,-3.432623501884937
1740247043204581600,10.61658154296875,-0.7248012979924678,9.335853858214616,-2.310413954401016
1740247043214563600,10.6265634765625,-0.7161657177247107,9.04527867450118,-1.1736620868235825
1740247043224544500,10.63654443359375,-0.6464895394302904,8.710533509671688,-0.3671124799489975
1740247043234526700,10.646526611328126,-0.6491805320799351,8.49347890472114,0.06247954478859901
1740247043244507600,10.656507568359375,-0.7562858389280736,8.461006960183381,0.32710780181884763
1740247043254488800,10.66648876953125,-0.9996994584940373,8.318158578172326,0.3977326591402292
1740247043264470500,10.676470458984374,-1.3518600146353243,7.9643591687828295,0.43944531023204325
1740247043274451700,10.68645166015625,-1.7181915733397006,7.4550336821168655,0.5307622424483299
1740247043284433700,10.69643359375,-1.980042328480631,6.824848942407965,0.757412358739972
1740247043294414600,10.70641455078125,-2.0647955182671547,6.114167939704656,0.8857704431056975
1740247043304395800,10.716395751953126,-2.0195432948723435,5.3919882223874325,0.9533569556444883
1740247043314377500,10.72637744140625,-1.80669184070006,4.7646194168820974,0.9568728548109531
1740247043324358700,10.736358642578125,-1.4875086944006382,4.213555852422118,0.8964595949023961
1740247043334339600,10.746339599609374,-1.1774971349418162,3.6958383849859238,0.7350649178534746
1740247043344321800,10.75632177734375,-0.8757658395070582,3.181201932430267,0.696447310167551
1740247043354302700,10.766302734375,-0.7025112133163959,2.5948916980221868,0.7726075897842645
1740247043364284400,10.776284423828125,-0.6111562871772795,2.0835370436161753,1.0471610285013913
1740247043374265600,10.786265625,-0.435975003772974,1.5392834514319895,1.4563485631138084
1740247043384247600,10.79624755859375,-0.07932670775838196,0.9861208688661456,1.8987398636698722
1740247043394228700,10.806228759765625,0.3768049488585442,0.6352925842419266,2.451729135495424
1740247043404209700,10.816209716796875,0.7831799833334981,0.44742520307004446,3.094617873954773
1740247043414191600,10.826191650390625,1.0775615735925734,0.24459844543635845,3.7826562522172926
1740247043424172500,10.836172607421876,1.2077439507760106,-0.00459317300915718,4.375709238883853
1740247043434153500,10.846153564453125,1.0363467890202998,-0.3557961361646652,5.120651407629251
1740247043444135700,10.8561357421875,0.665345996395871,-0.7393821965306997,6.039907940751314
1740247043454116600,10.86611669921875,0.28728564064875245,-1.1407716246128081,6.892347776663303
1740247043464098800,10.876098876953124,0.009433014255762099,-1.5681582482606171,7.681329578143358
1740247043474079500,10.88607958984375,-0.2503143388651311,-1.9520845003664493,8.451393328663706
1740247043484060400,10.896060302734375,-0.5438042409814894,-2.3889596678495404,9.18901494526267
1740247043494042600,10.906042724609375,-0.8404195816420018,-2.9018068989008663,9.9124695048213
1740247043504023600,10.9160234375,-1.16877592221722,-3.454377068531513,10.606240873777866
1740247043514005800,10.926005859375,-1.5160593738414345,-4.051391944566369,11.288865410298108
1740247043523986700,10.935986572265625,-1.8368707058645783,-4.737821134066581,11.895315054154395
1740247043533967600,10.945967529296874,-2.024779149699211,-5.363064910241961,12.42782150992155
1740247043543949600,10.955949462890626,-2.215909478189796,-5.82327477608323,12.870560601001976
1740247043553930500,10.965930419921875,-2.384732259412855,-6.143294665467739,13.143432954764366
1740247043563912700,10.97591259765625,-2.4494413168191906,-6.29788258511126,13.194780864685773
1740247043573893600,10.9858935546875,-2.276312947356701,-6.34959932834506,13.097812190318107
1740247043583874800,10.995874755859376,-1.7395802521966397,-6.3002738641619676,13.058552193075418
1740247043593856500,11.0058564453125,-0.7971826435923576,-6.121710025647282,13.308657419234514
1740247043603837700,11.015837646484375,0.2507084527492523,-5.718545989108085,13.408600140976905
1740247043613818600,11.025818603515624,1.19945301922746,-5.204418070596456,13.304253631317614
1740247043623800600,11.035800537109376,2.0530352301076054,-4.955658998349309,12.95731650891304
1740247043633781800,11.04578173828125,2.7454724278509617,-5.257586181682348,12.241088977998494
1740247043643763500,11.055763427734375,3.2171897761344908,-5.913351937371492,11.314116755932568
1740247043653744600,11.06574462890625,3.4085248334169385,-6.652972034311294,10.43668510210514
1740247043663725600,11.0757255859375,3.4001381133437154,-7.312028648239374,9.803642050355672
1740247043673707800,11.085707763671875,3.2965164108276364,-7.678701567727327,9.412252038240432
1740247043683688700,11.095688720703125,3.2216882565975187,-7.5845134639889,9.291282895082235
1740247043693670400,11.10567041015625,3.105755354040861,-6.917725963547825,9.409130691349505
1740247043703651600,11.115651611328126,2.7781881180167196,-5.9217889263272285,9.670898882773518
1740247043713632500,11.125632568359375,2.199806046259403,-4.948303374889493,9.827352596288918
1740247043723614700,11.13561474609375,1.435823076957464,-4.148748156946898,9.79639222535789
1740247043733595600,11.145595703125,0.6171849728822708,-3.462987660488486,9.708691730073093
1740247043743577600,11.15557763671875,-0.12001761458702384,-2.7642905255675316,9.548010754251479
1740247043753558500,11.16555859375,-0.7703415445484221,-2.131304172441363,9.29614085650742
1740247043763539500,11.17553955078125,-1.374930070707947,-1.4972072277247905,8.89579947617352
1740247043773521700,11.185521728515624,-1.9740180997550487,-0.9669874215900898,8.390984744930266
1740247043783502600,11.195502685546876,-2.4744424870848656,-0.6320809287190436,7.753785742545127
1740247043793484800,11.20548486328125,-2.855855879586935,-0.3963385744333267,7.098745963042974
1740247043803465700,11.2154658203125,-3.0576375120818615,-0.13518939169049263,6.435901062747836
1740247043813446400,11.2254462890625,-3.1895582573652264,0.1745914277523756,5.808410384428501
1740247043823428600,11.2354287109375,-3.240214093369245,0.5750245780229568,5.234677599781751
1740247043833409500,11.245409423828125,-3.159716076809168,1.0379863729208707,4.758188214790821
1740247043843391700,11.255391845703125,-3.033611324328184,1.4486068629458546,4.249455433320999
1740247043853372700,11.26537255859375,-2.831258321686089,1.8717562874153255,3.7588235412091016
1740247043863353900,11.275353759765625,-2.532911042666435,2.4130332018762823,3.358905939245224
1740247043873335600,11.28533544921875,-2.2567668276265263,2.989630728304386,2.918064790740609
1740247043883316500,11.29531640625,-2.0997056497372686,3.546111057116091,2.559250768059492
1740247043893297700,11.305297607421876,-1.9953414582908153,4.038160707071423,2.2749930969297885
1740247043903279600,11.315279541015625,-1.8926140742659567,4.584810254481434,2.070607419416308
1740247043913260800,11.3252607421875,-1.8581190994679926,5.109616803395748,1.9121599017351865
1740247043923242500,11.335242431640625,-1.8925453929439187,5.6700622364461415,1.9115438156634568
1740247043933223700,11.3452236328125,-1.9794087067522108,6.327988969561457,1.9090689499825237
1740247043943204600,11.35520458984375,-2.084367941482365,6.860939077442884,1.7688766354382037
1740247043953186600,11.3651865234375,-2.203608653412759,7.3503084022730585,1.573712375256419
1740247043963167700,11.375167724609375,-2.359930557242036,7.839131199136376,1.433003343361616
1740247043973149400,11.3851494140625,-2.6115222225666046,8.33771434251368,1.4636767140448093
1740247043983130600,11.395130615234375,-2.9326369214504955,8.917704433989524,1.65989252910614
1740247043993111600,11.405111572265625,-3.3071544169589875,9.451742921629547,1.9437030409902334
1740247044003093800,11.41509375,-3.614575813794136,9.977847109138965,2.2107962268292902
1740247044013074700,11.42507470703125,-3.7322470844507216,10.678988130080699,2.4134534731149673
1740247044023056400,11.435056396484375,-3.7381849500671027,11.512115362757443,2.553623575827479
1740247044033037600,11.44503759765625,-3.6792978768125173,12.246703895270823,2.509307464239001
1740247044043018500,11.4550185546875,-3.58897112467736,12.795664642232655,2.213223161715269
1740247044053000700,11.465000732421874,-3.545304124647379,13.180064941591024,1.62639708673954
1740247044062981600,11.474981689453125,-3.5320421997532248,13.401046949118374,0.7882026338011026
1740247044072963800,11.4849638671875,-3.517400510938465,13.423196821606158,-0.21706804895401
1740247044082944500,11.494944580078124,-3.4854020291313526,13.195676352220772,-1.382376148930192
1740247044092925400,11.504925537109376,-3.4255043175294992,12.870698548167944,-2.493675010821223
1740247044102908200,11.514908203125,-3.3429531678318973,12.659590284401178,-3.1846155402660368
1740247044112889000,11.52488916015625,-3.2598689341709015,12.760269503724574,-3.1848721453756093
1740247044122871000,11.53487109375,-3.1395906958863136,13.047165706664323,-2.725547245675325
1740247044132852000,11.54485205078125,-3.015786037041247,13.138406066513062,-2.3927999766647816
1740247044142833000,11.5548330078125,-2.8574419797345993,12.912532779812812,-2.4443524692475793
1740247044152815000,11.564815185546875,-2.7464588085398076,12.614176440703869,-2.638155377948284
1740247044162796000,11.574796142578125,-2.6472832717776296,12.241021173459291,-3.108280488604307
1740247044172777200,11.584777099609376,-2.5451377792939542,11.694136648249625,-3.7653263472318645
1740247044182759200,11.59475927734375,-2.404944295705855,11.157158600026369,-4.354421536183357
1740247044192739800,11.60473974609375,-2.2812401746258137,10.823547407662868,-4.686469717013836
1740247044202722000,11.61472216796875,-2.180532459860295,10.639982984381913,-4.63166728272438
1740247044212703000,11.624702880859376,-2.0195172836482524,10.516292307305335,-4.39938120637238
1740247044222684200,11.63468408203125,-1.9308999657794832,10.309614719462393,-4.054848807021975
1740247044232666000,11.644666015625,-1.8486951453015208,9.97384430323839,-3.6450206364184616
1740247044242647300,11.654647216796874,-1.7667057211399078,9.593688217321038,-3.060473027768731
1740247044252629000,11.66462890625,-1.6529880104146897,9.159912769418954,-2.3240724773973227
1740247044262610200,11.674610107421875,-1.4737461265079677,8.728664209645986,-1.6008827062547206
1740247044272591000,11.684591064453125,-1.286397070121765,8.294888761743902,-0.9667384152650833
1740247044282573000,11.694572998046874,-1.1374575316287576,7.8378060880124565,-0.495030419331789
1740247044292554200,11.70455419921875,-0.9662497549653053,7.306966688674688,-0.19309914434552192
1740247044302536000,11.714535888671875,-0.8543510763607919,6.773751792377233,-0.08741291051506996
1740247044312517000,11.72451708984375,-0.7757727758169174,6.229796890878677,-0.033031331986188885
1740247044322498000,11.734498046875,-0.633175153696537,5.710857772693037,0.15469138001799582
1740247044332480300,11.744480224609376,-0.40620866493210195,5.211259314793348,0.3435743679732084
1740247044342461200,11.754461181640625,-0.09824994634985923,4.697040503127873,0.445503295096755
1740247044352443000,11.76444287109375,0.2383503448270261,4.180279313503205,0.5340525161653756
1740247044362424000,11.774424072265624,0.5190437476038933,3.7197017833933232,0.5774573581278324
1740247044372405000,11.784405029296876,0.6609831250112503,3.325655996072292,0.5174363124072552
1740247044382387200,11.79438720703125,0.6409482719160616,3.0059304134592413,0.5041524679422378
1740247044392368000,11.8043681640625,0.44780689586400985,2.801020712071657,0.6374748967170715
1740247044402350000,11.81435009765625,0.09805362006016075,2.553376030807197,1.1110013402491807
1740247044412331000,11.8243310546875,-0.18716398214288055,2.2666879176601764,2.023154763367772
1740247044422312000,11.83431201171875,-0.2581423290770501,1.9253321025192736,2.9700217724710702
1740247044432294100,11.844294189453125,-0.041564182531833645,1.5061819768190383,3.876121886900067
1740247044442275000,11.854275146484374,0.3432791844189167,1.134729421839118,4.700568384993076
1740247044452257300,11.86425732421875,0.5748444722156971,0.7959569011896849,5.424845951372385
1740247044462238000,11.874238037109375,0.5862848077058792,0.41272213847935196,6.040602352756261
1740247044472219000,11.884218994140625,0.41415933167561886,-0.03575169686079025,6.627064270594715
1740247044482201000,11.894201171875,0.1137375844694674,-0.5300222377359867,7.305935592061281
1740247044492182000,11.90418212890625,-0.30040333476662634,-1.014496191740036,8.142028104284405
1740247044502164200,11.914164306640625,-0.7017033309996128,-1.4689841728031634,9.126980806154013
1740247044512145200,11.924145263671875,-1.046779335707426,-2.0417314535439015,10.069581974506377
1740247044522126000,11.9341259765625,-1.2935678385339677,-2.7807886559039354,10.904025550478696
1740247044532108000,11.94410791015625,-1.4436508479736745,-3.586587736672163,11.647227597558498
1740247044542089000,11.9540888671875,-1.4997488750316201,-4.2683062642633915,12.542974660277366
1740247044552071200,11.9640712890625,-1.394954329343885,-4.792607786265015,13.572670759236813
1740247044562052000,11.974052001953124,-1.115378970811516,-5.192468689605593,14.419100541079043
1740247044572033300,11.984033203125,-0.6817758107364177,-5.510622785118222,14.753906496185063
1740247044582015000,11.994014892578125,-0.11773564112968742,-5.72400133190453,14.487737439453602
1740247044591996200,12.00399609375,0.5355469925068318,-5.696051833227276,13.723694848918914
1740247044601977000,12.01397705078125,1.2107107646923512,-5.431807022556662,12.739156573069096
1740247044611959000,12.023958984375,1.8898259048521517,-4.939150346618891,12.069305008882283
1740247044621940200,12.033940185546875,2.3796868125915527,-4.232486762863397,11.81145486768484
1740247044631922000,12.043921875,2.7165315800487995,-3.526759583175182,11.842958259451388
1740247044641903000,12.053903076171874,2.8176246408700942,-3.069878569495678,11.927846035403013
1740247044651884000,12.063884033203125,2.7229192352592944,-2.9864351471334696,11.837316454172134
1740247044661866200,12.0738662109375,2.472619947832823,-3.4544267528921364,11.419856765776872
1740247044671847200,12.08384716796875,2.201939551156759,-4.4806092907726764,10.561832407730817
1740247044681828900,12.093828857421874,1.8563982670247554,-5.670715147396922,9.706903677612543
1740247044691810000,12.10381005859375,1.5246774184525012,-6.570307779628038,9.201742324888706
1740247044701791000,12.113791015625,1.2193196761488914,-7.060040677073597,9.032288844546676
1740247044711773200,12.123773193359375,0.9608183045011013,-7.048832469838858,9.187538442969322
1740247044721754000,12.133754150390626,0.6733213591892272,-6.57321460698545,9.391037400776147
1740247044731736000,12.143736083984376,0.30150113994069394,-5.88454026890695,9.5396555983603
1740247044741717000,12.153717041015625,-0.0013211656011641025,-5.190996863487363,9.434051197594403
1740247044751698000,12.163697998046874,-0.1072655389111489,-4.616583110839128,9.007216947132349
1740247044761680100,12.17368017578125,-0.07866963208913802,-4.026059934911132,8.483156248149275
1740247044771661000,12.1836611328125,0.0652210255164653,-3.404526703691482,7.938037563568353
1740247044781643300,12.193643310546875,0.26854798775725064,-2.8726363339960574,7.314985159957408
1740247044791624200,12.203624267578125,0.41244098345041275,-2.440965164896846,6.7619707536906
1740247044801604900,12.21360498046875,0.4444061475098133,-2.124307445421815,6.292257146444916
1740247044811587000,12.223587158203125,0.33607904378175735,-1.836535044169426,6.002308570197224
1740247044821568000,12.233568115234375,0.13890475895181298,-1.559344827207923,5.805415294265747
1740247044831550200,12.24355029296875,-0.1325495447061956,-1.1958704115003347,5.598243200904131
1740247044841531100,12.25353125,-0.3623756606854498,-0.7015478481769561,5.4450084494352335
1740247044851512300,12.26351220703125,-0.5970248129069805,-0.11480185270011424,5.219680521658063
1740247044861494000,12.273493896484375,-0.817903944581747,0.5380564911097288,4.893122170415521
1740247044871474000,12.283473876953124,-1.0980009889006614,1.5210034061148763,4.3494133526325225
1740247044881456000,12.2934560546875,-1.3435448984935878,2.2654794186532494,3.9770705708146092
1740247044891437000,12.30343701171875,-1.6329031076326965,3.0010213063687083,3.667648063290119
1740247044901418000,12.31341796875,-1.864622636143118,3.723693191117048,3.310661256036162
1740247044911400200,12.323400146484374,-2.0425255265310405,4.330750153216719,3.047280368718505
1740247044921381000,12.333381103515626,-2.2137109452322123,4.9555917783319945,2.8339725490808485
1740247044931363000,12.343363037109375,-2.314012271153927,5.594413413482904,2.6725825482070444
1740247044941344000,12.353343994140625,-2.3270589458622037,6.21830285243988,2.5922142955064773
1740247044951325200,12.3633251953125,-2.2817688746750355,6.8452119314789766,2.4483991142898796
1740247044961307100,12.37330712890625,-2.2309634010672568,7.431798937001824,2.217216030743718
1740247044971288000,12.3832880859375,-2.1833657835900784,8.067076615935564,2.148552244362235
1740247044981270000,12.39327001953125,-2.2176772185146807,8.810819345763326,2.157675462016463
1740247044991251000,12.4032509765625,-2.355596473560482,9.390047805216907,2.055540783187747
1740247045001232100,12.413232177734375,-2.526762456908822,9.766616680297256,1.7889497016519307
1740247045011214000,12.423214111328125,-2.716818288035691,9.998159244805574,1.4834809001892804
1740247045021195300,12.4331953125,-2.8492577964961527,10.269009152829646,1.196615676909685
1740247045031177000,12.443177001953124,-2.9381743895724415,10.679497833168506,0.9940145447254181
1740247045041158100,12.453158203125,-2.9070319400727747,11.144887147474288,0.8335375670433044
1740247045051139000,12.46313916015625,-2.836026559001207,11.616590467232465,0.6096931558221578
1740247045061121000,12.47312109375,-2.808770303285122,12.036383567011356,0.3666220660835504
1740247045071102200,12.483102294921874,-2.7374340828239916,12.488635167324542,0.13165946399867534
1740247045081084000,12.493083984375,-2.593316703790426,12.978153545236587,-0.17400456777513026
1740247045091065000,12.503065185546875,-2.4974586210131644,13.409161281991004,-0.6539958234071731
1740247045101045500,12.51304541015625,-2.3632991568922996,13.620683387255667,-1.5213421365499495
1740247045111027700,12.52302783203125,-2.090882730203867,13.644429004502296,-2.764616104260087
1740247045121008600,12.533008544921875,-1.6787516894854604,13.792992257028818,-4.037935081622004
1740247045130990800,12.542990966796875,-1.1520637107387184,14.115927741599082,-5.102473361381888
1740247045140971800,12.5529716796875,-0.6104407593190669,14.46442553744912,-5.976248246267438
1740247045150952700,12.56295263671875,-0.0819099291846156,14.47151344988346,-6.763814335730672
1740247045160934700,12.5729345703125,0.3201157509744167,14.121177917212247,-7.412001765120029
1740247045170915600,12.58291552734375,0.5557260033130645,13.703147735452651,-7.606071215802431
1740247045180897800,12.592897705078125,0.5650257465779781,13.258236561030149,-7.297530751809477
1740247045190878700,12.602878662109376,0.2106046981588006,12.625352499234676,-6.566086947062611
1740247045200860000,12.61285986328125,-0.3359387585282326,11.861936516165732,-5.835199022632837
1740247045210841600,12.622841552734375,-0.812866534936428,11.19576159466505,-5.269216413721442
1740247045220822800,12.63282275390625,-1.2108768419742584,10.81384668238163,-4.512187501341105
1740247045230804700,12.6428046875,-1.4838627391137182,10.591001219069957,-3.470584691488743
1740247045240785700,12.65278564453125,-1.6963516435839234,10.417302356243132,-2.122943755853176
1740247045250766800,12.662766845703125,-1.8634404406212268,10.223729749166965,-0.5018412683904171
1740247045260748500,12.67274853515625,-1.8667187316395342,9.983777668231726,1.074142558929324
1740247045270729700,12.682729736328126,-1.8084614807210861,9.45593745070994,2.240849419787526
1740247045280711700,12.692711669921875,-1.6251440179385244,8.817809643042088,3.3032115245521068
1740247045290692900,12.70269287109375,-1.4512659991525112,8.106705446490645,3.9870682332158087
1740247045300673800,12.712673828125,-1.2794903594732283,7.201041969913244,3.98980788731277
