time,seconds_elapsed,z,y,x
1740006563645467600,0.044467529296875,5.400913871642947,-0.759070355080068,0.43314635621830816
1740006563655451000,0.054450927734375,4.3346313785642385,-0.8190072296485305,-0.8232242628216743
1740006563665433600,0.06443359375,3.405620344147086,0.16739742459505796,1.5877059754259883
1740006563675416800,0.074416748046875,2.4235183555334805,-0.2128992388367653,2.6393410806015134
1740006563685399800,0.08439990234375,2.044174170520902,-0.7391536484718322,2.2844961076818406
1740006563695382800,0.0943828125,2.4608885935068128,-0.34322219353467226,1.1509265234023331
1740006563705364700,0.10436474609375,2.770072616100311,0.2593307351440191,0.5703811361312866
1740006563715347700,0.11434765625,1.843413113245368,0.3463879640892148,1.4666608444221316
1740006563725331000,0.1243310546875,-0.25619185259640215,-0.0704834030240774,2.1005574442610144
1740006563735313700,0.134313720703125,-1.6303607296735048,-0.21214958951324223,2.4716882199406625
1740006563745296600,0.144296630859375,-2.2433494199097157,0.2873877858489752,2.22783357860893
1740006563755280000,0.15427978515625,-2.1454887651383876,0.5979495265364646,1.6773130349844694
1740006563765262800,0.164262939453125,-1.4537129539132116,1.0903723937183618,1.1729995312616228
1740006563775245600,0.17424560546875,-0.5218804323345423,1.8808225141853092,1.2302256855666636
1740006563785227800,0.184227783203125,0.6899795754581689,2.3568036573931574,1.451345932520926
1740006563795210800,0.194210693359375,2.4766268453866243,2.691289879025519,1.655664682278037
1740006563805193700,0.20419384765625,4.918136200162768,3.805757434080541,2.9466286219239235
1740006563815176700,0.2141767578125,7.503916078707575,4.590229356920719,3.67887380618155
1740006563825159700,0.22415966796875,6.327621305292844,2.2138822101458904,1.6839891517475247
1740006563835143000,0.234142822265625,4.396874776509404,-0.12837854263186455,0.27120705089867114
1740006563845125400,0.24412548828125,1.9970085147202015,-1.0358534525454044,-0.7911758043929934
1740006563855108600,0.254108642578125,0.05082008665502071,0.6209393569797277,-0.5235720386832953
1740006563865091600,0.264091552734375,-0.6046411331295967,3.405788101929426,0.8490621761724352
1740006563875073500,0.274073486328125,-0.9669330610543488,5.377306201562285,1.5373182888388632
1740006563885056500,0.284056396484375,-1.2512538605481385,6.181102710336447,1.3833368106558919
1740006563895039500,0.29403955078125,-1.198338847440481,6.074107731994986,1.3519941624090075
1740006563905022700,0.304022705078125,-0.8534101422488689,5.851479126304388,2.0142951650857923
1740006563915005400,0.31400537109375,-0.3637771980464458,5.841046579617261,2.4095702019408343
1740006563924988400,0.323988525390625,0.10928688867092132,5.786099183899164,2.6333549919292327
1740006563934971600,0.3339716796875,0.05671966608762741,5.9504334215313195,3.4794746849089857
1740006563944954600,0.34395458984375,-0.11607727946341037,6.331522404384613,4.957184600481391
1740006563954937300,0.353937255859375,0.1869084730118513,6.705484311836957,5.439398208338022
1740006563964919600,0.36391943359375,0.6103139180690049,6.542762770098447,4.838578094801306
1740006563974902500,0.373902587890625,0.036926585859060286,6.218555365896225,3.6368373299628494
1740006563984885500,0.383885498046875,-1.7747370519042014,5.904075574982166,1.3281921388000248
1740006563994868500,0.393868408203125,-2.549082425266504,5.140857744833827,0.18737433695793151
1740006564004851500,0.4038515625,-3.2535411924540996,5.166123703515529,-1.3642857809662818
1740006564014834700,0.413834716796875,-4.029582848340272,5.096975348487496,-2.06260297665894
1740006564024817400,0.4238173828125,-4.66489121467322,5.1932840976417065,-1.540207580539584
1740006564034800600,0.433800537109375,-5.418370617878437,5.163820102748274,-0.4737216738432646
1740006564044783600,0.44378369140625,-6.142950966596603,4.92061398845315,0.8477478787034749
1740006564054765600,0.453765625,-6.241406080129742,4.643932305535674,1.0155512537509201
1740006564064748500,0.46374853515625,-5.807860349330306,4.064619674929976,0.9702835405260324
1740006564074731500,0.4737314453125,-5.39096706264615,3.3732486451134083,1.132533957621455
1740006564084714500,0.483714599609375,-4.5944981202811,3.0104093124389646,1.7683587490439414
1740006564094697500,0.493697509765625,-3.586137654817104,3.1911493259489534,2.618084065300226
1740006564104680400,0.503680419921875,-2.5906588827580213,3.0276258201777932,3.5562048733681437
1740006564114663700,0.51366357421875,-0.21353286056518553,2.1879548649460077,3.936671340408921
1740006564124646400,0.523646484375,3.517777819818258,0.6289730258315801,4.752530627420544
1740006564134629400,0.53362939453125,5.846792429792881,-0.30952479885518547,6.359500544634461
1740006564144611600,0.543611572265625,6.504996226283907,-2.004830586647987,7.676900655785203
1740006564154594300,0.55359423828125,5.999095453369617,-4.3559383704870935,7.088652439051866
1740006564164577500,0.56357763671875,5.2531198499232525,-4.70091500647366,5.801895303446054
1740006564174560500,0.573560546875,4.1322383361726995,-4.168901887181401,5.48143760716617
1740006564184543500,0.58354345703125,3.284478474770486,-3.1763094842135904,5.511066437232494
1740006564194526500,0.5935263671875,2.9720006713286042,-2.2628970009446143,5.347881954157352
1740006564204509400,0.603509521484375,2.883604887256026,-1.3942553872942924,5.395429887273908
1740006564214492700,0.61349267578125,2.7813667480528355,-0.9025567427337169,4.972639359244704
1740006564224475600,0.6234755859375,2.582150874392688,-1.0643629231929779,4.280986297616362
1740006564234457600,0.63345751953125,2.338461945016682,-1.2097574825555086,3.889572320103645
1740006564244440600,0.643440673828125,2.3971114101231095,-0.8437322133213281,4.552364028906822
1740006564254423600,0.653423583984375,2.165441419842839,0.07766366991698742,6.138633103397488
1740006564264406500,0.663406494140625,1.5840581204429267,0.9972884518295526,7.661401473358273
1740006564274389500,0.673389404296875,1.2042223525211215,2.0201070662349463,8.899217175662518
1740006564284372500,0.68337255859375,1.0729890049800277,2.74178234116137,9.516169508832693
1740006564294355700,0.693355712890625,0.2554939334601164,3.2571745805203913,8.927033987870812
1740006564304338400,0.70333837890625,-1.1876732226498425,3.046053457272053,7.074821482098102
1740006564314321400,0.7133212890625,-2.4848621742904187,2.042765472766757,5.370486584675311
1740006564324303600,0.7233037109375,-3.9318227313339706,0.6885194397777319,4.382963740056753
1740006564334286300,0.733286376953125,-5.456630498167872,-0.48613867234587665,4.0266269211441275
1740006564344269600,0.74326953125,-6.416296783089638,-1.3259879067540168,4.546359820055962
1740006564354252500,0.75325244140625,-6.647218585351109,-2.0313070901632306,5.298684500268101
1740006564364235500,0.763235595703125,-6.4286109057396645,-2.8803724812060594,5.783449546173214
1740006564374218500,0.773218505859375,-5.8030205080837005,-3.552017358550429,6.388200569418072
1740006564384201500,0.783201416015625,-4.845955345571041,-3.768298641040921,7.02846246650517
1740006564394184700,0.793184814453125,-3.8233167639076706,-3.884495162969827,7.340594232988357
1740006564404166400,0.80316650390625,-3.0737159557014704,-3.4225948598235845,7.795684856119752
1740006564414149600,0.813149658203125,-2.543288644295931,-2.466617492547631,7.65476773443222
1740006564424132600,0.823132568359375,-1.9141852700829505,-1.993022075432539,6.725261025452613
1740006564434115300,0.833115234375,-1.2423369791209697,-2.273234855085611,4.923454764837026
1740006564444098600,0.8430986328125,-0.4847171151101589,-2.015044522148371,3.339582230094075
1740006564454081500,0.85308154296875,0.3051163347631693,-1.5521984625846146,2.038632318484783
1740006564464064500,0.863064453125,0.7349878340292721,-1.4965040478914975,0.7443915491253137
1740006564474047500,0.873047607421875,0.5592080002099276,-1.6092805322438477,-0.17859715626239775
1740006564484030500,0.883030517578125,0.22090901535637675,-1.7558114021599291,-0.9029127165645361
1740006564494012700,0.8930126953125,-0.19261048404574393,-1.8661042530030012,-1.4396867666482924
1740006564503995400,0.902995361328125,-0.5525070412665605,-1.965798552942276,-1.6021394283175467
1740006564513978400,0.912978271484375,-0.6725345196604728,-2.0484411803156135,-1.699732956585288
1740006564523961600,0.922961669921875,-0.746863053805381,-2.158194517454505,-1.9602695603877305
1740006564533944600,0.932944580078125,-0.6562269434601068,-2.2818670743525025,-2.2971342015892264
1740006564543927600,0.942927490234375,-0.28250001380741596,-2.3849536470785737,-2.75552737339735
1740006564553910500,0.95291064453125,0.1975964557647705,-2.4848934462115166,-3.175065621632337
1740006564563893500,0.9628935546875,0.6292524272948503,-2.5116774082407356,-3.500836037367582
1740006564573876700,0.972876708984375,0.8860073206014931,-2.4928590182632204,-3.550613336971402
1740006564583858400,0.9828583984375,1.1449195380724966,-2.444952188706398,-3.417121396848559
1740006564593841700,0.992841552734375,1.4006851280808448,-2.1861510303944347,-3.199222157767415
1740006564603824600,1.00282470703125,1.4821440986275671,-1.8053417412653565,-2.9126778370052575
1740006564613807400,1.012807373046875,1.3952394298955797,-1.5459987311616539,-2.7555548459261656
1740006564623790600,1.02279052734375,1.1816937098488212,-1.5289029271930454,-2.763692559674382
1740006564633773600,1.032773681640625,0.9130340053454041,-1.4069431655623017,-2.592055890074372
1740006564643756500,1.042756591796875,0.601716185593605,-1.2032090838253497,-2.538001059281826
1740006564653739500,1.052739501953125,0.3865228444702923,-0.9864534618213772,-2.4247195480167862
1740006564663722500,1.062722412109375,0.3647283612914383,-0.7163700081251562,-2.279337263613939
1740006564673704700,1.07270458984375,0.526755929416418,-0.4450825854666531,-2.1296493909716605
1740006564683687400,1.0826875,0.8187690369784831,-0.16664456040114164,-2.002085087332129
1740006564693670400,1.09267041015625,1.2073474988043307,0.10717135782167315,-1.9063041614443064
1740006564703653600,1.102653564453125,1.5725374862581492,0.38828503183722496,-1.7008008780777453
1740006564713636600,1.11263671875,1.7748831823766231,0.7962072226889431,-1.2495441340208053
1740006564723619600,1.12261962890625,1.7550228821307419,1.199776040636748,-0.5602092862069606
1740006564733602600,1.1326025390625,1.5316054641500114,1.4170306982040404,0.25428806480169297
1740006564743585500,1.14258544921875,1.18025023304224,1.6671655888490378,1.1327917317748069
1740006564753568500,1.152568603515625,0.6375643285661935,2.0705295318745076,2.215420379498601
1740006564763550500,1.162550537109375,0.0002183189257979393,2.5208067633748055,3.3439988774925467
1740006564773533700,1.17253369140625,-0.5455991615742445,2.7095108876317737,3.976103187087178
1740006564783516400,1.182516357421875,-1.0631266593962907,2.6159742335394025,4.695547926482558
1740006564793499400,1.19249951171875,-1.5371692357569933,2.769983476512134,5.52401768874228
1740006564803482600,1.202482666015625,-1.7129028192818163,2.910209108804166,5.815903370532393
1740006564813465600,1.212465576171875,-1.7568059661552309,2.9066020242229103,5.5351797187477345
1740006564823448300,1.2224482421875,-1.8298887380227447,2.941203966526687,4.879085461756587
1740006564833431600,1.232431640625,-1.880602733954787,2.9171953144297,3.9259073698103424
1740006564843415000,1.2424150390625,-1.8899717430636285,2.7686230018138884,2.937389668935537
1740006564853397200,1.252397216796875,-2.0383704526782034,2.6761729739144444,2.313221413037181
1740006564863380000,1.2623798828125,-2.296201304653287,2.797428532798588,2.1726474056988954
1740006564873363000,1.272363037109375,-2.433741351123154,3.1590836241245266,2.2855372872978448
1740006564883346200,1.28234619140625,-2.336990265028924,3.7290965114653107,2.3939824644476175
1740006564893329200,1.2923291015625,-2.10197344853878,4.377368112006783,2.345780451336503
1740006564903312000,1.302311767578125,-1.8683149147897957,4.9905777515172955,2.028074684113264
1740006564913295000,1.312295166015625,-1.7239420996904373,5.51851558419466,1.5838982537060975
1740006564923278000,1.322278076171875,-1.6473668095320462,5.8508414129227395,0.9687854109227657
1740006564933260000,1.332260009765625,-1.5780670633345841,5.964846562287211,0.23980244333148001
1740006564943243000,1.342242919921875,-1.3491963483840226,6.164490598231554,-0.37480771062672136
1740006564953226000,1.35222607421875,-1.0875954032856971,6.284632058393955,-1.0063502946853637
1740006564963209000,1.362208984375,-0.9454495435208081,6.167569275024533,-1.6374439659327267
1740006564973192000,1.37219189453125,-0.9054016107708215,5.528094728922843,-2.227555638450384
1740006564983175000,1.3821748046875,-0.5628969178557396,4.6071138562262055,-3.189617294076085
1740006564993158100,1.392158203125,-0.17262686794744803,3.9796825068786736,-3.7746272595405577
1740006565003140900,1.402140869140625,0.0007037278225645422,3.426695280879736,-4.072006862571835
1740006565013124000,1.4121240234375,0.1031353803038597,2.738474824048579,-4.115068590185046
1740006565023106000,1.42210595703125,-0.1283762045443058,2.040145061135292,-3.914571152281761
1740006565033089000,1.432089111328125,-0.5239362323531881,1.562724678904563,-3.741282039299607
1740006565043072000,1.442072021484375,-1.1579308492064475,1.2579032354347408,-3.9054607941091057
1740006565053055000,1.452054931640625,-1.8802537743866443,1.0063682687334716,-3.929783334460854
1740006565063038200,1.4620380859375,-2.445090135872364,0.7599073904260992,-3.910347397106886
1740006565073021000,1.47202099609375,-2.7889152637362478,0.5590124776378274,-3.974150299453735
1740006565083004000,1.48200390625,-3.045951750463247,0.5705357056384905,-3.997355233952403
1740006565092987100,1.491987060546875,-3.141421710705757,0.6593329466514289,-4.122872541934251
1740006565102970000,1.50197021484375,-2.7245453751564024,0.9674996088959276,-4.331390789207816
1740006565112952000,1.5119521484375,-2.017946088808775,1.6342324565403163,-4.446314806982874
1740006565122935000,1.52193505859375,-1.5551508826494216,2.4531568302109834,-4.33149483410418
1740006565132918000,1.53191796875,-1.137866550821066,3.021701398564875,-4.447612445577978
1740006565142901000,1.54190087890625,-0.6556710631430148,3.3265979530975223,-4.884744218170643
1740006565152884000,1.551884033203125,-0.13189738267408682,3.536886424914002,-5.267684381848573
1740006565162867000,1.561866943359375,0.6923556569397449,3.723795774708688,-5.603642429599166
1740006565172850200,1.57185009765625,0.3320668855309486,4.2741374546349045,-6.08189590165317
1740006565182833000,1.5818330078125,0.8376800736755132,4.274318071898818,-5.703191183587909
1740006565192815000,1.591815185546875,2.133190424579382,4.0383977306976915,-5.643336142084002
1740006565202798000,1.601798095703125,2.4630975017279386,4.379599524320661,-5.784253263771534
1740006565212781000,1.611781005859375,2.788637031316757,4.627830481040477,-5.053834710419178
1740006565222764000,1.621763916015625,3.3825738150805233,4.706656764996051,-4.364206432616711
1740006565232747000,1.6317470703125,3.588896598136425,5.0226107201159,-3.9866374405831095
1740006565242730200,1.641730224609375,3.832850315928459,5.4277013408035035,-3.5534494371801615
1740006565252713000,1.651712890625,3.8323026189178226,5.932060144972801,-3.052857876589894
1740006565262696000,1.661696044921875,3.36158012689054,6.376930987384915,-2.234368825596571
1740006565272679200,1.67167919921875,2.6532196760892868,6.669685853224992,-1.2792518745422363
1740006565282660900,1.681660888671875,1.9130945522367953,7.131403785541653,0.17433073098957538
1740006565292644000,1.69164404296875,1.5052997871570288,7.964596484670042,1.8330559698820112
1740006565302627000,1.701626953125,1.2169212367050348,9.020161768901348,3.4250656338512897
1740006565312609800,1.71160986328125,0.8767793273985386,10.03199604795575,4.755563711506128
1740006565322593000,1.721593017578125,0.339226840288192,10.615884315913915,5.684305865854024
1740006565332576000,1.731575927734375,-0.5248702618002892,10.479062939107417,5.993482289662957
1740006565342559000,1.74155908203125,-1.6320459062814712,9.756204007354379,5.879582938760518
1740006565352542000,1.7515419921875,-2.8594559499055143,8.864867162293196,5.8627399405092
1740006565362525000,1.76152490234375,-4.066643289712071,8.079381386235356,6.108704998123645
1740006565372507100,1.771507080078125,-5.13827824973464,7.054129407203197,6.212066588398814
1740006565382489900,1.78148974609375,-5.946482638078928,5.854321071732044,6.345635100889205
1740006565392473000,1.79147314453125,-6.619967590332031,4.721615556935966,6.663463033187389
1740006565402456000,1.8014560546875,-7.46634593424797,3.5931644847139714,7.543526204562187
1740006565412439000,1.81143896484375,-7.766633533680438,1.975869280579686,8.526293379086255
1740006565422422000,1.821422119140625,-7.91739809564352,0.9176847537606954,9.474869530194997
1740006565432405000,1.831405029296875,-8.123551951873303,0.42905426459908486,10.278134708571434
1740006565442388000,1.841387939453125,-7.925877170175314,-0.510200515934825,10.49931077736616
1740006565452371200,1.85137109375,-7.296043143600225,-1.4806921462535858,10.163044686579704
1740006565462353000,1.861352783203125,-6.166970140087604,-2.341397121685743,9.02252440637946
1740006565472336100,1.871336181640625,-4.871653265929222,-2.823926371362805,7.625259315875172
1740006565482319000,1.881319091796875,-3.508639404594898,-2.9999545539200305,6.419076184675097
1740006565492301800,1.8913017578125,-2.2062954082787036,-3.1351240718662736,4.838462943989038
1740006565502285000,1.90128515625,-1.2238275089621544,-3.5105572209149596,2.946442743963003
1740006565512268000,1.91126806640625,-0.45435587911605835,-3.9176778861254453,1.3293319564849138
1740006565522251000,1.9212509765625,-0.08594692961573601,-4.434125187495351,0.1659638846606016
1740006565532234000,1.93123388671875,-0.28274847214315085,-5.022351776918769,-0.4981482590913772
1740006565542216000,1.9412158203125,-0.6470049416065216,-5.546044811633229,-1.028435285243392
1740006565552199200,1.95119921875,-0.9490075282633305,-5.9371694508105515,-1.552779477342963
1740006565562182000,1.961181884765625,-1.3325053258240223,-6.2537301396518945,-1.8578128099977969
1740006565572165000,1.9711650390625,-1.6708967382013797,-6.534348577496409,-1.933416624775529
1740006565582148000,1.981148193359375,-1.756772356146574,-6.704916741082072,-1.9728192453593014
1740006565592131000,1.991131103515625,-1.7408908964037895,-6.785930305948853,-1.9500673153251409
1740006565602114000,2.001114013671875,-1.6382371621370315,-6.834412305045127,-1.8516285684049127
1740006565612097000,2.011096923828125,-1.4064075973808765,-6.9541738259792325,-1.874661068946123
1740006565622080000,2.021080078125,-1.013132502171397,-7.039654307126998,-2.01077458974421
1740006565632062000,2.03106201171875,-0.6100029524236917,-7.024052833369374,-2.103911723124981
1740006565642045000,2.041044921875,-0.1833399668753147,-7.003179556688666,-2.082871857705712
1740006565652028200,2.051028076171875,0.23932255086004733,-6.883129281941056,-1.8828887990653513
1740006565662011000,2.061010986328125,0.7811468700706958,-6.630538668707013,-1.5642302611619232
1740006565671993900,2.070993896484375,1.2546207066327333,-6.20399901727736,-1.3110960425704716
1740006565681977000,2.08097705078125,1.3890239163815974,-5.8513470243573185,-1.0812491760641336
1740006565691960000,2.0909599609375,1.485445478260517,-5.748837666997313,-0.8741402110666036
1740006565701943000,2.100943115234375,1.7276719338685274,-5.709060952404141,-0.9751099377691745
1740006565711925000,2.110925048828125,1.9205758479028938,-5.4484846011132,-0.6986743385672569
1740006565721908000,2.120907958984375,1.7380074499219655,-5.200909770214557,0.0834159498333931
1740006565731891000,2.130890869140625,1.4669868615061044,-5.175247505691647,0.9271838189899921
1740006565741874000,2.1408740234375,1.2192933726638555,-5.1968485121250145,1.9789041182309388
1740006565751857200,2.150857177734375,0.7295973000973462,-5.139119376733899,3.6152328163981435
1740006565761840000,2.160840087890625,0.13685998265068047,-4.8961418104976415,5.44425032454431
1740006565771822800,2.17082275390625,-0.49245735397338863,-4.488675692850351,7.5624711435288186
1740006565781806000,2.18080615234375,-1.145081889027357,-4.005571273633837,9.45274420762658
1740006565791789000,2.1907890625,-2.0228630869448185,-3.7944519039511677,10.522969885373115
1740006565801771000,2.20077099609375,-2.9645547392368314,-3.890225231054425,11.280009903669356
1740006565811754000,2.21075390625,-3.4518250459611415,-3.829897895863652,11.7572977455616
1740006565821737000,2.220737060546875,-3.5151451332271098,-3.09592895655334,12.385773343265056
1740006565831720200,2.23072021484375,-3.4034932689905166,-2.060976836761832,13.118770807194709
1740006565841703000,2.240702880859375,-3.1459225292563437,-1.2256196530759333,13.269316757971048
1740006565851686000,2.250685791015625,-2.8901965406060217,-0.6573012946933507,12.737979345983266
1740006565861669000,2.260669189453125,-2.64508196234107,-0.20771452967524529,11.989390345168113
1740006565871651800,2.27065185546875,-2.2860789929591117,0.15198504366874693,11.147241601645947
1740006565881634000,2.280634033203125,-1.9928923115730284,0.49985447848737236,10.206481677246094
1740006565891617000,2.290616943359375,-1.9732278261601923,0.4355576551437378,8.88311593568921
1740006565901600000,2.30060009765625,-1.9041209721863268,0.06015607027709484,7.745514757806062
1740006565911583000,2.3105830078125,-1.5375766475141048,0.07471183437407017,7.168841828054189
1740006565921566000,2.32056591796875,-1.0333096132814883,0.49704994246065615,6.894211816969514
1740006565931549200,2.330549072265625,-0.5460007281124591,1.1098907486587761,6.733458944955467
1740006565941532000,2.340531982421875,-0.19117372924089432,1.822121903413534,6.655830930873751
1740006565951515000,2.350514892578125,-0.003291442760825157,2.589226511867344,6.522440113037824
1740006565961498000,2.360498046875,0.045443636047374454,3.4070193972900507,6.360398954778909
1740006565971479800,2.370479736328125,-0.03252219515396282,3.95216204726845,6.011819325864315
1740006565981463000,2.380463134765625,0.11941431493163109,4.344359284113347,5.403861031010747
1740006565991446000,2.390446044921875,0.5070645194640383,4.771771042202412,4.667262912240624
1740006566001429000,2.400428955078125,0.7813070290684699,4.92868857383728,3.8360739541500806
1740006566011412000,2.410411865234375,1.0823686085481197,4.935418758875131,3.1309593534022566
1740006566021395000,2.42039501953125,1.5637527067780495,4.948102299359441,2.44108791449368
1740006566031378000,2.4303779296875,1.9316320794463155,4.989866972899437,1.8256255276203155
1740006566041361200,2.440361083984375,2.0191595562517644,4.873113401609659,1.1121943494260311
1740006566051344000,2.45034375,2.0272867486059662,4.557965794436633,0.3026373774290085
1740006566061326000,2.460326171875,1.9850369218975303,4.216147330220044,-0.32107144426405426
1740006566071309000,2.47030908203125,1.8392232603400944,3.8270579962626097,-0.7406622994691133
1740006566081292000,2.4802919921875,1.704662229681015,3.6751840117529033,-0.8658896845936774
1740006566091275000,2.49027490234375,1.28519412407279,3.9454280628383156,-0.6044459028184413
1740006566101258000,2.500258056640625,0.555163693255186,4.168352436605096,-0.14398352352082727
1740006566111241000,2.510240966796875,-0.004663315635919571,4.185654284539819,0.07685176901221275
1740006566121224000,2.520223876953125,-0.10332418087422847,4.34007503092289,-0.07093406940102577
1740006566131207000,2.53020703125,-0.030370588344335554,4.679182190354168,-0.2781698756486177
1740006566141189000,2.540189208984375,0.11461670539155602,5.149539648461341,-0.5398953969746828
1740006566151171800,2.550171875,0.37470775738358497,5.611750332731008,-0.9722884506076573
1740006566161155000,2.560155029296875,0.6852288737997412,6.02188070115149,-1.4267892911523579
1740006566171138000,2.570137939453125,0.9486810727879404,6.350138257527351,-1.7414748337715864
1740006566181120800,2.580120849609375,1.1953843815490603,6.618237405538559,-1.9486007499039173
1740006566191104000,2.59010400390625,1.5490648407340049,6.858813755851983,-2.0257868654370306
1740006566201087000,2.6000869140625,2.0307173075765372,7.221874914583563,-2.1417706213980914
1740006566211070000,2.610070068359375,2.5257319448173043,7.574248675084114,-2.307406004756689
1740006566221053000,2.620052978515625,2.9370985770344733,7.740894696789979,-2.544500358173251
1740006566231035000,2.630034912109375,3.2513626793712374,7.747597993820905,-2.8515310021251437
1740006566241018000,2.64001806640625,3.595500526446104,7.751288665032386,-3.0599317604988814
1740006566251000800,2.650000732421875,3.9271705216139554,7.8259531531333915,-2.8993337867856024
1740006566260984000,2.659984130859375,4.166643294599652,7.870281539681553,-2.4053122522354125
1740006566270967000,2.669967041015625,4.684359008470177,7.945847945058345,-2.189410324451327
1740006566280950000,2.679949951171875,5.436598348486423,8.159791724511981,-2.2096271830499172
1740006566290933000,2.68993310546875,5.953519112586974,8.314354509714246,-2.23211374014616
1740006566300916000,2.699916015625,6.167772688642144,8.29366185029745,-2.3378771308660506
1740006566310898200,2.709898193359375,6.433794445857405,8.248766477516293,-2.3670418505519626
1740006566320881000,2.719880859375,6.5788827157497405,8.287515602627396,-2.1460060670107604
1740006566330863900,2.72986376953125,6.474690519869327,8.305752101063728,-1.6372417213588952
1740006566340847000,2.73984716796875,6.284053381723165,8.398616847243904,-1.0201046792715787
1740006566350830000,2.749830078125,6.218135679179429,8.58255478001237,-0.40775487146079537
1740006566360812800,2.759812744140625,6.303158479687571,8.92634834369421,-0.006910802301764488
1740006566370796000,2.769796142578125,6.34208354588747,9.271925868183374,0.05335223548114299
1740006566380779000,2.779779052734375,6.230728034248948,9.325809434062242,0.07493278364837169
1740006566390762000,2.789761962890625,6.077295129859447,9.120296213823556,0.20117080712020396
1740006566400744000,2.799743896484375,5.935445111235976,8.858162696218491,0.319165902903676
1740006566410727000,2.809726806640625,5.751514192730188,8.773627971488237,0.8921335483968258
1740006566420710100,2.819710205078125,5.438623132312298,8.666917655307055,1.650998444032669
1740006566430692900,2.82969287109375,4.982845695960521,8.393991525530815,2.1150983030498027
1740006566440676000,2.839676025390625,4.515474267926812,8.040355197748541,2.3627783478885886
1740006566450659000,2.8496591796875,3.9983927603065967,7.872721918570995,2.644966227006912
1740006566460642000,2.85964208984375,3.3103508749127384,7.590607104688883,3.0635850223094225
1740006566470625000,2.869625,2.5833739864468575,7.04276688618958,3.5022137554615735
1740006566480608000,2.87960791015625,2.2926696233958004,6.783600401696562,3.8195617952883243
1740006566490590200,2.889590087890625,2.289514958757162,6.913332112503051,4.242303223478793
1740006566500573000,2.899572998046875,2.2136583382621406,7.316030869618058,4.909709732601046
1740006566510556000,2.909555908203125,2.1330089305326343,7.697072506198286,5.162469272661209
1740006566520539100,2.9195390625,1.94658122677505,7.9263167306363576,5.267342436543107
1740006566530521900,2.92952197265625,1.420041570457816,8.108440891981125,5.526131904417276
1740006566540504800,2.9395048828125,0.6139332776099443,8.22814337620437,5.750142319855094
1740006566550488000,2.949488037109375,-0.472072153070569,8.004929664102196,6.447870902004838
1740006566560471000,2.959470947265625,-1.2221133985206485,7.733698063284158,7.376313196623325
1740006566570453000,2.969452880859375,-1.4688053091049194,7.603736050853133,7.829813920214772
1740006566580436000,2.97943603515625,-1.876067428612709,7.222219782498478,7.847629562890529
1740006566590419000,2.9894189453125,-2.5517542748242614,6.530380258387327,7.223159109175205
1740006566600402000,2.99940185546875,-3.326737946090102,5.698309841287136,6.118516782563924
1740006566610385000,3.009385009765625,-4.2851767350435255,4.475578310868144,5.017320797014236
1740006566620368100,3.0193681640625,-5.126530528795719,3.498520453901589,4.430342161825299
1740006566630351000,3.02935107421875,-5.6597232132613655,2.772303736153245,4.371465025442839
1740006566640333800,3.039333740234375,-6.158804369288682,1.1261723136350512,4.951532858330011
1740006566650317000,3.049317138671875,-6.330831499511003,0.01655102956742048,6.361585534214973
1740006566660299000,3.059299072265625,-6.070761344176531,-0.9567851765275001,7.488641352686286
1740006566670282000,3.069281982421875,-5.7670168822884555,-2.011768861478567,7.954151663023233
1740006566680265000,3.079264892578125,-5.49939821127057,-3.1204052261620756,7.947790895819663
1740006566690248000,3.089248046875,-5.172040234082937,-4.140580048060417,7.5615020062357186
1740006566700231200,3.099231201171875,-4.6708653206467625,-4.9012166295439,6.932995428872108
1740006566710214000,3.1092138671875,-4.145350623463094,-5.539045746526122,6.562541237279772
1740006566720196900,3.11919677734375,-3.652617375157773,-6.0395069587349886,6.408815487423539
1740006566730180000,3.12918017578125,-3.049109337711334,-6.2614025739759205,6.16975714045763
1740006566740161800,3.139161865234375,-2.7533704876244065,-6.531994123324751,6.084919633388519
1740006566750145000,3.14914501953125,-2.723219971771538,-7.05850747615695,6.007448271173239
1740006566760128000,3.1591279296875,-2.5970903771102427,-7.5045941240996115,5.948125144588947
1740006566770111000,3.169111083984375,-2.528515145795047,-7.785046557727456,6.021724049285054
1740006566780094000,3.179093994140625,-2.6002055865213274,-7.913846540641784,6.210566705229878
1740006566790077000,3.189076904296875,-2.7589769293293354,-7.9533274871587745,6.416435899299382
1740006566800060200,3.19906005859375,-2.8185052230969068,-8.03513892440498,6.348689227762818
1740006566810043100,3.209043212890625,-2.5016706857502458,-8.26262841413021,6.321427126827835
1740006566820025900,3.21902587890625,-2.2083879966437814,-8.310402557218074,6.490742075482011
1740006566830008000,3.229008056640625,-2.2960906838856636,-8.249466734740137,6.989526294389367
1740006566839991000,3.238990966796875,-2.4502888735592365,-8.016358820611238,7.471196881410479
1740006566849974000,3.24897412109375,-2.5580177191331983,-7.704837879502773,7.747896684506535
1740006566859957000,3.25895703125,-2.781268548375368,-7.606990668734908,8.074566679430008
1740006566869940000,3.26893994140625,-2.8017887738347054,-7.660313093599677,8.376963233840465
1740006566879923200,3.278923095703125,-2.6117852574169635,-7.6396064056575295,8.721818873795867
1740006566889906000,3.288906005859375,-2.4989608422696588,-7.678310522583127,9.166588009399176
1740006566899889000,3.298888916015625,-2.467964815503359,-7.679438649830222,9.622471828734874
1740006566909872000,3.3088720703125,-2.2747359072983264,-7.375947870442271,10.199776042127608
1740006566919853800,3.318853759765625,-2.1414767530180514,-6.737579239755869,10.686958670568465
1740006566929837000,3.328837158203125,-2.3360781186200676,-6.093156715857982,10.86425351206064
1740006566939820000,3.338820068359375,-2.637068167233467,-5.603222158360481,10.633234094643592
1740006566949803000,3.348802978515625,-2.967073444059491,-5.199920759177208,10.186393997985125
1740006566959786000,3.358785888671875,-3.435152435840666,-4.829909050655365,9.83055928337574
1740006566969769000,3.36876904296875,-3.8061832582771777,-4.672047223907708,9.429583696791529
1740006566979752000,3.378751953125,-3.734754683357477,-4.720127071943879,8.67576380958557
1740006566989735200,3.388735107421875,-3.288237242782116,-4.831741526779532,7.925434102582931
1740006566999717000,3.398717041015625,-2.830169649666548,-4.686041262468695,7.593896209362149
1740006567009700000,3.4087001953125,-2.384441167511791,-4.1739749526619905,7.475808174598217
1740006567019683000,3.41868310546875,-1.884865505965799,-3.4025720624923705,7.380018480882049
1740006567029666000,3.428666015625,-1.636854183346033,-2.624613174808025,7.2938739828675985
1740006567039649000,3.43864892578125,-1.5144270964644848,-1.7864415182232856,7.345937932103872
1740006567049632000,3.448632080078125,-1.3894327894434333,-0.7553548416882753,7.631595533159374
1740006567059615200,3.458615234375,-1.38098089517951,0.23702187270224093,7.991666862425207
1740006567069598000,3.468597900390625,-1.2653496059179306,1.0423773013561963,8.295133091893792
1740006567079581000,3.478580810546875,-1.081596966588497,1.8599241030633449,8.656824131315947
1740006567089563100,3.488563232421875,-0.974310238758847,2.764932915124297,8.99855900890231
1740006567099545900,3.4985458984375,-0.8957681055068969,3.6716046919614076,9.256707256263494
1740006567109529000,3.508529052734375,-1.018481461983919,4.585331063485145,9.345802420777082
1740006567119512000,3.518511962890625,-1.387559104526043,5.233419708675146,8.782354883301258
1740006567129494800,3.528494873046875,-1.7044143923997879,5.179898546367883,7.622406849053502
1740006567139478000,3.53847802734375,-1.789368803846836,4.999589325490594,6.303415669319033
1740006567149461000,3.5484609375,-1.8553776918053626,4.965774149650335,5.263148491984605
1740006567159444000,3.55844384765625,-1.9291911160349844,4.91281646644473,4.45395100094974
1740006567169427000,3.568427001953125,-2.076812265405804,4.888299864825606,3.888583893588185
1740006567179409200,3.5784091796875,-2.291337498009205,5.034049813497067,3.6002941904634236
1740006567189392100,3.58839208984375,-2.7150013017415997,5.521828069743513,3.7305642459303137
1740006567199374800,3.598374755859375,-3.393641737061739,6.004076164391637,4.364313984644412
1740006567209358000,3.608358154296875,-3.846925603032112,6.501078760579228,5.006606510776281
1740006567219341000,3.618341064453125,-3.894317468804121,6.999176166266203,4.029108216565847
1740006567229324000,3.628323974609375,-3.537175763249397,7.32999568208456,2.565199447330832
1740006567239307000,3.63830712890625,-2.9704701007604597,7.682497452878952,1.0347212336450815
1740006567249290000,3.6482900390625,-1.7832950368911027,7.992761087402701,-0.76168696731925
1740006567259272200,3.658272216796875,-0.19485384252574295,8.312979129707813,-2.2208611092478034
1740006567269255000,3.6682548828125,0.8250158224135636,8.463561905363202,-3.1348329799652097
1740006567279238000,3.67823779296875,0.9290905293941497,8.36710819478035,-3.6361189525604245
1740006567289221000,3.68822119140625,0.5405325623670593,8.017759335058926,-3.4233383716672656
1740006567299204000,3.6982041015625,-0.2553869294216856,7.738179008090496,-2.782004461434483
1740006567309186800,3.708186767578125,-1.1126637205034493,7.737519667398929,-2.1138748987346885
1740006567319170000,3.718170166015625,-1.6823294018417596,8.019194920819997,-1.5437404308408498
1740006567329153000,3.728153076171875,-2.0029653772979974,8.374780629104375,-1.3232652037918566
1740006567339136000,3.738135986328125,-2.154279974359274,8.57971751075983,-1.6479858182132243
1740006567349119000,3.748118896484375,-2.135246772587299,8.785717053210735,-2.4298668477773666
1740006567359101200,3.75810107421875,-1.972944917565584,9.098645523029566,-2.9189462497502565
1740006567369084200,3.768084228515625,-1.8320301339656113,9.470413719829917,-2.865704488906264
1740006567379067000,3.77806689453125,-1.8989783486008642,9.604693595460057,-2.8435639687687155
1740006567389050000,3.788050048828125,-1.8426263467818498,9.799071089178323,-2.680738966655731
1740006567399033000,3.798033203125,-1.576629139485955,10.014550407636165,-2.275604506826401
1740006567409016000,3.80801611328125,-1.4386848961293697,10.058412930238246,-1.6831810502350328
1740006567418999000,3.8179990234375,-1.564641180050373,9.99070425262451,-1.2592056963354348
1740006567428982000,3.82798193359375,-1.6627566863656043,9.458021271246672,-0.7352864516496658
1740006567438964200,3.837964111328125,-2.267062303930521,9.873467866253852,-1.645138612088561
1740006567448948000,3.847947998046875,-2.904850504380464,10.017795673167704,-1.1325672753691673
1740006567458930000,3.857929931640625,-2.6056243966996666,10.613259812629222,-0.9433271445393562
1740006567468913200,3.8679130859375,-2.2128823854535815,11.04687802414298,-1.3971926097899674
1740006567478896000,3.877896240234375,-2.1454856963984668,10.819220776635408,-1.4032190304726362
1740006567488878800,3.88787890625,-1.5643687928497791,10.335389796710015,-1.3993173468589781
1740006567498862000,3.897862060546875,-1.035504346846789,9.981861605477333,-1.8058096510380506
1740006567508845000,3.907844970703125,-1.0724719953685997,9.682218733689188,-2.210436745867133
1740006567518828000,3.917828125,-1.242159284466505,9.557776361462473,-2.7047499568402764
1740006567528811000,3.92781103515625,-1.2660942868053913,9.617357846722006,-3.0146336521357298
1740006567538794000,3.9377939453125,-1.0944044257134198,9.667615623319149,-2.8978058465659617
1740006567548776000,3.94777587890625,-1.0936075762473045,9.591038579595088,-2.4222516965985297
1740006567558759000,3.957759033203125,-1.5107622903466225,9.31509105617106,-1.5029630147725344
1740006567568742100,3.9677421875,-1.9572011127278208,9.015556320932507,-0.06890519392192364
1740006567578725000,3.97772509765625,-1.8462825312018394,8.891187013942004,1.2161720257729292
1740006567588707800,3.987707763671875,-1.3242013155981898,8.798432742398976,2.447386137855053
1740006567598691000,3.997691162109375,-0.8244481055282056,8.679729206085204,3.7761686437636612
1740006567608674000,4.007674072265625,-0.493221324083209,8.434139411523939,4.958928813800215
1740006567618657000,4.017656982421875,-0.2362259000189602,8.044276755106448,5.917343052834272
1740006567628640000,4.027639892578125,-0.013648439993709325,7.68391842559278,6.494462557309865
1740006567638622000,4.0376220703125,0.03678169749565422,7.227111061671375,6.85880089637041
1740006567648605200,4.047605224609375,-0.4049386449962854,6.440574899777769,7.489176190215349
1740006567658588000,4.057587890625,-1.1427139908522366,5.647347715812921,8.223841295096278
1740006567668571000,4.06757080078125,-2.0273685816705225,4.685469015538692,8.87127410672605
1740006567678554000,4.07755419921875,-2.9544144534945485,3.3941827120706436,9.001977877435088
1740006567688537000,4.087537109375,-3.513962645444274,2.299860411682725,8.226490348300338
1740006567698520000,4.09752001953125,-3.5788463287651537,1.4293418982446193,6.617810704559087
1740006567708503000,4.1075029296875,-3.4304432352364063,0.6046035775981843,4.706129526251554
1740006567718485000,4.117485107421875,-3.5161692155778406,-0.25865648914426564,3.2339602936714886
1740006567728468000,4.127468017578125,-3.8921225891083475,-1.273269293001294,2.4667624539762736
1740006567738451000,4.137450927734375,-4.217921646416187,-2.083816152818501,2.526687638106942
1740006567748434200,4.14743408203125,-4.13121133121252,-2.5880656513944267,2.8354595727682113
1740006567758417200,4.157417236328125,-3.8281887538582082,-2.974327945232391,3.1127982582896947
1740006567768400000,4.16739990234375,-3.2930133711427447,-3.5374411361873146,3.1433465412884947
1740006567778383000,4.177383056640625,-2.3234680817633864,-4.0361330006361005,3.0051059453338382
1740006567788366000,4.187365966796875,-1.1604295341543853,-4.446500100421905,2.524402742040157
1740006567798349000,4.19734912109375,0.10833616381734609,-4.92445605083406,1.650610321497917
1740006567808331000,4.2073310546875,0.9562944704011082,-5.424136341798305,0.9631997197449207
1740006567818314000,4.21731396484375,1.2401672338664531,-5.838535473579168,0.6518301698058844
1740006567828297200,4.227297119140625,0.9641755790397524,-6.039498775428533,1.0939724640369415
1740006567838280000,4.237280029296875,0.7817141485646366,-6.069543200558424,2.114819486108422
1740006567848263400,4.247263427734375,0.7595923331275581,-6.279089037314057,2.8545646707326173
1740006567858246400,4.257246337890625,0.8039318255916237,-6.425371485427021,3.203646988472342
1740006567868229400,4.2672294921875,0.7048708551198244,-6.746958477997779,2.9461154117047785
1740006567878212400,4.27721240234375,0.5362877278715372,-7.150752629134058,2.4887509984225034
1740006567888194300,4.2871943359375,0.5580839646160602,-7.429817992317676,2.6333739888906478
1740006567898177300,4.29717724609375,0.42365035972893234,-7.70044285941422,3.472325982198119
1740006567908160500,4.307160400390625,0.20396365270912645,-7.960135413607954,4.465295986306667
1740006567918143500,4.3171435546875,-0.08600859667509794,-8.102730697640776,5.356098578360676
1740006567928126200,4.327126220703125,-0.32728695777803657,-7.979698192211985,5.8508069261312485
1740006567938109400,4.337109375,-0.493764052657783,-7.937239106667041,6.171322490078211
1740006567948092400,4.347092529296875,-0.5462659549199045,-8.042902544143795,6.319150998589396
1740006567958075400,4.357075439453125,-0.6721778151772916,-7.932779789170622,6.532645280709862
1740006567968057300,4.367057373046875,-0.9783685011737048,-7.9841136705666775,6.896403189533949
1740006567978040600,4.37704052734375,-1.1948203179255128,-8.250473865956067,7.6962980146944515
1740006567988023300,4.387023193359375,-1.2964102223530412,-8.364872398552299,8.640373931774496
1740006567998006300,4.39700634765625,-1.1323527558356523,-8.24642254473865,9.451500929567217
1740006568007989500,4.406989501953125,-0.7571453783668577,-7.893793348172307,10.054223077332972
1740006568017972500,4.416972412109375,-0.5101923326283693,-7.4628019780308,10.325161832684278
1740006568027955200,4.426955078125,-0.48782267991006373,-7.099549680641293,10.15889458116293
1740006568037938400,4.4369384765625,-0.5568816030889749,-6.760269794991612,9.446686807283758
1740006568047921400,4.44692138671875,-0.6060347794450819,-6.513560056489705,8.115010918021202
1740006568057903400,4.4569033203125,-1.0153349806517362,-6.60413523042798,6.925618178102374
1740006568067886300,4.46688623046875,-2.110265476065874,-6.9210372800529,6.740823336243629
1740006568077869300,4.476869384765625,-3.2078876947820185,-6.643048606190085,6.914312355712056
1740006568087852500,4.4868525390625,-3.3745798937171694,-5.931336506873369,6.800788852384686
1740006568097835300,4.496835205078125,-2.8768565820395944,-5.186923330438137,6.653302289178967
1740006568107818200,4.506818359375,-2.183534125894308,-4.148635928744078,6.655358637186884
1740006568117801500,4.516801513671875,-1.4785089569956062,-2.942220450092852,6.704568950557708
1740006568127784400,4.526784423828125,-0.9163086431019007,-1.788005698800087,6.755958361533284
1740006568137767400,4.536767333984375,-0.6905066680721939,-1.072602051489055,6.390410062161088
1740006568147749400,4.546749267578125,-0.7473172273136675,-0.7198854689002037,6.066520053344965
1740006568157732600,4.556732666015625,-1.1525316205114124,-0.2383084053814411,5.994775252082944
1740006568167715300,4.56671533203125,-1.681673129890114,0.2679123932674527,6.055576634526252
1740006568177698300,4.5766982421875,-2.0179840827316045,0.6008940555557608,6.100234691420197
1740006568187681500,4.586681640625,-2.203027346393466,0.9647045713499188,5.951541675034165
1740006568197664500,4.59666455078125,-2.208877241465449,1.2293930341348052,5.332820578625798
1740006568207647200,4.606647216796875,-2.015523245576024,1.2712959471017122,4.604807917371392
1740006568217630500,4.61663037109375,-1.7187556369632482,1.2161724641643463,4.073040881794691
1740006568227613400,4.626613525390625,-1.438520060956478,1.1568638044968247,3.293161839702725
1740006568237595400,4.636595458984375,-1.3388070563167334,0.9212195037581026,2.354538927331567
1740006568247578400,4.646578369140625,-1.3526239847451447,0.7158106206767261,1.7533458888292313
1740006568257561300,4.656561279296875,-1.4190297630667685,0.7114473109006881,1.4320716154694557
1740006568267544600,4.666544677734375,-1.632553271281719,0.9180663004241884,1.2320119844615458
1740006568277527300,4.67652734375,-1.8925322412014007,1.2454311457440257,1.0066904864251613
1740006568287510300,4.68651025390625,-2.102424699437618,1.6860630354121326,0.8470254096478224
1740006568297493500,4.696493408203125,-2.310860529124737,2.1671438398465512,0.858167565909028
1740006568307476200,4.706476318359375,-2.4656898563086984,2.8033915328562258,0.861395880305767
1740006568317458400,4.71645849609375,-2.523901222258806,3.532793018120527,0.6854986306518316
1740006568327441400,4.72644140625,-2.598704826569557,4.204629910905659,0.5433084202885627
1740006568337424600,4.736424560546875,-2.856491839402914,4.9336862359941005,0.42530981737375256
1740006568347407400,4.746407470703125,-3.11439224948287,5.9103434032052755,0.2409229717940092
1740006568357390300,4.756390380859375,-3.4569983569458125,6.933685164701938,-0.30405951918661595
1740006568367373600,4.76637353515625,-4.006045320886373,7.52237118833065,-0.9215864373743533
1740006568377356300,4.776356201171875,-4.391445152676106,7.730819877499341,-1.5827940918564796
1740006568387339300,4.78633935546875,-4.382324273109436,7.867516751143336,-1.9187527241289615
1740006568397322500,4.796322509765625,-4.155943621408939,8.057453047543763,-1.7532073571413755
1740006568407304200,4.80630419921875,-3.8161259756207464,8.339972935095428,-1.3051432716459035
1740006568417287400,4.816287353515625,-3.4550495609655973,8.686644100040198,-0.8070797682285309
1740006568427270400,4.8262705078125,-3.032771950894594,9.114884710168838,-0.5269096586734057
1740006568437253400,4.83625341796875,-2.685841842752695,9.497089545309542,-0.3831587748646736
1740006568447236400,4.846236328125,-2.5598013876795767,9.763073893123865,-0.4783206920713186
1740006568457219300,4.85621923828125,-2.5412799348220227,9.978740258586406,-0.7254559625089169
1740006568467202300,4.866202392578125,-2.711694369150698,10.151554155272246,-0.8053753023982048
1740006568477185500,4.876185546875,-3.1567692097023126,10.24684758990407,-0.7620803505510091
1740006568487168300,4.886168212890625,-3.6955513847380876,10.304889444506168,-0.46329964855015277
1740006568497150500,4.896150390625,-4.075576830013096,10.434431185698509,-0.32193069144189357
1740006568507133400,4.906133544921875,-4.181684504126012,10.641870990085602,-0.3019640082120895
1740006568517116400,4.916116455078125,-4.060097229069471,11.041108793091773,-0.11720365314483643
1740006568527099400,4.926099365234375,-3.646420566344261,11.625941648423671,0.20714637439846992
1740006568537082400,4.936082275390625,-3.253245424377918,12.283996391832828,0.46848143510222434
1740006568547065600,4.946065673828125,-3.161602621208131,12.423386157822609,0.5795972927659749
1740006568557048300,4.95604833984375,-3.235203571730852,11.93799567349553,0.2285270160794258
1740006568567031300,4.96603125,-3.1345699451148508,11.941021158796548,0.1884995415955782
1740006568577014500,4.9760146484375,-3.1693942979976533,11.860566396856306,0.5984738426715135
1740006568586996200,4.985996337890625,-2.9104031700715423,11.63599542492628,1.06754798296988
1740006568596979500,4.9959794921875,-2.5032263907596466,11.151287662166357,1.505046835309267
1740006568606962400,5.00596240234375,-2.476938687814772,9.992212319099902,1.5677625269412994
1740006568616945400,5.0159453125,-2.8792028529047964,8.516786715072392,1.5203794289976358
1740006568626928400,5.025928466796875,-2.877885340565443,7.194934300687908,1.7032646378427743
1740006568636911400,5.035911376953125,-1.7481154408298432,6.474001953083277,2.260634901231527
1740006568646894300,5.045894287109375,0.02225289447084069,6.689611619922518,3.2192221587449312
1740006568656877600,5.055877685546875,1.3338051563762128,7.134609888106584,4.09419122185111
1740006568666860300,5.0658603515625,1.932933225172758,6.908047450098395,4.494095964333415
1740006568676842500,5.075842529296875,1.756415797793865,6.226636381021142,4.764038694384694
1740006568686825500,5.085825439453125,1.0601809613332152,5.7805520711660385,5.215365581068396
1740006568696808400,5.095808349609375,0.6624949178136885,5.77087005058527,5.860756073215604
1740006568706791400,5.10579150390625,0.4751568212129175,5.756444634869695,6.4109039841353885
1740006568716774400,5.1157744140625,0.143365830013901,5.449961687928438,6.45633302540183
1740006568726757400,5.12575732421875,-0.4181400718748569,4.754475331747532,6.370144688245654
1740006568736740400,5.135740234375,-0.8996830869935453,3.794254335552454,6.277776201149821
1740006568746723300,5.145723388671875,-1.25994643170014,2.737787426306307,5.9540270621091125
1740006568756705300,5.155705322265625,-1.5230477714240551,1.6088935787528753,5.600058725893497
1740006568766688300,5.165688232421875,-1.6390040548563003,0.5365950402550399,5.1016626295208924
1740006568776671500,5.17567138671875,-1.6597196567572652,-0.33615006319135426,4.305377811551094
1740006568786654500,5.185654541015625,-1.6474328605055808,-1.123298511764407,3.363169441908598
1740006568796637200,5.19563720703125,-1.8113842362999915,-1.6762947978526352,2.5737989333719016
1740006568806620400,5.205620361328125,-1.9082605562090873,-2.1566002340003845,2.0646616627544163
1740006568816603400,5.215603271484375,-1.9700655627369879,-2.62245921164453,1.838878976947069
1740006568826586400,5.22558642578125,-2.113755071747303,-3.0374247451364993,2.1676135031849144
1740006568836569300,5.2355693359375,-2.135875718140602,-3.410661260923743,2.695638429623842
1740006568846550800,5.24555078125,-1.7147955011606215,-3.915395912668109,3.310401143795252
1740006568856533800,5.25553369140625,-0.8645148891091347,-4.660246311476826,3.6851831354588267
1740006568866516500,5.2655166015625,0.37929508517384525,-5.3301481445461505,3.6831677039831874
1740006568876499700,5.275499755859375,1.7227765630424021,-5.686265183228254,3.667940324234962
1740006568886482700,5.285482666015625,2.53170868113935,-5.9876136898905035,3.320266119727492
1740006568896465700,5.295465576171875,3.0171593712210654,-6.07042641313374,2.812691860643029
1740006568906448600,5.30544873046875,3.3315076447099443,-6.043630176144838,2.5405273628890512
1740006568916431600,5.315431640625,3.5689825218766926,-6.175256906917691,2.5373323662400242
1740006568926414800,5.325414794921875,3.730425714242458,-6.322056072381138,2.7677286833226677
1740006568936396500,5.335396484375,3.5194980677396055,-6.481164684319496,3.366778280055523
1740006568946379800,5.3453798828125,2.967159368777275,-6.645920362234115,3.963882003417611
1740006568956362800,5.35536279296875,2.205151498940587,-6.8550155326128,4.406042417827249
1740006568966345500,5.365345458984375,1.616989791446924,-6.933008288353681,4.94897966671586
1740006568976328700,5.37532861328125,1.1326467703461647,-6.7959151088684795,5.712596725314855
1740006568986311700,5.385311767578125,0.6025584816366434,-6.629394174847007,6.375946068000793
1740006568996294700,5.395294677734375,0.06912497415244578,-6.662646456107497,6.670974139469862
1740006569006277600,5.405277587890625,-0.33446108719110484,-6.757389855641126,6.803866360133886
1740006569016259600,5.415259521484375,-0.6929588835299014,-6.767774471533298,7.1255819475203745
1740006569026242800,5.425242919921875,-1.0885036772370338,-6.7327481663376085,7.603676429620385
1740006569036225500,5.4352255859375,-1.5037398443639278,-6.895961290985346,8.130190951496362
1740006569046208500,5.44520849609375,-1.9214929627478121,-7.250958970248699,8.834636274680495
1740006569056191700,5.455191650390625,-2.1006512600243092,-7.660234767666458,9.67992331622839
1740006569066174700,5.4651748046875,-1.842127749609947,-7.723301172432303,10.599767878371477
1740006569076157700,5.47515771484375,-1.2243909880638122,-7.401119136577845,11.444520082390307
1740006569086140700,5.485140625,-0.5376502483963966,-6.867592105591297,11.84508124295473
1740006569096123600,5.49512353515625,-0.15408457323126493,-6.547448882088065,11.483317138296366
1740006569106105600,5.505105712890625,-0.3312333938488737,-6.732589176383614,10.639027875614167
1740006569116088600,5.515088623046875,-0.6968097137391567,-7.195332360094786,9.841293443357944
1740006569126071800,5.52507177734375,-0.8625508955597877,-7.65281017062366,9.053599928122757
1740006569136054800,5.5350546875,-0.7923287738204002,-7.950037213441729,8.036898335292936
1740006569146037500,5.54503759765625,-0.5736275707066059,-7.898960521677136,7.366118550345301
1740006569156020700,5.555020751953125,-0.32538229320049283,-7.32897043069005,7.170954874685406
1740006569166003700,5.565003662109375,-0.04533201063275337,-6.353089508548378,7.401199216076731
1740006569175986700,5.574986572265625,0.16543607966052368,-5.133446591794491,7.950189773654937
1740006569185969700,5.5849697265625,0.45073885766267774,-3.767065884375572,8.542105865246057
1740006569195951600,5.59495166015625,0.7805857290565967,-2.327560904034972,8.939685964173078
1740006569205934800,5.604934814453125,0.8357517359614371,-1.2012047582656145,8.764024276840686
1740006569215917600,5.61491748046875,0.5778834745854139,-0.3345908510506153,8.797025213688611
1740006569225900500,5.624900634765625,0.24325170700252055,0.6812628927782177,8.7687559815377
1740006569235883800,5.6348837890625,-0.3019651407232508,1.46742408387959,8.578066236421465
1740006569245866500,5.644866455078125,-0.8062988469839095,2.023716196642816,8.700684900352359
1740006569255849500,5.654849365234375,-0.9584159925997257,2.4866896819785236,8.647878023794293
1740006569265832700,5.664832763671875,-1.163465102458,3.1045500699043274,8.28994955177605
1740006569275814700,5.674814697265625,-1.347513509863615,3.709309276455641,7.207734745550155
1740006569285797600,5.684797607421875,-1.5934259605079888,3.9542683718979355,5.621547504124045
1740006569295780600,5.694780517578125,-1.7011977684408426,3.9359313356965777,3.7640772239536044
1740006569305763800,5.704763916015625,-1.6378595609962938,3.8899440760254858,2.203726434573531
1740006569315746600,5.71474658203125,-1.6050363188028334,4.036586589622497,1.1099088688373564
1740006569325729500,5.7247294921875,-1.5165063869565725,4.208028613433242,0.3099725426226854
1740006569335712800,5.734712646484375,-1.3649901298433542,4.042253821603953,-0.40688276480138297
1740006569345695700,5.74469580078125,-1.3267115448534488,3.8117616429314016,-0.7965922764837742
1740006569355678500,5.754678466796875,-1.2402502359747887,3.6315623121693728,-0.723924515157938
1740006569365660700,5.76466064453125,-1.2429179938793182,3.9543241937384006,-0.0864478648751974
1740006569375643600,5.7746435546875,-1.2302350379168987,4.550767407365143,0.3459714922428131
1740006569385626600,5.784626708984375,-1.2126619718253613,4.821807285003364,0.29206805261969565
1740006569395609600,5.794609619140625,-1.1734849766910076,4.934169051074981,-0.15361936687231062
1740006569405592600,5.804592529296875,-1.0896586924910545,5.233249612805247,-0.5065390708178281
1740006569415575800,5.814575927734375,-1.1009610077500342,5.642192232745885,-0.6385188528120518
1740006569425558500,5.82455859375,-1.1740076123256236,6.06731324954927,-0.6306728154867887
1740006569435541500,5.83454150390625,-1.278705931097269,6.5252154229700565,-0.652983431494236
1740006569445524700,5.844524658203125,-1.3412018424987793,6.922462344419956,-0.6389858858019113
1740006569455506700,5.854506591796875,-1.3952140031933784,7.134453820762038,-0.30747897224128246
1740006569465489700,5.86448974609375,-1.2456781062424183,7.5125465444087975,-0.0527899254232645
1740006569475472600,5.87447265625,-0.9773066440958529,8.063677036625146,-0.03409633086919785
1740006569485456000,5.884455810546875,-0.8217945953447371,8.57188257935047,-0.186381234267354
1740006569495438600,5.8944384765625,-0.7958066790640353,8.961755172640085,-0.5318161354154348
1740006569505421600,5.904421630859375,-0.8860089280366897,9.203519271433352,-0.9194663764804601
1740006569515404800,5.91440478515625,-0.9799509480595588,9.534677225425838,-1.0072323382169008
1740006569525387800,5.9243876953125,-1.0791560031771659,9.899161110436916,-0.9348129986941814
1740006569535370500,5.93437060546875,-1.084219716307521,10.240217942631244,-0.9559837970167397
1740006569545352700,5.944352783203125,-1.026469538128376,10.67454693276286,-1.0480910028278827
1740006569555335700,5.954335693359375,-1.117504146271944,11.083047069633006,-1.2737941936582327
1740006569565318700,5.964318603515625,-1.1891752977758645,11.352675326907635,-1.5389210478603839
1740006569575301600,5.974301513671875,-1.2758815213263035,11.511424457883834,-1.6312965492188929
1740006569585284600,5.98428466796875,-1.3355296420812606,11.697664822375774,-1.4038240106284618
1740006569595267600,5.994267578125,-1.233390287077427,12.032163318967818,-0.8479296650111675
1740006569605250600,6.00425048828125,-1.0270599783021956,12.32291385924816,-0.31201018593013286
1740006569615233500,6.014233642578125,-0.7439052269130945,12.328738035356997,-0.09506839370429515
1740006569625215500,6.024215576171875,-0.592881721752882,12.013629298889636,-0.17918460076153278
1740006569635198700,6.03419873046875,-0.5690343246322125,11.698370924818516,-0.34858722769916056
1740006569645181700,6.044181640625,-0.4779681523066014,11.458681878733634,-0.6371633465498685
1740006569655164700,6.05416455078125,-0.4262901336479932,10.970427237147092,-0.9931237333655357
1740006569665147600,6.064147705078125,-0.3377824136335403,10.337985073900223,-0.9806991360783577
1740006569675130600,6.074130615234375,-0.1084199696432799,9.86737481007576,-0.559251839351654
1740006569685113600,6.084113525390625,0.08349142622239887,9.472587556737661,-0.05408347236514091
1740006569695096800,6.094096923828125,0.25215097970776257,8.987088351339102,0.4741173951625824
1740006569705079600,6.10407958984375,0.361644789127633,8.538124102133512,1.1843056459128856
1740006569715061800,6.114061767578125,0.5826186864137649,8.263478308957815,2.1503712764829395
1740006569725044700,6.124044677734375,0.8830307890087365,8.074664879107475,3.1258383571267125
1740006569735027500,6.13402734375,1.0587000751256943,8.04108643463254,3.9855613357841966
1740006569745010700,6.1440107421875,0.9938695832967758,7.97681591477394,4.656068733531236
1740006569754993700,6.15399365234375,0.6698609165370464,7.7570824460029595,5.117208573698997
1740006569764976600,6.1639765625,0.1436252116024494,7.431050748983025,5.519459002524614
1740006569774959600,6.173959716796875,-0.4752577973693609,6.980018461331725,6.030731531605124
1740006569784942600,6.183942626953125,-1.163757947924733,6.36504064310491,6.624182577678561
1740006569794925600,6.193925537109375,-1.6730173836171627,5.524643711686134,7.039182013440132
1740006569804907500,6.203907470703125,-1.8318296429574488,4.518720117980242,6.967408570605516
1740006569814890500,6.213890380859375,-1.576318173840642,3.518550850017369,6.232703718236088
1740006569824873700,6.223873779296875,-1.200302840989828,2.638402922968566,5.3722576860010625
1740006569834856700,6.233856689453125,-1.1032838977396489,1.7526694508723915,4.640485379952192
1740006569844840000,6.24383984375,-0.9339040671557187,0.7734722437895833,3.8276258592784402
1740006569854823000,6.253822998046875,-0.5126631066560745,-0.02827157023847103,3.1852906630486246
1740006569864806000,6.263805908203125,-0.14175064990222452,-0.7809398031912743,2.7938451213538644
1740006569874789000,6.2737890625,0.017009039000608028,-1.5508254206657408,2.6483804193645715
1740006569884770800,6.283770751953125,0.13669044390320778,-2.3199843313008546,2.424517303442955
1740006569894754000,6.293754150390625,0.2891682395249605,-2.8780039985090493,2.2334172239601613
1740006569904737000,6.303737060546875,0.3430360233128071,-3.290364902460575,2.13992645483613
1740006569914720000,6.313719970703125,0.19988953513801097,-3.664237085802853,2.135927156066894
1740006569924703000,6.323702880859375,-0.01589954338874668,-4.014243532650172,2.164009341213107
1740006569934686000,6.33368603515625,-0.3863338977694511,-4.3774452688962215,2.147880628710985
1740006569944669000,6.3436689453125,-0.7697896097540855,-4.75084252820313,1.9120400747478008
1740006569954652200,6.353652099609375,-1.017887003222108,-5.124257907688618,1.709953321826458
1740006569964635000,6.363634765625,-1.0940221483975647,-5.347005171322822,1.9639806898653507
1740006569974617000,6.3736171875,-1.0359446379601955,-5.421074616140126,2.337780100232363
1740006569984600000,6.38360009765625,-0.9704396078705787,-5.5309571326166385,2.788672102630138
1740006569994582800,6.393582763671875,-0.6911860286384821,-5.907305642944574,2.8604858774751425
1740006570004566000,6.40356591796875,-0.2978214650472626,-5.954371345502138,3.1505683092355725
1740006570014549000,6.413549072265625,-0.04538403308093548,-6.029668286287785,3.68959686024785
1740006570024532000,6.423531982421875,0.19896248342096803,-6.254341549548506,4.198611381268501
1740006570034515000,6.433514892578125,0.36388763615097847,-6.458635457125306,4.657827559897303
1740006570044498000,6.443497802734375,0.3249619854291901,-6.489017735907435,5.163930577385425
1740006570054481200,6.453481201171875,0.23890931215034797,-6.46351329229474,5.915458554261923
1740006570064462800,6.463462890625,0.14033612519549205,-6.4660115388512605,6.598396394515037
1740006570074446000,6.473446044921875,-0.021236867562402038,-6.363523224279284,7.346073541182279
1740006570084429000,6.483428955078125,-0.3935188408374786,-6.4116667852014295,8.119132381865382
1740006570094412000,6.493412109375,-0.6252998902767897,-6.799499397096038,8.86571471903324
1740006570104395000,6.50339501953125,-0.42274025914669033,-7.102479304352403,9.50629225794077
1740006570114378000,6.5133779296875,-0.22108137624859808,-7.4573945660293095,10.060459925895929
1740006570124361000,6.52336083984375,-0.11374152999222278,-7.846376347959041,10.457135184937714
1740006570134344200,6.53334423828125,-0.0017956512451171875,-7.942693280419707,10.77553711773157
1740006570144326000,6.543325927734375,-0.016130470634368246,-7.712369444051385,11.055286956048011
1740006570154309000,6.55330908203125,-0.318108502805233,-7.47201521205604,11.035235517144203
1740006570164292000,6.5632919921875,-0.7755424741923809,-7.31585960470438,10.587351464390753
1740006570174274800,6.57327490234375,-1.2802712807178496,-7.216465164494514,9.934670815235377
1740006570184258000,6.583258056640625,-1.640955188924074,-7.266993574726581,9.204483148029446
1740006570194241000,6.593240966796875,-1.6250246293425559,-7.422801976075768,8.3722005494833
1740006570204223700,6.6032236328125,-1.3588742773115634,-7.461290988945961,7.420086871898174
1740006570214207000,6.61320703125,-0.9223007231235504,-7.420215466713905,6.661482673025131
1740006570224190000,6.62318994140625,-0.44911268123295156,-7.191720599338412,6.139314071398973
1740006570234172000,6.633171875,0.026373043140769003,-6.771105661782622,5.872993038976192
1740006570244155000,6.64315478515625,0.4322621207296848,-6.112824708402156,5.887461124789715
1740006570254138000,6.65313818359375,0.7085784774661064,-5.277579168397188,5.96384176915884
1740006570264121000,6.66312109375,0.8127039647858589,-4.422505476850271,6.1029153088063
1740006570274103800,6.673103759765625,0.735669824944064,-3.4943992823183536,6.384277258494496
1740006570284087000,6.683087158203125,0.5736847807865589,-2.4380022234380245,6.721568016153574
1740006570294070000,6.693070068359375,0.350567003339529,-1.4256184938073158,6.863517988020181
1740006570304053000,6.703052978515625,0.09115670015327632,-0.557856877861917,6.70449179366827
1740006570314036000,6.713035888671875,-0.264998880440928,0.08269815695285797,6.322041459333896
1740006570324018000,6.723017822265625,-0.603700637409091,0.4296636286690831,5.636131325271725
1740006570334001200,6.733001220703125,-0.9086772714406252,0.6330611719280481,4.845917351648211
1740006570343983900,6.74298388671875,-1.1144652169674634,0.7327183547273278,4.1607466377764935
1740006570353966800,6.752966796875,-1.232533962509036,0.866207664501667,3.7462066362202164
1740006570363950000,6.7629501953125,-1.3138245907515287,0.9588535072341561,3.314966259753704
1740006570373933000,6.77293310546875,-1.5606307753652333,0.9784005037471651,2.892051813083887
1740006570383915800,6.782915771484375,-1.7065052271991967,0.966233388352394,2.3283044158786534
1740006570393899000,6.79289892578125,-1.7583879746496676,0.9988244292251766,1.684542401716113
1740006570403881000,6.802880859375,-1.851975189885497,1.0553599709175527,1.3391443254470825
1740006570413864000,6.812864013671875,-1.975761144030094,1.3451383051648735,1.287557346072793
1740006570423847000,6.822846923828125,-2.0789859561830757,1.7060899243965744,1.0241355422228575
1740006570433830100,6.832830078125,-2.0919570814371107,1.7786407813444733,0.6598480565667152
1740006570443813000,6.842813232421875,-1.9472914208710193,2.0628044905804095,0.6055483111023903
1740006570453795800,6.8527958984375,-1.946532711458206,2.662024037052691,0.7944453275829553
1740006570463779000,6.862779052734375,-2.111377236700058,3.140662416771054,0.9096265349894761
1740006570473762000,6.872761962890625,-2.1595009238779546,3.5495880855768918,0.8191659273415803
1740006570483745000,6.8827451171875,-2.1360873150646684,4.0707115620642895,0.6759118871390819
1740006570493727000,6.89272705078125,-2.205824283635616,4.634915470865368,0.46824178112745285
1740006570503710000,6.9027099609375,-2.328606613695621,5.192562797629833,0.3211176214933395
1740006570513693200,6.912693115234375,-2.4687410605728624,5.661310190191864,0.271613878133893
1740006570523676000,6.922676025390625,-2.5731846008658406,6.0397103723526,0.34790392161011696
1740006570533659000,6.932658935546875,-2.636601718765497,6.374725001773238,0.4352244776666164
1740006570543642000,6.94264208984375,-2.5634885517597197,6.622295741018653,0.5480483082920312
1740006570553624800,6.952624755859375,-2.3240146097302437,7.0090674456834785,0.8707634281098842
1740006570563607800,6.96260791015625,-1.9621758324004708,7.579191976705193,1.3311141637265682
1740006570573590000,6.972590087890625,-1.5187982972860334,8.24934749227464,1.6392168208241462
1740006570583573000,6.982572998046875,-1.0740415097076446,8.877406325870751,1.7463146750181913
1740006570593556000,6.992555908203125,-0.8286112165570259,9.319871860706806,1.6758341946035622
1740006570603539000,7.0025390625,-0.7716659980852156,9.71198317283392,1.5480062715917824
1740006570613522200,7.012522216796875,-0.764885471099615,10.068379028457402,1.3386328687936067
1740006570623505000,7.0225048828125,-0.8085189341861754,10.438649095654487,1.0091273581832647
1740006570633488000,7.03248779296875,-1.008832174628973,10.746002395689487,0.596619154715538
1740006570643471000,7.04247119140625,-1.2611737815380095,11.00163486083746,0.2706558467566967
1740006570653454000,7.0524541015625,-1.4867290883302688,11.371546031594276,0.22267595196366308
1740006570663436000,7.06243603515625,-1.6920166831195353,11.82484392609,0.40280397105515003
1740006570673419000,7.0724189453125,-1.9539818584203719,12.073816348826885,0.4426636877566576
1740006570683402000,7.082402099609375,-2.151979296201467,11.923072829651831,0.06218260766863823
1740006570693385000,7.092385009765625,-2.1295032604992388,11.633881793773174,-0.6380237627714872
1740006570703368000,7.102367919921875,-2.0073978067874907,11.371302870488167,-1.3485270708203314
1740006570713351000,7.112350830078125,-1.89092948217988,11.077268486231565,-1.8909329893112181
1740006570723334100,7.122334228515625,-1.6640730296611785,10.78448965499401,-2.285523843294382
1740006570733316900,7.13231689453125,-1.4260826041877268,10.53659158349037,-2.4378525858342646
1740006570743299800,7.1422998046875,-1.2412906849384306,10.337291830939053,-2.4627245767623185
1740006570753282000,7.152281982421875,-1.2523399022191761,9.895296251702309,-2.472204937291145
1740006570763264800,7.1622646484375,-1.3935504538953303,9.361537750047445,-2.443378071257472
1740006570773248000,7.172248046875,-1.5009019905894994,8.816099916514753,-2.0888076774954794
1740006570783231000,7.18223095703125,-1.482092076179385,8.373264963844418,-1.374979608938098
1740006570793214200,7.192214111328125,-1.2104478029072283,8.033500509548187,-0.5408668723553419
1740006570803197000,7.202197021484375,-0.7759247515082359,7.704334021633863,0.5630664292037487
1740006570813180000,7.212179931640625,-0.16790274376869202,7.335370945382118,1.9244898064762352
1740006570823163100,7.2221630859375,0.5556015001505613,6.948366601005196,3.1348622060596942
1740006570833144800,7.232144775390625,1.2627630965560674,6.664109514397382,3.7287609959006307
1740006570843127600,7.24212744140625,1.8221008606255054,6.317279359498619,3.806991652050614
1740006570853110500,7.252110595703125,2.1448469601035116,5.8338131212323905,3.4755087038874626
1740006570863093500,7.262093505859375,2.1636673959076402,5.255801636353135,2.878441220882535
1740006570873076500,7.272076416015625,1.936720927017927,4.702516596451401,2.1450842759907243
1740006570883059500,7.2820595703125,1.593108565121889,4.150450284689665,1.4796107807576655
1740006570893042700,7.292042724609375,1.134233162754774,3.5665029800206423,0.9250070594727993
1740006570903025700,7.302025634765625,0.6157844584345817,3.078568948690593,0.6487789655417203
1740006570913008400,7.31200830078125,0.058576107609272,2.660143922394514,0.5405699352353811
1740006570922990600,7.321990478515625,-0.5940040037810802,2.2751437574468554,0.48306700981557366
1740006570932973600,7.3319736328125,-1.1474445265054702,1.9073634612388908,0.45939913398027415
1740006570942956500,7.34195654296875,-1.603349388629198,1.3809756344825028,0.4958253691017627
1740006570952939500,7.351939453125,-1.8016379183113573,0.7314053724326193,0.710981446954608
1740006570962922500,7.361922607421875,-1.6196376756072044,0.12631196549087761,0.9786778593838215
1740006570972905700,7.37190576171875,-1.2992764254391194,-0.5157184025734662,1.367389007678628
1740006570982888400,7.381888427734375,-0.9594809914827346,-1.1914125553086399,1.7672317908406256
1740006570992871400,7.391871337890625,-0.48181554844975466,-1.6216887629181145,2.2948995744049547
1740006571002854700,7.401854736328125,-0.08352700899243354,-1.8702943981692193,2.678285143762827
1740006571012836400,7.41183642578125,0.06419102488160133,-2.372581949022412,2.790487627619505
1740006571022819600,7.421819580078125,0.05696282719373703,-2.8584540793865916,2.992686024221778
1740006571032802600,7.431802490234375,0.03151274411678314,-3.2492069626420736,3.3488445639580484
1740006571042785300,7.441785400390625,0.024963779131043702,-3.6900188850522038,3.7630607403874397
1740006571052768500,7.4517685546875,0.0034825631524436173,-4.120385985815525,3.986923856309056
1740006571062751500,7.46175146484375,-0.12901333340406418,-4.449897926166654,4.117130198889971
1740006571072734700,7.471734619140625,-0.3850408988168463,-4.558034475758672,4.331238228994608
1740006571082717400,7.481717529296875,-0.7773895633637905,-4.666080424457788,4.706383208751678
1740006571092699600,7.49169970703125,-1.062656119275093,-4.879608608847856,5.181184494525194
1740006571102682600,7.5016826171875,-1.153008005851507,-5.075570156887173,5.694842457437515
1740006571112665300,7.511665283203125,-1.0525567500650883,-5.19514287725091,6.080281452193856
1740006571122648600,7.521648681640625,-0.8618716811239718,-5.20153930028975,6.421104475632309
1740006571132631600,7.531631591796875,-0.8980138386070727,-5.253278839877248,7.357565241533518
1740006571142614500,7.541614501953125,-1.188862505499646,-5.364905569672584,8.743345061427354
1740006571152597500,7.551597412109375,-1.3206488838136194,-5.430272068074346,9.888437471848725
1740006571162580500,7.56158056640625,-1.4024877935886382,-5.518652946838737,10.466996069216728
1740006571172563500,7.5715634765625,-1.40641928781867,-5.680426394072175,10.191217472618817
1740006571182545400,7.58154541015625,-0.9476865818578749,-5.5098868720591065,10.051357751029729
1740006571192528400,7.5915283203125,-0.5823089628774673,-5.248634228941798,9.676264209198951
1740006571202511600,7.60151171875,-0.5470481913387775,-5.086502469789981,9.45063875977993
1740006571212494600,7.61149462890625,-0.7521160789627581,-5.297786674645542,9.114672528722881
1740006571222477300,7.621477294921875,-0.9090146136362105,-5.726528220033646,8.833833141604066
1740006571232460500,7.63146044921875,-1.0263959614355116,-6.236850316521525,8.791617217165232
1740006571242443500,7.641443603515625,-1.0560475147902966,-6.551401419106125,8.965038432094454
1740006571252426800,7.6514267578125,-0.9721148476064204,-6.976499639555811,9.017015287569164
1740006571262409500,7.661409423828125,-0.8551321437358855,-7.747509146493673,8.483568336081504
1740006571272391700,7.6713916015625,-0.7804443478245288,-8.627773977920413,7.582896676442027
1740006571282374700,7.681374755859375,-0.6877040317416191,-9.183015997108816,6.737793759289383
1740006571292357400,7.691357421875,-0.6364706881105899,-9.220451701533793,6.2068146592199795
1740006571302340600,7.701340576171875,-0.6220820972740649,-8.853505225801467,6.179708041107654
1740006571312323600,7.711323486328125,-0.5418097426960244,-8.237609123685955,6.389879316285252
1740006571322306600,7.721306640625,-0.4989478485038504,-7.389391289383172,6.808245013609528
1740006571332289500,7.73128955078125,-0.4889045933952555,-6.371229560872912,7.334673610767721
1740006571342272500,7.7412724609375,-0.5268167196929454,-5.311320109957456,7.748213495370745
1740006571352254700,7.751254638671875,-0.597163965649344,-4.227040187895298,7.902471744668484
1740006571362237400,7.761237548828125,-0.6068915424048901,-3.1394419350653884,8.008269622179865
1740006571372220400,7.771220458984375,-0.5887047283291816,-2.1117934162855145,7.851379855334758
1740006571382203600,7.78120361328125,-0.5873755255520343,-1.2164870830714702,7.3880667627811425
1740006571392186600,7.7911865234375,-0.5650923820734024,-0.3811044726833701,6.680162239053845
1740006571402169300,7.80116943359375,-0.683455726647377,0.33809096812605854,5.813072531020641
1740006571412152600,7.811152587890625,-0.945036359610036,0.8199179147526622,4.909358434945345
1740006571422135600,7.821135498046875,-1.099121005906537,1.106025013141334,3.8929578708887096
1740006571432118500,7.831118408203125,-1.1993605917036532,1.2515136805281042,2.8871611184328794
1740006571442100500,7.8411005859375,-1.2776783416152,1.4244886129945515,2.1125176389068363
1740006571452083700,7.851083740234375,-1.3119780861020087,1.6428174756646154,1.4518039054214953
1740006571462066400,7.86106640625,-1.319963824158907,1.8146616505354642,0.7914695266425609
1740006571472049400,7.87104931640625,-1.291074414283037,1.9147462649665772,0.2514782680779695
1740006571482032600,7.88103271484375,-1.2522107228815555,2.0149851931765674,-0.15999240903556347
1740006571492015600,7.891015625,-1.2348469156265258,2.1105808256253598,-0.4736754966139793
1740006571501998300,7.900998291015625,-1.1692343335092068,2.257090798883885,-0.4618085332095623
1740006571511981600,7.910981689453125,-0.9713596453249453,2.3524378633990883,-0.4293862730324268
1740006571521964500,7.920964599609375,-0.5105097280144691,2.5521961733728644,-0.4150397677719593
1740006571531947500,7.930947509765625,-0.24576222851872442,2.8744547815948724,-0.22305647571384907
1740006571541929500,7.940929443359375,-0.33833171807937323,3.293322583222389,-0.04063596177101135
1740006571551912400,7.950912353515625,-0.5286017034135758,3.692758539149165,-0.030505612900853154
1740006571561895700,7.960895751953125,-0.6060883362632244,4.098360616490244,-0.2821878791183233
1740006571571878400,7.97087841796875,-0.6913759982526302,4.518568142288923,-0.5075274973332882
1740006571581861400,7.980861328125,-0.9661305124998092,4.942568046107888,-0.5911106204271316
1740006571591844600,7.9908447265625,-1.3322574885427951,5.2742053080499165,-0.5132803617715835
1740006571601827600,8.00082763671875,-1.5834978562116622,5.573956316387653,-0.30710487823188304
1740006571611810600,8.010810546875,-1.7751567386209963,6.005967677226662,0.028318916511535643
1740006571621792500,8.02079248046875,-1.9231227559067308,6.491464544537663,0.4168482784986496
1740006571631775700,8.030775634765625,-2.0558628547489644,6.972533074012398,0.7564601725816726
1740006571641758500,8.040758544921875,-2.207255193221569,7.4408373989820475,0.9650777885764836
1740006571651741400,8.050741455078125,-2.3505692930482325,7.927490450590849,1.1380091741621494
1740006571661724700,8.060724609375,-2.5103543429434296,8.432002984017133,1.3568693672299383
1740006571671707600,8.070707763671875,-2.612880651438236,8.898295969164371,1.4528426008194684
1740006571681690400,8.0806904296875,-2.66873054895401,9.277955211475492,1.4125024071246384
1740006571691673600,8.090673583984374,-2.7095582339048385,9.46626770606637,1.2532850741147994
1740006571701656600,8.100656494140624,-2.7440754205346107,9.507516246777772,1.0503665465444325
1740006571711638500,8.110638427734376,-2.7057541654467583,9.557755318674445,1.0479776055812835
1740006571721621500,8.12062158203125,-2.4782582459807396,9.843547359764575,1.2746937728464602
1740006571731604500,8.1306044921875,-2.222379258725792,10.32082935643792,1.4892057075768708
1740006571741587700,8.140587646484375,-2.0761551166713237,10.63596030473709,1.5719582250654696
1740006571751570400,8.1505703125,-1.949866678186506,10.721259584099053,1.430754103130102
1740006571761553400,8.160553466796875,-1.8477122717440126,10.58444989773035,1.1726087783783674
1740006571771536600,8.17053662109375,-1.8476188943721352,10.321748224848509,0.8879822739362716
1740006571781519400,8.180519287109375,-1.8842869754254816,9.883367328977585,0.3079787384569645
1740006571791501600,8.19050146484375,-1.7982009296000003,9.146739984112978,-0.5696709420353174
1740006571801484500,8.200484619140624,-1.6726164016008376,8.442479954367876,-1.3762509440481663
1740006571811467500,8.210467529296874,-1.5657950262606144,7.888899146389961,-1.9211831661462784
1740006571821450500,8.220450439453124,-1.4330208790183065,7.367336109441518,-2.062576673173904
1740006571831433500,8.23043359375,-1.1819441044133157,6.792018685951828,-2.0267332063764334
1740006571841416700,8.240416748046876,-0.8264496546089649,6.386928065264224,-1.6674293543517589
1740006571851400200,8.250400146484376,-0.36889885190911587,6.276708279657363,-0.9942857628822326
1740006571861382100,8.260382080078125,0.02618183141760528,6.244912626945972,-0.29766192710399625
1740006571871365400,8.270365478515625,0.3039338104477152,6.088951665383577,0.4486901084393263
1740006571881348000,8.28034814453125,0.5812053124845028,5.841681370389461,1.0418903946220874
1740006571891331000,8.2903310546875,0.8361140664678066,5.600327605962753,1.5148013366043567
1740006571901314300,8.300314208984375,1.055115786898136,5.284964017951488,1.912000327259302
1740006571911297300,8.31029736328125,1.2590659956037997,4.889599841508269,2.1447277176380157
1740006571921280300,8.3202802734375,1.4520482355713844,4.417768511456251,2.1569430560886858
1740006571931263200,8.33026318359375,1.5767220784664153,3.852464240197837,2.075429140484333
1740006571941246200,8.34024609375,1.6827683777809141,3.269114901421964,1.7228788543730973
1740006571951228200,8.350228271484376,1.7110519307181238,2.7488705458566547,1.206856500416994
1740006571961211100,8.360211181640626,1.6907202135682105,2.3285401243306696,0.7114443882912397
1740006571971194400,8.3701943359375,1.5760919638693331,2.0274929387025535,0.13641981026828287
1740006571981177300,8.38017724609375,1.3023732224106788,1.761328412015736,-0.556230445703864
1740006571991160000,8.39016015625,0.8873836504559963,1.505854060038924,-1.1719985375255346
1740006572001143300,8.400143310546875,0.3898842837274074,1.2526640196070074,-1.6222259385347366
1740006572011126300,8.410126220703125,-0.16570026528835297,1.034756085762754,-1.8942051428496836
1740006572021109200,8.420109130859375,-0.6021592531859874,0.760467362396419,-1.9685849687904118
1740006572031091200,8.43009130859375,-0.973488474047184,0.4375096659943461,-1.7831781325131653
1740006572041074200,8.44007421875,-1.1868576684832572,0.13608122596368194,-1.608446419507265
1740006572051057400,8.450057373046874,-1.2432897498011588,-0.11778130690231918,-1.7636469180911778
1740006572061040000,8.4600400390625,-1.2997294299036264,-0.4032797718733549,-1.8369366107076406
1740006572071023000,8.470023193359374,-1.428805307149887,-0.8302217204935848,-1.7155436891794205
1740006572081006300,8.48000634765625,-1.4854694436579943,-1.3255559450775385,-1.398015616610646
1740006572090989300,8.4899892578125,-1.4552444012641905,-1.684122422738373,-0.9545300910770893
1740006572100972300,8.49997216796875,-1.75390761436522,-2.0077187093049287,-0.4290589407742023
1740006572110955300,8.509955322265625,-1.952047675487399,-2.4755998404264448,-0.052985740256309505
1740006572120937500,8.5199375,-1.9166402620196341,-3.022340573251247,0.1974824739962816
1740006572130920200,8.529920166015625,-1.7869149809539318,-3.4395024477437137,0.6220347510010004
1740006572140903200,8.539903076171875,-1.627566130518913,-3.6233249374389644,1.4571137022674083
1740006572150886400,8.549886474609375,-1.3663023814857005,-3.7088334756374355,2.5633681402504442
1740006572160869000,8.559869140625,-1.0048001426339148,-3.839099731712043,3.6700323280781504
1740006572170852000,8.56985205078125,-0.7915057669997215,-4.095863538977503,4.637950308516621
1740006572180835300,8.57983544921875,-0.7259469608962535,-4.339042765265703,5.40310816681683
1740006572190818300,8.589818359375,-0.6454512824237346,-4.642837496036291,5.9347793408036225
1740006572200800300,8.59980029296875,-0.5919604787221178,-4.909687520769238,6.540040651658177
1740006572210783200,8.609783203125,-0.49812951785828913,-5.133281172099709,7.382900173798203
1740006572220766200,8.61976611328125,-0.28969368817117064,-5.213440165963768,8.254821539771557
1740006572230749200,8.629749267578125,-0.1639851684661582,-5.227592609956861,9.01167158845365
1740006572240732200,8.639732177734375,-0.45106027163676915,-5.402310294437408,9.599206103959679
1740006572250715100,8.649715087890625,-1.0426992998521774,-5.531373896723985,10.071845243263244
1740006572260698400,8.659698486328125,-1.4664508549332618,-5.566164055076241,10.577994437980651
1740006572270681000,8.66968115234375,-1.447019009232521,-5.663294642007351,11.492462567782402
1740006572280664300,8.679664306640625,-0.4327496485183015,-5.590870041787624,12.621740153956413
1740006572290646300,8.689646240234374,1.446322405270487,-5.597528915154934,13.67433314437866
1740006572300629200,8.699629150390624,3.5439503719508645,-6.0354421935141085,13.838109163606166
1740006572310612200,8.7096123046875,5.0738241900026795,-6.703031073465943,12.475712557387352
1740006572320595200,8.71959521484375,5.864251514115929,-7.26658557844758,10.636621983516216
1740006572330578400,8.729578369140626,6.652633011615276,-7.428816121798754,9.156737061992287
1740006572340561200,8.73956103515625,7.03594142408371,-7.2460606768131255,7.732711974856257
1740006572350544100,8.749544189453125,6.787367060753703,-7.131639347863197,6.278551277175545
1740006572360527400,8.75952734375,5.979480067795515,-7.139312366709112,5.084050984984636
1740006572370509000,8.769509033203125,4.784333294394612,-7.154246316468715,4.237918140262365
1740006572380492300,8.7794921875,3.33681334990263,-6.907597368243336,4.09368911754787
1740006572390475300,8.789475341796875,1.968784290754795,-6.31541298110485,4.539509808030724
1740006572400458200,8.799458251953125,0.8807645976424217,-5.424640199667215,5.034021171924471
1740006572410441200,8.809441162109374,-0.10542845967710017,-4.43084426612854,5.3970244629889725
1740006572420424200,8.819424072265624,-0.7940361622601747,-3.310451412677765,5.600995129960775
1740006572430407200,8.8294072265625,-1.1983610592722893,-2.1761574596464635,5.664948838955164
1740006572440390400,8.839390380859374,-1.461545547235012,-1.1435334905415773,5.694338015046715
1740006572450373000,8.849373046875,-1.8182324947595596,-0.23443594786226749,5.33512885556817
1740006572460355300,8.859355224609375,-2.2323253370702267,0.3572629938468337,4.7164539363890885
1740006572470338300,8.86933837890625,-2.6480197693586347,0.6859966433018445,4.009602136585116
1740006572480321300,8.8793212890625,-2.9530981101989746,0.8251698439314961,3.198770906868577
1740006572490304300,8.88930419921875,-3.1138369536876676,0.8765808822169899,2.525264911827445
1740006572500287200,8.899287353515625,-3.0745407160878178,0.8848916144445538,2.0954414164215325
1740006572510270200,8.909270263671875,-2.811844888424873,0.7414332838416099,1.715658255469799
1740006572520253200,8.919253173828125,-2.2738439268946644,0.6392398605629801,1.2068290278881788
1740006572530236200,8.929236083984375,-1.7154501656770704,0.7287795539736748,0.7055623445153236
1740006572540218000,8.939218017578124,-1.3612813384532927,0.8978747223973274,0.3706926765233278
1740006572550201000,8.949201171875,-1.223673195183277,0.9931607043750583,0.049534138497710226
1740006572560184300,8.959184326171876,-1.19505156939812,0.9828662509843706,-0.20995207946896552
1740006572570167300,8.969167236328126,-1.2952211586989462,0.987346172877401,-0.14393150107264518
1740006572580150000,8.97914990234375,-1.473587867206335,1.0800636195413769,0.43854806913137434
1740006572590133200,8.98913330078125,-1.5061387221992015,1.4133311130337416,0.7746557544857263
1740006572600116200,8.9991162109375,-1.4453075291395185,1.9278112059839068,0.7608446712762117
1740006572610099200,9.00909912109375,-1.560521469771862,2.439593876543641,0.5692249518334865
1740006572620082200,9.019082275390625,-1.807125409811735,2.913952679246664,0.3234855196684599
1740006572630064000,9.029064208984375,-1.990306386733055,3.459346089115739,0.18355273284316062
1740006572640047400,9.03904736328125,-2.0717127503097057,4.17484384445101,0.17674013021886348
1740006572650030000,9.049030029296874,-2.1537655950963495,4.879320147295296,0.29125147553980346
1740006572660013300,9.059013427734374,-2.239053184020519,5.513859867343307,0.3251063988685608
1740006572669996300,9.068996337890624,-2.3556243844807145,6.043136839669942,0.25879823570251465
1740006572679979300,9.078979248046876,-2.389302197676897,6.5136693620830775,0.31629356233775613
1740006572689962200,9.088962158203126,-2.339815405452251,6.972834102785587,0.34787703360319133
1740006572699945200,9.0989453125,-2.110196502482891,7.453285377144813,0.3141512896120548
1740006572709927400,9.108927490234375,-1.8425591267645358,7.947658793872594,0.3354004138678312
1740006572719910100,9.11891015625,-1.5344436101853847,8.46532073172927,0.38589258374273777
1740006572729893000,9.12889306640625,-1.2173299636363983,9.006819472247361,0.3367424761265516
1740006572739876400,9.13887646484375,-0.9002432050943374,9.514097963255644,0.25728607757389543
1740006572749859300,9.148859375,-0.705632487142086,9.97371570842266,0.15271277342140674
1740006572759842000,9.158842041015625,-0.6917980961222201,10.378508807468414,-0.04125438593029976
1740006572769825300,9.1688251953125,-0.8213923712193966,10.69834515697956,-0.302888137319684
1740006572779808300,9.178808349609374,-1.0956956345677376,10.942441498112679,-0.5269084896296262
1740006572789791200,9.188791259765624,-1.5119944624900816,11.18102696686983,-0.5561532888144254
1740006572799773200,9.198773193359376,-2.010409263563156,11.54436811158657,-0.23797113625109195
1740006572809756200,9.208756103515626,-2.4524796616017817,11.793683064150809,0.17830898697078226
1740006572819739400,9.218739501953126,-2.733354120033979,11.623331173664331,0.11972469605505466
1740006572829722000,9.22872216796875,-2.84219443398118,11.051863995862007,-0.19613456651866434
1740006572839705300,9.238705322265625,-2.4354504931285974,10.470238996660708,-0.18427870903015137
1740006572849687600,9.2486875,-1.523739845341444,9.972332729631662,0.0022620997130870816
1740006572859670500,9.25867041015625,-0.6125205612678081,9.447944113868475,-0.019305004450678825
1740006572869653500,9.268653564453125,0.06644369917921722,8.92131093404889,-0.22263737351894378
1740006572879635500,9.278635498046874,0.4694972610812634,8.302117543953656,-0.5293658196538686
1740006572889618700,9.28861865234375,0.6866376446191221,7.610176897555589,-0.8350713524818419
1740006572899601400,9.298601318359376,0.6995627387743443,6.933742447847128,-0.8615005097240209
1740006572909584600,9.308584716796876,0.6362625983178615,6.408385863834619,-0.5014706815123557
1740006572919567600,9.318567626953126,0.5734722340144217,6.16102847507894,0.18921090473532676
1740006572929550300,9.32855029296875,0.5529087539352476,6.081047760391235,1.0737544363945721
1740006572939533600,9.338533447265625,0.7296633510708809,6.079986268639564,1.645082497987151
1740006572949516500,9.3485166015625,1.091230910243839,6.076746848326921,1.9107652325063942
1740006572959498500,9.35849853515625,1.3527787369154394,6.049752458417415,2.0615619431734085
1740006572969481500,9.3684814453125,1.320291010286659,6.09681582288742,2.088077025133371
1740006572979464400,9.37846435546875,1.1524701726477593,5.939032322072983,1.8326754461318253
1740006572989447700,9.38844775390625,0.8581845170438289,5.393797317636013,1.3627216003894804
1740006572999430400,9.398430419921874,0.38771336942911144,4.65960509096384,0.8666834653198718
1740006573009413400,9.408413330078124,0.022623481348901985,3.9639085991635916,0.39960780536234375
1740006573019396600,9.418396728515624,-0.25135486089400944,3.3168539731964466,0.06983809085786342
1740006573029379600,9.428379638671874,-0.4419955792367458,2.6925194208204744,-0.20680852074623107
1740006573039362300,9.4383623046875,-0.533557353059575,2.0997940586730834,-0.6180734461545944
1740006573049344500,9.448344482421875,-0.470535445022583,1.5643348905801773,-1.1068331146538257
1740006573059327500,9.458327392578125,-0.49330140358209607,1.2426841851234436,-1.5887129605114458
1740006573069310500,9.468310546875,-0.6485983482778072,0.9856605578780173,-1.8656272831410168
1740006573079293400,9.47829345703125,-0.8291583290457725,0.6873325680807233,-1.9360966576397418
1740006573089276700,9.488276611328125,-0.940337899595499,0.3119377052158117,-1.7192250080406666
1740006573099259600,9.498259765625,-1.0409633429050444,-0.06236965467333793,-1.2149252405822277
1740006573109242400,9.508242431640625,-1.0884966629743575,-0.42613925393521784,-0.3335416342586279
1740006573119225600,9.5182255859375,-0.8853121779441833,-0.9716200498268007,0.38419279408752915
1740006573129207600,9.52820751953125,-0.6176280404746533,-1.7423872724413871,0.8825982428103685
1740006573139190500,9.5381904296875,-0.23134558063149452,-2.3539202109113333,1.282338734641671
1740006573149173500,9.548173583984376,0.1293809885395225,-2.793063031065464,1.6812088733792303
1740006573159156500,9.558156494140626,0.4862766195118427,-2.9890836158156393,2.250945281866193
1740006573169139700,9.5681396484375,0.6524637915343046,-3.1753231035247445,2.962230095681548
1740006573179122400,9.578122314453125,0.8042389918446541,-3.424027522975206,3.5367625062733885
1740006573189105400,9.58810546875,0.8359715161919593,-3.653110419371724,3.8054555285245177
1740006573199088600,9.598088623046875,0.6476818179547786,-3.902881299009919,4.148655217966437
1740006573209071600,9.608071533203125,0.45016368812322616,-3.9575609837025403,4.675798685395717
1740006573219053600,9.618053466796875,0.16511808148622512,-3.872072903770208,5.234675846216082
1740006573229036500,9.62803662109375,-0.12635260802851989,-4.038012238511443,5.806596028482914
1740006573239019500,9.63801953125,-0.3450853570580482,-4.179661181604862,6.436950864061713
1740006573249002500,9.64800244140625,-0.29895372048020363,-4.16888435152471,7.275770755422115
1740006573258985500,9.6579853515625,0.1109832077274099,-4.310187257659435,7.964736185401677
1740006573268968700,9.66796875,0.2749369216093793,-4.674329197365045,8.386705460175872
1740006573278951400,9.677951416015626,0.97559633304663,-4.810467268082499,8.787821916535496
1740006573288934400,9.687934326171876,1.7161925084769725,-4.5094396639376875,9.299636297407746
1740006573298916600,9.69791650390625,2.0151871454894543,-4.129543690261245,9.928167424690724
1740006573308899600,9.707899658203125,1.7096575537502765,-4.136000903576612,10.471527282905578
1740006573318882600,9.717882568359375,0.9993863739568739,-4.317317255669832,11.26221238117218
1740006573328865500,9.727865478515625,0.1357306589603424,-4.242687838882207,12.590173633825778
1740006573338848500,9.7378486328125,-0.6430419562596827,-4.281341686925292,13.793575609874724
1740006573348831500,9.74783154296875,-1.0251697075761854,-4.719999061650038,14.14431680073738
1740006573358814500,9.757814453125,-1.0006384198445826,-5.341289716285467,13.287248720502852
1740006573368797400,9.76779736328125,-0.7259611355520784,-6.134036423256993,11.631824276721478
1740006573378779400,9.777779296875,-0.22555779101029036,-6.823477069532871,9.78328023032844
1740006573388762400,9.787762451171876,0.1329249538898468,-7.466734056782722,7.903423346304893
1740006573398745600,9.79774560546875,0.270528420984745,-7.977008806997537,6.4023886692464345
1740006573408728600,9.807728515625,0.4161865997195244,-8.254891682398318,5.3380789375454185
1740006573418711300,9.817711181640625,0.5936123741149902,-8.231606083878875,4.723828849071264
1740006573428694500,9.827694580078125,0.8106255510766058,-8.052794408082962,4.543465852180123
1740006573438677500,9.837677490234375,1.0803916824519633,-7.726547022485732,4.616960127457976
1740006573448660700,9.84766064453125,1.1992495325446129,-7.131264669331908,4.667451128289104
1740006573458643500,9.8576435546875,1.1712988648235798,-6.405708169057965,4.707268174892664
1740006573468625700,9.867625732421875,1.22489835306406,-5.6263990358084435,4.68899660514295
1740006573478608600,9.877608642578124,1.0908078625261783,-4.78168891736567,4.6934342953294514
1740006573488591400,9.88759130859375,0.9005518326520919,-3.886898132458329,4.780861818891763
1740006573498574600,9.89757470703125,0.528162289083004,-3.125291244637966,4.596806397223473
1740006573508557600,9.9075576171875,0.11585103295948355,-2.562024324426055,4.2974435114204885
1740006573518540500,9.91754052734375,-0.2641547212343663,-2.0784224770814177,4.034893229708075
1740006573528523500,9.9275234375,-0.68272273619771,-1.702461504766345,3.8591719211429356
1740006573538506500,9.937506591796875,-1.0411328542530536,-1.3925947606056928,3.5649686100602147
1740006573548488700,9.94748876953125,-1.3676502889633178,-1.0220227878525852,3.1931858002126217
1740006573558471400,9.957471435546875,-1.4831658428907393,-0.7009691715061664,2.7363188150584694
1740006573568454400,9.967454345703125,-1.2971429205417633,-0.5092442381232977,2.4097826756477354
1740006573578437600,9.977437744140625,-0.8606126940388232,-0.30480303103029727,2.1020956136137245
1740006573588420600,9.987420654296875,-0.2795301311511546,0.025533669707179067,1.5124088885098694
1740006573598403300,9.9974033203125,0.11518712569065391,0.33898528661727906,0.9052613255172968
1740006573608386600,10.007386474609374,0.45391398056745524,0.5953849367454648,0.31509879959523673
1740006573618369500,10.01736962890625,0.533021931008622,0.8292471763730048,-0.2268757417410612
1740006573628351500,10.0273515625,0.33102636350207026,0.9114818074673414,-0.7037310374349355
1740006573638334500,10.03733447265625,0.16199673459529876,1.0351372671000658,-0.8329922081202268
1740006573648317700,10.047317626953125,0.0388169296503067,1.3150285597138105,-0.7013900272667407
1740006573658300700,10.05730078125,-0.1798328355371952,1.9411266146309674,-0.19993805045485497
1740006573668283400,10.067283447265625,-0.47513110224977134,2.675408711543679,0.4535334568172693
1740006573678266600,10.0772666015625,-0.670791329254955,3.3713983410716053,0.8576859198719262
1740006573688249600,10.08724951171875,-0.8727017026960849,4.041249028475582,1.1261708523303269
1740006573698232300,10.097232421875,-1.260302990052849,4.676900509157776,1.1236053857564925
1740006573708214500,10.107214599609375,-1.6600960888542233,5.032437702125311,0.8859738567233085
1740006573718197500,10.117197509765624,-1.860532005828619,5.060307705825567,0.5039741887658834
1740006573728180500,10.127180419921874,-2.101356485684216,4.891907826189697,0.33785131415128705
1740006573738163500,10.13716357421875,-2.3419933340132233,4.91596820847392,0.5743628992438315
1740006573748146400,10.147146484375,-2.5222239366963506,5.190819753354788,1.1364444090634584
1740006573758129700,10.157129638671876,-2.6012866597563025,5.616624660769105,1.8865268633067607
1740006573768112400,10.1671123046875,-2.6253867895290255,6.063083649155497,2.6261253329366445
1740006573778095400,10.177095458984375,-2.6951287265360353,6.441559819161892,3.27832608962059
1740006573788078600,10.18707861328125,-2.736323491233587,6.7954720412760965,3.6314620666652915
1740006573798060500,10.197060546875,-2.7268971989795565,7.213578795403242,3.6418671408236025
1740006573808043500,10.20704345703125,-2.702910174192488,7.513877500751614,3.387941479593515
1740006573818026500,10.217026611328125,-2.653352947080135,7.738675851696729,2.9614573577433823
1740006573828009700,10.227009765625,-2.533179922735691,8.051559897851943,2.7320956444054842
1740006573837992400,10.236992431640624,-2.3787423713482916,8.545462189936638,2.783623587068915
1740006573847975400,10.246975341796874,-2.0758082029297946,9.10173179860711,2.8933447755038735
1740006573857958700,10.256958740234374,-1.7215858919531106,9.502651271089912,2.802673155453801
1740006573867941600,10.266941650390624,-1.4774398664593695,9.499019052067398,2.3271838874161244
1740006573877923600,10.276923583984376,-1.358866532396525,9.220518337029219,1.5879384690076113
1740006573887906600,10.286906494140625,-1.3678031414374707,8.834910999968647,0.7818126405030489
1740006573897889500,10.2968896484375,-1.3806605771839617,8.412918928840757,-0.19654431636333464
1740006573907872800,10.306872802734375,-1.396618170902878,7.948755941459536,-1.2051596333712338
1740006573917855500,10.31685546875,-1.365715083117038,7.561202146506309,-1.9746809475779532
1740006573927838500,10.32683837890625,-1.2945496891781687,7.4292276252090925,-2.5058634612649677
1740006573937821700,10.33682177734375,-1.207086948172003,7.4641282581985,-2.9317338351309297
1740006573947804700,10.3468046875,-0.9702700965225696,7.496532982718944,-2.9798101760357616
1740006573957786600,10.35678662109375,-0.6925383200302719,7.581163569039106,-2.4578005643635987
1740006573967769600,10.36676953125,-0.5252022702336311,7.7050541526019565,-1.9613474187523126
1740006573977752600,10.376752685546874,-0.30276129606962204,7.776542348754406,-1.6215736121058464
1740006573987735600,10.386735595703126,-0.05062193373441696,7.867705551713705,-1.2568892360866069
1740006573997718500,10.396718505859376,0.05594575910568237,7.694489503967762,-0.8971177665501833
1740006574007701800,10.40670166015625,0.16737185176238417,7.146264085543155,-0.5731149450093508
1740006574017684700,10.416684814453125,0.35985724812373515,6.545633941620588,-0.12934943349063396
1740006574027667500,10.42666748046875,0.7404020410977303,6.0306935376822945,0.19097674536406992
1740006574037649700,10.436649658203125,0.9666953067757189,5.485107820111513,0.21337503965497015
1740006574047632600,10.446632568359375,0.8043839532732963,4.93777029043734,-0.16241642131209372
1740006574057615600,10.45661572265625,0.5130393926225603,4.43101260843277,-0.8009972334444523
1740006574067598600,10.4665986328125,0.06583133943453431,3.980581209284067,-1.5513374618411062
1740006574077581600,10.47658154296875,-0.31814123603105543,3.657148004324734,-2.196885774898529
1740006574087564800,10.486564697265624,-0.6416203259587288,3.47886122918576,-2.6949142070025203
1740006574097547500,10.496547607421874,-1.0835502926133573,3.310331585690379,-3.0877684464514252
1740006574107530500,10.506530517578126,-1.5129621384784577,3.1023487604677675,-3.4818571961313483
1740006574117512700,10.5165126953125,-1.774658579840511,2.8902269357442854,-3.8223458730489015
1740006574127495400,10.526495361328125,-1.9284137019217014,2.6429049105629323,-4.040654277452826
1740006574137478700,10.536478759765625,-1.9204057520329951,2.3119487627528605,-4.1396763772189615
1740006574147461600,10.546461669921875,-1.7253882068455217,1.9365159059651196,-4.167901185706258
1740006574157444600,10.556444580078125,-1.366059220379591,1.631167662142217,-3.936211321681738
1740006574167427600,10.566427490234375,-1.0137830750346184,1.3011626775771379,-3.5913048283219333
1740006574177410600,10.57641064453125,-0.6303659414947033,0.935624899598956,-3.3002485830932855
1740006574187393800,10.586393798828125,-0.20237908693142234,0.6324960853911936,-3.079244363734126
1740006574197376500,10.59637646484375,0.09326273252181708,0.44588571854308245,-2.8811370358377695
1740006574207358700,10.606358642578124,0.2951858923792839,0.36413594835624097,-2.692709974956512
1740006574217341700,10.616341796875,0.4612473921954632,0.2754274450726807,-2.500094230213761
1740006574227324700,10.62632470703125,0.4956172427764162,0.22726342588439583,-2.2366092979997396
1740006574237307600,10.6363076171875,0.5062777530005201,0.3122932406552136,-1.7901953177988528
1740006574247290600,10.64629052734375,0.48386371315121646,0.4852259414151311,-1.0021809000462294
1740006574257273600,10.656273681640625,0.5472270550370216,0.6467270014479756,-0.18447160125374792
1740006574267256600,10.666256591796875,0.6892647051870823,0.663789195407927,0.5433160190731287
1740006574277239600,10.676239501953125,0.8019289613366126,0.46143531598299736,1.4109277051538227
1740006574287221800,10.6862216796875,0.776398214238882,0.21602409285902976,2.583431854113936
1740006574297204500,10.69620458984375,0.5661177065331489,-0.0796989751368761,4.072195663142204
1740006574307187500,10.7061875,0.4362206490971148,-0.18898469476401805,5.93105476732254
1740006574317170700,10.716170654296874,-0.07697327650003134,0.22234277448654174,8.42175339268148
1740006574327153700,10.726153564453124,-0.8668588218867779,0.4507447028815746,10.991155552399158
1740006574337136400,10.736136474609374,-1.9819500617980956,0.022823826226592063,12.769617177784442
1740006574347119600,10.74611962890625,-3.3816824191987513,-1.5866887612074612,13.415235633468628
1740006574357102600,10.7561025390625,-4.067881891596317,-3.5644933937638994,13.139149578356742
1740006574367084500,10.76608447265625,-3.5694267585128543,-4.656735088485479,13.543961382102966
1740006574377067500,10.776067626953125,-2.382522912800312,-4.436992851886153,15.208920546948908
1740006574387050800,10.78605078125,-1.133518877005577,-4.117841562029719,16.59899777177572
1740006574397033700,10.79603369140625,0.1697903110809624,-4.550577730011939,16.75392646768093
1740006574407016400,10.806016357421875,1.3404748433984814,-5.427320817053317,15.829208162021636
1740006574416999700,10.815999755859375,2.4074808284461495,-6.184762986409663,14.127945511651038
1740006574426982700,10.825982666015625,3.668910922832787,-6.629692865532636,12.102785253679752
1740006574436965600,10.835965576171875,4.709561838787794,-7.115452183172106,9.823839619731903
1740006574446947600,10.845947509765624,5.10625580253005,-7.697918893894553,7.467638312146067
1740006574456930600,10.8559306640625,5.073005859357118,-7.999593563771247,5.8940130306512115
1740006574466913800,10.865913818359376,4.984669404256343,-7.730092732268571,5.202141357836127
1740006574476896500,10.875896484375,4.799491992820799,-7.065477899691462,5.04230501614511
1740006574486879500,10.88587939453125,4.507844795961677,-6.3391732113987205,5.200438061049581
1740006574496862700,10.89586279296875,4.104873359385133,-5.566846192121505,5.226218398994207
1740006574506845700,10.905845703125,3.517317216569185,-4.717134904390573,5.174665906411409
1740006574516828400,10.915828369140625,2.7242916926562786,-4.154025805088877,5.0628392701298
1740006574526810600,10.925810546875,2.0233138994522393,-3.876331145736575,4.8617695852965115
1740006574536793600,10.935793701171875,1.5164824215590953,-3.6280215708225962,4.536986427032947
1740006574546776600,10.945776611328125,1.1425769204691052,-3.4561814876049755,4.2269454953491685
1740006574556759600,10.955759521484374,0.7762189121492207,-3.359447206515074,3.9186902780383823
1740006574566742800,10.96574267578125,0.4273733257748186,-3.235311708280444,3.831584241515398
1740006574576725800,10.975725830078124,-0.020172434934973716,-3.067625237610936,4.036194375434517
1740006574586708500,10.98570849609375,-0.333408947789669,-2.9070266793757678,4.063656382855773
1740006574596691700,10.995691650390626,-0.6159861915517598,-2.887176900523901,3.7955005362212657
1740006574606673700,11.005673583984375,-0.916226956167817,-2.9655577787995338,3.284022255435586
1740006574616656600,11.01565673828125,-1.0281944622248411,-3.1465158189743754,2.596217101407051
1740006574626639600,11.0256396484375,-0.8705787191927432,-3.199046801200509,1.8804378987818955
1740006574636622600,11.03562255859375,-0.6667600279122591,-3.032616468071937,1.3890759388297795
1740006574646605600,11.04560546875,-0.48838089831471443,-2.670494636017084,1.0131927079260348
1740006574656588500,11.055588623046875,-0.26540917827486993,-2.3099194488823414,0.6487555846661329
1740006574666571500,11.065571533203125,-0.26477670732391995,-1.9259101946681736,0.34488311248421666
1740006574676554800,11.0755546875,-0.44551560658905653,-1.608748909585178,0.13959084151983261
1740006574686536400,11.085536376953126,-0.7398457223892212,-1.2857047039434313,0.07579904508888721
1740006574696519700,11.095519775390626,-1.0128875874996184,-0.912963278196752,0.023882979890704155
1740006574706502700,11.105502685546876,-1.1390332565128802,-0.4843398062303662,-0.03531505900919437
1740006574716485400,11.1154853515625,-1.134255301521346,-0.03074409783184528,-0.13928689013719558
1740006574726468600,11.125468505859375,-1.2155039172530173,0.40836745040118694,-0.34325112736821173
1740006574736451600,11.13545166015625,-1.3733856177449226,0.8922741259112954,-0.5487883130043745
1740006574746434800,11.145434814453125,-1.5452689555823802,1.481937762400508,-0.557998624420166
1740006574756417500,11.15541748046875,-1.7726187445759771,2.12809733922407,-0.40565176170170303
1740006574766399700,11.165399658203125,-2.0531739079259337,2.70397897246778,-0.3278758635818958
1740006574776382700,11.1753828125,-2.3383447483778,3.186132959091663,-0.23189444668591022
1740006574786365400,11.185365478515624,-2.632432031865418,3.664109952291846,-0.01964285810291767
1740006574796348700,11.1953486328125,-2.821280240768194,4.122783986867964,0.26674890244603155
1740006574806331600,11.20533154296875,-2.898915269112587,4.551600351057947,0.597980506196618
1740006574816314600,11.215314697265624,-2.9692125019147992,4.987693135991692,1.017088546320796
1740006574826297600,11.225297607421876,-3.017024054403603,5.477363489595056,1.5318348889917135
1740006574836280600,11.235280517578126,-3.0542724195629356,6.0700207549422975,2.0859517035424706
1740006574846263600,11.245263671875,-3.119517337411642,6.7139943660289045,2.6449685650944708
1740006574856246000,11.25524609375,-3.276374955552816,7.315967741253972,3.0338270129054785
1740006574866229000,11.26522900390625,-3.607868717370927,7.75036804305613,3.1926784352123736
1740006574876212200,11.275212158203125,-4.0601390223845835,7.9266008082747454,3.0012124450266358
1740006574886195000,11.28519482421875,-4.480121507255733,7.988755943414568,2.8004624936670064
1740006574896178000,11.295177978515625,-4.758785303901136,8.40763368191421,3.154907799744606
1740006574906161200,11.3051611328125,-4.84169505777806,9.135234839758276,3.653369362568855
1740006574916144000,11.31514404296875,-4.895722708302736,9.700706576538085,3.7478801223903893
1740006574926126800,11.325126953125,-5.042383926600218,9.926658189171553,3.449410386034846
1740006574936109000,11.335109130859376,-5.315810407114029,9.81495021083355,2.9558167215079068
1740006574946092000,11.345092041015626,-5.600570767068863,9.488804532045126,2.3204952034324404
1740006574956075000,11.355074951171876,-5.843288805586099,8.989211334842443,1.5031827950030565
1740006574966058000,11.36505810546875,-6.026451077806949,8.294943122279644,0.8189180900603532
1740006574976041000,11.375041015625,-6.076299104559421,7.531625923410058,0.3337555692702532
1740006574986024200,11.385024169921875,-5.835166289407015,6.981434757870435,-0.030832945159077644
1740006574996007000,11.3950068359375,-5.254228103426098,6.585849047631025,-0.20991291650235652
1740006575005990100,11.404990234375,-4.4919446315184235,6.263524972957372,-0.14403379240334033
1740006575015972000,11.41497216796875,-3.5830791440293193,6.159876382434367,0.35381694504618644
1740006575025955000,11.424955078125,-2.5299390411183236,6.35495121076703,1.0222294163405894
1740006575035938000,11.43493798828125,-1.3448361073479056,6.6613166688084595,1.8012679159551859
1740006575045921000,11.444921142578124,0.01574921166524291,6.9627657132357355,2.4588024348825215
1740006575055904000,11.454904052734374,1.0904381524309514,6.953088368830084,2.54797066463232
1740006575065887000,11.464886962890626,1.892436379611492,6.417020421189069,1.9241426004737614
1740006575075870000,11.474869873046876,2.601570152872801,5.407788433587551,0.8975386223107575
1740006575085853200,11.484853271484376,3.236124778228998,4.57984854042083,-0.25848960814476013
1740006575095835000,11.4948349609375,3.7644799595355987,3.9565854166686534,-1.422708743840456
1740006575105818000,11.504818115234375,4.048291055941582,3.3881559991270302,-2.5196131696760653
1740006575115801000,11.514801025390625,4.250082040786743,2.858281645429134,-3.450865261018276
1740006575125783800,11.52478369140625,4.194225129008293,2.284628648020327,-4.291156978496909
1740006575135767000,11.53476708984375,3.875305309820175,1.795275397542119,-4.849979778781533
1740006575145750000,11.54475,3.526256894350052,1.5952318408861756,-4.972659232988954
1740006575155733000,11.55473291015625,3.166233495879173,1.695469746182859,-5.003430218827724
1740006575165716000,11.564716064453124,2.802404859906435,1.935299954304099,-5.256601846820116
1740006575175698000,11.574697998046876,2.509578097873926,2.312236493653059,-5.733206382623314
1740006575185681200,11.58468115234375,2.305619705861807,2.773402052783966,-6.302542978137732
1740006575195664000,11.594663818359376,1.9964462046623228,3.1251427760779857,-6.782022777116298
1740006575205647000,11.604647216796875,1.4445605101644992,3.1919062817960975,-7.038145656129718
1740006575215630000,11.614630126953125,0.7412450677931308,2.896516975799203,-6.983322179052233
1740006575225613000,11.624613037109375,-0.03663783661213237,2.2470633258663115,-6.307777956181765
1740006575235596000,11.634595947265625,-0.6273392871499062,1.4206208316504954,-5.054503987982869
1740006575245579000,11.6445791015625,-0.9829396084815263,0.7426213245823979,-3.373062474891543
1740006575255561200,11.654561279296875,-1.223380349716544,0.2081374312624335,-1.148280392807722
1740006575265544000,11.6645439453125,-1.4333295065760612,-0.42342941045463084,0.8997481150537728
1740006575275527000,11.67452685546875,-1.6517063000410794,-1.075192944765091,2.502079266551137
1740006575285510100,11.68451025390625,-1.827826837056875,-1.6509987362936138,3.5746237426340577
1740006575295493000,11.6944931640625,-1.8305559697598217,-2.238893609544635,3.8892712913304566
1740006575305475800,11.704475830078126,-1.622467346075177,-2.654414438831806,3.842541104337573
1740006575315459000,11.714458984375,-1.3974480458557605,-2.8021003240019082,3.7505893813490867
1740006575325442000,11.724442138671876,-1.2457961796641348,-2.7688965580582616,3.802676711460948
1740006575335424000,11.734424072265625,-1.1851660621345042,-2.6943811230391264,4.237227819910645
1740006575345407000,11.744406982421875,-1.3129694352269172,-2.646728560504317,4.952881350329518
1740006575355390000,11.754389892578125,-1.4518144268155098,-2.679420285272598,5.699049261477589
1740006575365373200,11.764373291015625,-1.6069009436309336,-2.7315274891287085,6.678999625015258
1740006575375356000,11.77435595703125,-1.7105214771032333,-2.9013591551333664,7.8165628089755765
1740006575385339100,11.784339111328125,-1.6420833161711692,-3.109958650949597,8.700568580496311
1740006575395322000,11.794322021484374,-1.5434814876437186,-3.3446371753960844,9.124507109516859
1740006575405304800,11.804304931640624,-1.4190379463732241,-3.6156115865826606,9.249244665297866
1740006575415287000,11.814287109375,-1.2805927677571773,-3.9083839880794287,9.400216732531785
1740006575425270000,11.82427001953125,-1.081568909537792,-4.081469102922082,10.052397030949592
1740006575435253200,11.834253173828126,-0.9349813409984111,-3.999899073216319,11.151206998145579
1740006575445236000,11.844236083984375,-0.7793442045629024,-3.9124014070272444,12.262696414172648
1740006575455219000,11.854218994140625,-0.4023556427657604,-4.04780940990448,12.865747647762298
1740006575465202200,11.8642021484375,0.1317840402264148,-4.399866944062709,12.74412734721899
1740006575475185000,11.874184814453125,0.6815618757247924,-4.921840315377712,12.034637015604972
1740006575485167900,11.88416796875,1.1931576454102992,-5.5853246826201675,10.731467674380541
1740006575495151000,11.894151123046875,1.5495535010337829,-6.377856870058179,8.858197767531871
1740006575505132800,11.9041328125,1.7666034298092126,-7.160897006529569,6.99750326461792
1740006575515116000,11.914115966796874,1.9718436783254145,-7.4797940293639895,5.826576155716181
1740006575525099000,11.92409912109375,2.093423062336445,-7.3006485915690655,5.51474658704996
1740006575535082000,11.93408203125,2.2501702058404685,-6.745079240122437,5.650228239685297
1740006575545065000,11.94406494140625,2.493095165106654,-5.975165127205848,5.9864662734210485
1740006575555048000,11.9540478515625,2.631027133503556,-5.062367560964822,6.345051163521409
1740006575565031200,11.96403125,2.5992110225260254,-4.1088901938110585,6.648194152384996
1740006575575014100,11.97401416015625,2.5874784991562363,-3.1371833424836395,6.9120005716383455
1740006575584996000,11.98399609375,2.5037030683606862,-2.2521990813195703,6.882582169452309
1740006575594979000,11.99397900390625,2.3369430648863316,-1.613884811168909,6.405827996045351
1740006575604962000,12.003962158203125,1.9966747527211903,-1.2214876678377389,5.637019798544049
1740006575614945000,12.013945068359375,1.505275967890024,-0.964500865471363,4.837571548107266
1740006575624928000,12.023927978515625,0.9723615158438682,-0.6895446911722422,4.300646106854081
1740006575634911000,12.033910888671874,0.6016425358355045,-0.45684214297384024,3.921597689917683
1740006575644894200,12.043894287109374,0.3333633916148916,-0.247471370524168,3.6762300136744974
1740006575654877000,12.053876953125,0.04373279527518898,-0.025477555605769156,3.376102573239803
1740006575664859100,12.063859130859376,-0.19318674956373869,0.12476619735360145,2.810782227629423
1740006575674842000,12.073842041015626,-0.4546867185056209,0.2700786313906312,2.1467361348509786
1740006575684824800,12.083824951171875,-0.6316437063455581,0.5212289826884865,1.58866795232594
1740006575694808000,12.09380810546875,-0.8588882813990115,0.9404135951802134,1.5340502269536256
1740006575704791000,12.103791015625,-1.0302958914835005,1.3878899439156054,1.4519932905137538
1740006575714774000,12.11377392578125,-0.9717513480562716,1.7307494416177271,0.9671212771028279
1740006575724757000,12.123757080078125,-0.7763806055169552,1.9175442251220345,0.379532401061058
1740006575734740000,12.133739990234375,-0.46035300063900647,2.093959945692122,-0.16143910071253775
1740006575744722200,12.14372216796875,-0.29969372519254683,2.5357529880940914,-0.3890016556739807
1740006575754705000,12.153704833984374,-0.5048444687943905,3.0115733877822755,-0.35250352436006066
1740006575764688100,12.163688232421874,-0.7990881849527358,3.434033953204751,-0.2532984692424536
1740006575774671000,12.173671142578126,-1.0025217493731529,3.873113644994795,-0.24183657950758933
1740006575784654000,12.183654052734376,-1.1484382867831737,4.400524238927662,-0.27993805436491964
1740006575794637000,12.193636962890626,-1.2089794839203356,5.036899942231178,-0.3136117759078741
1740006575804620000,12.2036201171875,-1.2284741657242177,5.717220877984166,-0.26518121473789213
1740006575814602200,12.213602294921875,-1.130296846219152,6.37071108995676,-0.27213059548437596
1740006575824585000,12.2235849609375,-0.9497662376761435,6.951124959802627,-0.5291109681099653
1740006575834568000,12.23356787109375,-0.8336557135302572,7.454153976672887,-0.8894722202330827
1740006575844551200,12.24355126953125,-0.76969272525087,7.846964376980066,-1.2911708603948353
1740006575854533600,12.25353369140625,-0.7622786496020854,8.212132152602075,-1.757773642143607
1740006575864516600,12.2635166015625,-0.8500304366827011,8.499304249873758,-2.1865637028485536
1740006575874499600,12.27349951171875,-1.0508277343153953,8.639839094245433,-2.480879826655984
1740006575884481800,12.283481689453126,-1.1664110927820206,8.737747095289826,-2.564825353321433
1740006575894464800,12.29346484375,-1.279695088265091,8.906887271898984,-2.43605225841403
1740006575904447500,12.303447509765626,-1.3474423443235457,9.198257989904285,-1.9761913521409034
1740006575914430700,12.3134306640625,-1.4208534713625907,9.534116084411739,-1.4384201077133416
1740006575924413700,12.32341357421875,-1.475079567068815,9.802384159249067,-0.9811229144483804
1740006575934396700,12.333396728515625,-1.500497063050419,9.955682039082049,-0.8519295483022927
1740006575944379600,12.343379638671875,-1.5162708246350287,10.020029715830088,-0.973156465613842
1740006575954362600,12.353362548828125,-1.4825743067383765,10.118653756189346,-0.9788304195970297
1740006575964344800,12.3633447265625,-1.2934136708855628,10.344897629767656,-0.8823071509093046
1740006575974327600,12.37332763671875,-0.9941945774674416,10.649532903015613,-0.678095660918951
1740006575984310500,12.383310546875,-0.6946680986005812,10.835623629903793,-0.5110977570354939
1740006575994293800,12.393293701171874,-0.5132813846848905,10.782526830488443,-0.452545614823699
1740006576004276700,12.40327685546875,-0.6156652159690856,10.537869348341227,-0.057253919094800945
1740006576014259500,12.413259521484376,-0.774273038778454,10.134584315770864,0.1947597710341215
1740006576024242700,12.42324267578125,-0.9687854109227657,9.384006771486996,0.012403554499149321
1740006576034225700,12.4332255859375,-1.1034721868533641,8.569802850466965,0.053475569599866865
1740006576044207600,12.44320751953125,-1.1714274596393108,8.006444744840264,0.3985118268191814
1740006576054190600,12.453190673828125,-1.1239010077022016,7.519074484872817,0.9362386475831269
1740006576064173800,12.463173828125,-0.8995160598635673,7.0615580958992235,1.4331687630563974
1740006576074156800,12.47315673828125,-0.5676198547244071,6.697645873296261,2.0234224743932483
1740006576084139500,12.483139404296875,-0.09977788656949996,6.5619461939960715,2.702469736948609
1740006576094122800,12.493122802734375,0.48523733959197995,6.524035857796669,3.2347862231016156
1740006576104105700,12.503105712890624,0.7935914872325956,6.557265342703461,3.575482989811897
1740006576114088400,12.51308837890625,0.6670156101085245,6.618375352704525,3.8685751247823235
1740006576124070700,12.523070556640626,0.31420170462504027,6.377654040962457,3.862484991213679
1740006576134053600,12.5330537109375,-0.10600209484659134,5.733114028164744,3.921393691778183
1740006576144036600,12.54303662109375,-0.4393174460686743,4.862086396160722,4.073894283753633
1740006576154019600,12.55301953125,-0.3537783666014671,4.026005866636336,3.8918507864296434
1740006576164002600,12.56300244140625,-0.03975932506695389,3.2258626196727156,3.4589655653655527
1740006576173985800,12.57298583984375,0.2228150681734085,2.562003281638026,2.8735575404942035
1740006576183968500,12.582968505859375,0.34901100606918334,1.9785224254369735,2.1787147429138423
1740006576193950700,12.59295068359375,0.4173590044997632,1.54221555936113,1.322919751355052
1740006576203933700,12.60293359375,0.3954056044321507,1.275733783418685,0.43785365712642665
1740006576213916400,12.61291650390625,0.18931611867547035,1.0243757807195186,-0.11831073760390282
1740006576223899600,12.622899658203124,-0.28361469705104825,0.6466007447198033,-0.4191133008211851
1740006576233882600,12.632882568359374,-0.7852712565243244,0.10647928390428424,-0.41689036407470703
1740006576243865900,12.642865966796874,-1.1833622275829314,-0.48368835658431053,-0.12154080556631087
1740006576253848600,12.6528486328125,-1.2156266668498514,-1.0607488243490457,0.15737082836031913
1740006576263831600,12.66283154296875,-0.9581751695811748,-1.468990310283005,0.6599503478974104
1740006576273813800,12.672813720703125,-0.6918342634141444,-1.9832029844686387,1.1614636995077132
1740006576283796500,12.68279638671875,-0.45493579789586364,-2.639265092755854,1.4239397469401358
1740006576293779700,12.69277978515625,-0.16252981855869292,-3.4133480157896874,1.4582517663866281
1740006576303762700,12.7027626953125,0.15849311038851738,-4.0837043146282435,1.54713416493237
1740006576313745700,12.71274560546875,0.46567456098794935,-4.498467019024491,1.8107003456890582
1740006576323728600,12.722728759765625,0.617014219425246,-4.7081829516500235,2.040622615519166
