time,seconds_elapsed,z,y,x
1740247368797120000,0.0501201171875,1.2593167554944753,-2.566936646386981,-2.360710893964767
1740247368807101200,0.06010107421875,-0.25227964758872984,-1.4112173357501625,-2.8984043969810007
1740247368817083100,0.070083251953125,-2.3788480236798524,-0.5302968168936669,-2.56653712567538
1740247368827064300,0.080064208984375,-3.563189325428009,-0.613648615449667,-1.1952531563848257
1740247368837046300,0.09004638671875,-4.123258910903334,-0.5048024562835693,0.002975216418504715
1740247368847027200,0.100027099609375,-4.313623661848903,-0.26404110479205845,1.019501014290005
1740247368857008000,0.110008056640625,-4.313125064677,0.004519815512001514,1.270285601015389
1740247368866990300,0.119990234375,-4.541797626706957,0.13493863179981708,1.4897547197617589
1740247368876971300,0.12997119140625,-4.6254345258146525,0.08499386667460203,1.8409391243472695
1740247368886953200,0.139953125,-2.965861145660281,-0.11608370920419692,1.342417940290272
1740247368896934100,0.14993408203125,-0.14160568847358226,0.2524222709298134,1.1497050187833606
1740247368906916000,0.159916015625,0.3136141139954328,1.6643094687655566,1.6738970890611409
1740247368916897300,0.169897216796875,0.08489186760485172,0.3207672006204724,1.367849318666756
1740247368926879200,0.179879150390625,-1.0608645596832036,-1.7656003902465105,-0.3655208268433809
1740247368936860400,0.1898603515625,-2.0840093373030424,-1.6714359596446156,-0.31682021656036374
1740247368946841300,0.19984130859375,-2.175322177866101,-0.1503165259346366,-0.12265256620049476
1740247368956823000,0.209822998046875,-1.8560615824162958,0.9212091284945607,0.058736266607046124
1740247368966804200,0.21980419921875,-1.4078817615866661,1.0036749379962682,-0.14887772530317306
1740247368976786200,0.2297861328125,-0.6436854417949914,1.2074015670791267,-0.518980911500752
1740247368986767400,0.239767333984375,0.028381460353732107,1.0103133530974389,-0.6063163728654384
1740247368996748300,0.249748291015625,0.7207207506805658,0.3199187670975923,-0.3087175741255283
1740247369006730200,0.259730224609375,1.2017150458753108,-0.1961728527024388,0.06501607752889395
1740247369016711200,0.269711181640625,1.416742528912425,-0.24334698407053945,0.4811149989649653
1740247369026693000,0.279693115234375,1.5979057362705469,0.24045418523848056,0.8698869375362992
1740247369036674300,0.28967431640625,1.7978046237587928,0.8663692848041653,1.200683364740014
1740247369046656300,0.29965625,2.044639449945092,0.9642425067961216,0.9522501634463667
1740247369056637200,0.30963720703125,1.9449258607834576,0.07416852127760648,-0.13562632180303336
1740247369066618000,0.3196181640625,2.0072364787459374,-0.14130641326606272,-0.6484416964113712
1740247369076600300,0.329600341796875,2.1511405072897674,0.5603861040785908,-0.9713283734038471
1740247369086581200,0.339581298828125,2.3482079707443715,0.9486480473011731,-1.6439742444843053
1740247369096563200,0.349563232421875,2.6946137627512217,0.5023576934799552,-2.499794078223407
1740247369106544400,0.35954443359375,2.956657263985276,-0.3201271491512656,-3.0296415439143773
1740247369116526000,0.369526123046875,3.074227412354946,-0.7431164146229624,-3.2427187696665523
1740247369126507300,0.37950732421875,3.16978212827146,-0.96112145216614,-3.2327298750936984
1740247369136488200,0.38948828125,3.425616837993264,-0.9144953100696206,-2.9382082918420434
1740247369146470400,0.399470458984375,3.8463516025364397,-0.48264849214255806,-2.567522337320447
1740247369156451300,0.409451416015625,4.320847183361649,0.1256125850498676,-2.262266009564698
1740247369166433000,0.41943310546875,4.741263967996836,0.6587240209728479,-2.0439087975829837
1740247369176414200,0.429414306640625,4.852767363673448,1.0776154957368969,-2.068896231584251
1740247369186396200,0.439396240234375,4.732556929928064,1.4315347321137786,-2.1201818899244067
1740247369196377300,0.44937744140625,4.665581242763996,1.654751074564457,-1.9074521624356506
1740247369206359000,0.459359130859375,4.633508526676893,1.7543717247456312,-1.4871236406058073
1740247369216340200,0.46934033203125,4.773264203369617,1.5211983441650867,-1.214786708894372
1740247369226321200,0.479321044921875,4.959840667948127,1.0734636367544532,-1.1295002890139818
1740247369236303400,0.489303466796875,5.100849559572339,0.7030909859657287,-1.1964718845248221
1740247369246284300,0.4992841796875,5.057973125398159,0.7717153171196579,-1.3690034571379421
1740247369256266200,0.509266357421875,4.7942742581725115,1.5735793965265155,-1.303260526639223
1740247369266247200,0.5192470703125,4.285699297612905,2.8627427164912223,-1.3023434117943047
1740247369276229000,0.52922900390625,3.5698131274819374,3.9586517015486953,-1.4441367317944764
1740247369286210300,0.539210205078125,2.6111861224800346,4.745257713808119,-1.641548478642106
1740247369296191200,0.549191162109375,2.1446797868430614,4.7825835281178355,-1.8625410075634716
1740247369306173400,0.55917333984375,2.130894422596693,4.145454668359458,-2.5419459975153207
1740247369316154400,0.569154296875,2.0951392186045648,3.814388776564598,-3.467406061452627
1740247369326136000,0.579135986328125,1.6500667161405085,4.299541945004463,-4.134973314094543
1740247369336117200,0.5891171875,1.2544938653826714,5.495142307391762,-4.545854208621383
1740247369346099200,0.59909912109375,1.4063286869257687,6.86256989351511,-5.3734635546594856
1740247369356080400,0.609080322265625,1.0223428135871886,7.804737346625328,-4.7214241260170935
1740247369366061300,0.619061279296875,-0.20141922892332076,8.940777851063013,-2.708243059653044
1740247369376043300,0.629043212890625,-0.6012813013076782,10.391958656150102,-1.008337669110298
1740247369386024200,0.639024169921875,-0.050342240010201926,11.75752220196724,1.4048311418443917
1740247369396006100,0.649006103515625,0.9392471817493439,12.505178305846451,4.015952382394671
1740247369405987300,0.6589873046875,1.8075015496477485,12.317614583796262,5.517511960110068
1740247369415969000,0.668968994140625,2.1313655472397803,11.356993774628638,6.092386316007375
1740247369425950200,0.6789501953125,1.9965293529011308,10.482599296540021,6.246963129734993
1740247369435931100,0.68893115234375,1.8308591904900966,9.964449867427348,6.074953535169363
1740247369445913300,0.698913330078125,1.8001888885468242,9.74903601542115,6.029114744058251
1740247369455894300,0.708894287109375,1.2978250575870274,9.602589901179075,6.666973671656846
1740247369465876200,0.718876220703125,1.0744348198741673,9.412055054363607,7.828534401798247
1740247369475857200,0.728857177734375,0.7756733340304345,9.50078664626181,8.629405963036417
1740247369485839000,0.738839111328125,0.31274617205448446,10.133701687717437,8.474366792494058
1740247369495820300,0.7488203125,-0.25329843270983543,9.588751929962635,9.05645239494443
1740247369505802200,0.75880224609375,-1.2337468454301357,7.925029613435268,9.914772521066665
1740247369515783400,0.768783447265625,-2.479398648187518,6.526597232717275,10.986498081982136
1740247369525764400,0.778764404296875,-3.092905224817991,5.8575943943142885,11.878826860690117
1740247369535746000,0.78874609375,-3.193363494867086,5.5324342194318765,12.371986809974908
1740247369545727200,0.798727294921875,-3.175575324720144,4.864941201069951,12.11325287168026
1740247369555709200,0.808709228515625,-3.456766594016552,3.195094264182448,11.096837110054492
1740247369565690400,0.8186904296875,-4.064340857988595,1.0998697053819895,9.649581953978538
1740247369575672000,0.828672119140625,-4.714351411151886,-0.5052472774416208,8.437618485811353
1740247369585653200,0.8386533203125,-5.0122845564126965,-1.5748977856487034,7.38624363900721
1740247369595634200,0.84863427734375,-5.16908722949624,-2.401632102417946,6.408901412141323
1740247369605616000,0.8586162109375,-5.308455952697992,-3.0707109286665917,5.589843036827444
1740247369615597300,0.868597412109375,-5.392056611448526,-3.779967451524734,4.815877018171548
1740247369625579000,0.8785791015625,-5.396378566300869,-4.493220350542664,4.124041585713624
1740247369635560200,0.888560302734375,-5.626767869120836,-5.085978153654933,3.477766711947322
1740247369645542100,0.898542236328125,-5.8966439636766905,-5.397956775403022,3.121038847890496
1740247369655523300,0.9085234375,-5.887970827877521,-5.296607693994045,3.4522371338933704
1740247369665505300,0.91850537109375,-5.8065212096810335,-4.905087918019294,4.13141591387391
1740247369675486200,0.928486328125,-5.682448255288601,-4.646740933215618,4.732736378148198
1740247369685467100,0.938467041015625,-5.682996536821126,-4.664388233587146,5.3845665479540825
1740247369695449000,0.948448974609375,-5.604769972324371,-4.941697108492255,5.106000366464257
1740247369705430300,0.95843017578125,-5.117395620703697,-5.451681351327895,3.8481273800373077
1740247369715411700,0.96841162109375,-4.450093156477808,-6.242963246443868,2.046092571362853
1740247369725392600,0.978392578125,-3.7076807984709736,-7.140202593547105,0.1926858873695135
1740247369735374600,0.98837451171875,-3.253392723894119,-8.115024362024664,-1.6614473573327064
1740247369745355500,0.99835546875,-3.3677637839615344,-8.770479736590385,-3.0885107892513273
1740247369755336700,1.008336669921875,-3.424465914392471,-8.95245776746273,-3.6703637519896026
1740247369765318700,1.018318603515625,-3.5682536230802535,-8.993644933375716,-3.3550586161673066
1740247369775299800,1.0282998046875,-3.1300948455274105,-8.394253975859284,-1.609647611990571
1740247369785281500,1.038281494140625,-2.4489386279940604,-7.772047375422716,1.0157838934630155
1740247369795262500,1.048262451171875,-2.1271020445764064,-7.838726709988713,3.7036347379505634
1740247369805244700,1.05824462890625,-1.900562402921915,-8.372322714558242,5.822492101272941
1740247369815225600,1.0682255859375,-1.8346071448467671,-8.619932032248377,7.089934295555949
1740247369825206800,1.078206787109375,-1.9299124160468577,-8.189401849877834,8.151446505492926
1740247369835188700,1.088188720703125,-1.9076000464737415,-8.207165470105409,8.860653343990444
1740247369845169700,1.098169677734375,-2.248839249497652,-8.539362119495868,9.28728242726922
1740247369855151600,1.108151611328125,-2.753222019064426,-9.173867645013331,10.016845240575075
1740247369865132500,1.118132568359375,-3.2822844718575475,-10.178844313257931,11.005934603857993
1740247369875114800,1.12811474609375,-3.922415436041355,-11.242986287176608,11.337675326174496
1740247369885095700,1.138095703125,-4.699379467469454,-12.04818389492035,10.518442178815603
1740247369895077600,1.14807763671875,-5.162157722494006,-12.524495585256814,8.55110750234723
1740247369905058600,1.15805859375,-5.021500128525496,-13.110858718895912,5.871286819580197
1740247369915039700,1.168039794921875,-4.118577475088834,-13.404213888716697,4.216943156772851
1740247369925021700,1.178021728515625,-1.7442624186635016,-12.292927886307238,6.249995044776797
1740247369935002600,1.188002685546875,0.6141057846326381,-10.940323190784454,9.388519280475377
1740247369944984600,1.197984619140625,1.8085984049737451,-10.635823526614903,11.19893321043849
1740247369954965500,1.207965576171875,2.7889012352108953,-10.156004704940319,12.184562204134464
1740247369964947700,1.21794775390625,3.5546716724514957,-8.86226720892787,12.360171284496783
1740247369974928600,1.2279287109375,3.3530636429578062,-7.083253794878721,11.40551844382286
1740247369984909800,1.237909912109375,1.723036090761423,-5.427599049472809,10.164921001845597
1740247369994891500,1.2478916015625,-0.7660580220103264,-4.277205317772925,9.472709137290716
1740247370004872400,1.25787255859375,-3.285385360482335,-3.1627269490629435,9.885048413932322
1740247370014854700,1.267854736328125,-5.488427319923043,-1.4929811344623565,11.20523318736553
1740247370024835600,1.277835693359375,-7.515766090977191,0.22972470143139362,12.200531342160701
1740247370034817800,1.28781787109375,-9.053753072857857,1.3423685481905936,12.80638126655817
1740247370044798700,1.297798828125,-10.210980157709121,2.3762182596981525,12.847739697384833
1740247370054779600,1.307779541015625,-10.78161848347187,3.5789193940013644,12.167940739679336
1740247370064761600,1.31776171875,-10.98652613903284,4.911432318609952,10.893058750784396
1740247370074742500,1.327742431640625,-11.056189457845687,5.877447680297494,9.816918880558013
1740247370084724700,1.337724853515625,-10.806080724555253,6.31373598780334,9.552882744202018
1740247370094705700,1.34770556640625,-9.887803850120305,6.671105656895041,9.430549326953292
1740247370104687600,1.3576875,-8.629888778117298,7.457770413604378,8.616362357068061
1740247370114668500,1.36766845703125,-7.234186699146032,8.394773031297326,7.552329104220867
1740247370124650800,1.377650634765625,-5.730527518802881,9.257215790307521,6.511732841062545
1740247370134631700,1.387631591796875,-4.205056904146075,9.997038131821155,5.744122328913211
1740247370144612600,1.397612548828125,-2.8734172552406787,10.549143606549501,5.275516390648484
1740247370154594600,1.407594482421875,-2.2282535575866698,10.699401972556114,4.673582178390026
1740247370164575500,1.417575439453125,-2.3166887968868015,10.416918909883499,3.85888375185132
1740247370174557700,1.4275576171875,-2.477514734137058,10.20783192281127,3.286635068282485
1740247370184538600,1.43753857421875,-2.4087679456472397,10.389048906183243,3.0538807898968456
1740247370194520800,1.447520751953125,-2.2968401870787143,10.612004259610176,2.892068179696798
1740247370204501500,1.45750146484375,-2.2352163823366165,10.712453177309035,2.9869045182108875
1740247370214482700,1.467482666015625,-2.128785467618704,10.706378825831413,3.019729513970017
1740247370224464600,1.477464599609375,-2.0815106523551044,10.588285530370474,2.8938696761608123
1740247370234445600,1.487445556640625,-2.217020508171618,10.345544110977649,2.9643735374510287
1740247370244427800,1.497427734375,-2.4817720993205903,10.17746717968583,3.0643583447694778
1740247370254408700,1.50740869140625,-2.8322824040368197,10.156134468799829,3.1424317645311355
1740247370264390700,1.517390625,-3.2078932477399706,10.20020391215086,3.1962989637970924
1740247370274371600,1.52737158203125,-3.557448735949397,10.389901139098406,3.222631674927473
1740247370284353800,1.537353759765625,-3.822829272651672,10.678595331370829,3.2700182800024744
1740247370294334700,1.547334716796875,-4.023576301401853,11.103435193145275,3.49073199198246
1740247370304315600,1.557315673828125,-4.197217004300653,11.594758574652671,3.483493857422471
1740247370314297600,1.567297607421875,-4.457006881389022,11.913320666444301,3.2802415678530927
1740247370324278500,1.577278564453125,-4.6416588076457375,12.015310383844374,3.184337307846546
1740247370334260700,1.5872607421875,-4.27030532912612,12.5179220520854,2.585540224570036
1740247370344241700,1.59724169921875,-3.205802120679617,13.540851725649834,1.0659171668976544
1740247370354223600,1.6072236328125,-1.6416534003213048,15.012958414387702,-1.319665133473277
1740247370364204500,1.61720458984375,-0.08577508018016815,16.751194412368534,-4.361830935657024
1740247370374186800,1.627186767578125,0.8282103806711733,18.015255732041595,-7.716707765516638
1740247370384167700,1.637167724609375,1.1455027447879313,18.61891369935274,-10.307354957836866
1740247370394148600,1.647148681640625,1.518420696145296,18.903640157037973,-10.906558868348597
1740247370404130800,1.657130859375,-0.034628245788812635,18.599093731117247,-10.186771599125862
1740247370414111500,1.667111572265625,-0.21471589633729307,17.939516892707346,-7.4940908502638335
1740247370424093700,1.67709375,0.34405367592275143,17.15813036866188,-5.034805015778542
1740247370434074600,1.68707470703125,0.3709867640990764,16.1725867151618,-2.8988205765664574
1740247370444056800,1.697056884765625,0.5289812042504549,15.158797794908285,-0.8065536985278129
1740247370454037800,1.707037841796875,0.6449700747780501,14.40013748193383,1.2164397367984057
1740247370464018700,1.717018798828125,0.6343181862518191,13.820087184703349,3.1626626516550775
1740247370474000600,1.727000732421875,0.4574503380000591,13.254351828551291,4.816258126443624
1740247370483981600,1.736981689453125,0.18556173457801342,12.861265533912182,6.109173784679174
1740247370493963800,1.7469638671875,-0.03512859652638435,12.757531603193282,7.318064421272277
1740247370503944700,1.75694482421875,-0.24042379010021686,12.578735709488392,7.861257690748572
1740247370513926700,1.7669267578125,-0.40860593533217904,11.895988423371314,7.426338918030262
1740247370523907600,1.776907470703125,-0.24977438676953315,11.183294911801815,6.226413093659281
1740247370533889800,1.786889892578125,0.05988835925161838,10.912613346081972,5.220926722326874
1740247370543870700,1.79687060546875,0.28163784402012826,10.682338609552383,4.686109067007899
1740247370553851600,1.8068515625,0.3794754101768136,10.371375302326678,4.421373257949948
1740247370563833600,1.81683349609375,0.3664287354685366,10.054328291273116,4.267743954205513
1740247370573814500,1.826814453125,0.10523790554106235,9.651743515926599,4.196587181964516
1740247370583796700,1.836796630859375,-0.4606687155246734,9.138557846701145,4.316449825185537
1740247370593777700,1.846777587890625,-1.0407686971157788,8.573384216085076,4.395478938236832
1740247370603759900,1.856759765625,-1.6031708171918988,7.89486711488366,4.269080171245336
1740247370613740800,1.86674072265625,-2.1312965736567975,7.251335402345657,4.218271190506219
1740247370623722500,1.876722412109375,-2.54026841969192,6.669143416911363,4.176973549956083
1740247370633703700,1.88670361328125,-2.820564785975218,6.172994222682714,4.2404947127521035
1740247370643684600,1.8966845703125,-3.090824326890707,5.749213514572381,4.457330121994018
1740247370653666800,1.906666748046875,-3.4514217258572577,5.3146530537724495,4.7929193364322185
1740247370663647700,1.916647705078125,-3.823320271039009,4.7878453941687935,5.439364890590309
1740247370673629700,1.926629638671875,-4.097555145326257,4.156309532111883,6.3108268223583694
1740247370683610600,1.936610595703125,-4.233737639707327,3.5383836777344344,7.402696176636218
1740247370693592800,1.9465927734375,-4.161583673122525,2.966813624079525,8.626561679521203
1740247370703573800,1.95657373046875,-3.9881186190515754,2.35769446875304,9.722411627867817
1740247370713555500,1.966555419921875,-3.80463076813817,1.7862492105215786,10.853387250131368
1740247370723537200,1.976537109375,-3.4246097067773342,1.0147802693784236,11.786586968410015
1740247370733518300,1.986518310546875,-2.7949218106746674,0.10132628505527973,12.327903338098526
1740247370743500300,1.996500244140625,-2.3033096753537654,-0.856367823010683,12.607042935562133
1740247370753481500,2.0064814453125,-2.095591638547182,-1.9898107121706008,12.689175275325775
1740247370763463200,2.016463134765625,-2.176366718482971,-3.143322575891018,12.849432472777366
1740247370773444000,2.026444091796875,-2.664740602535009,-4.1262200987964865,13.60119192032218
1740247370783426300,2.03642626953125,-3.3410698383033273,-5.095705182421207,14.79318753621578
1740247370793407200,2.0464072265625,-3.8437668467402455,-6.025447453722357,16.086594192838668
1740247370803388400,2.056388427734375,-4.26071800109148,-6.8896519617080685,17.18841561681032
1740247370813370000,2.0663701171875,-4.430062175840139,-7.769941927576064,17.764246835041046
1740247370823351300,2.076351318359375,-4.304419780173897,-8.574628663188218,17.808462408864496
1740247370833333200,2.086333251953125,-3.9265041666597127,-9.26501331231594,17.41482900173664
1740247370843314400,2.096314453125,-3.384607366734743,-10.005404978150128,17.057393866193294
1740247370853296400,2.10629638671875,-2.483492054980993,-10.688349832665919,16.699474746525286
1740247370863277300,2.11627734375,-1.4544079504400491,-11.058315948480367,16.080945373296736
1740247370873259300,2.12625927734375,-0.3764735980123281,-11.138331149959564,15.47817237212658
1740247370883240200,2.136240234375,0.5451719491381198,-10.958092656230926,14.76014334474802
1740247370893221400,2.146221435546875,1.2693915747851132,-10.790005203545093,14.023991800701618
1740247370903203300,2.156203369140625,1.704029776996374,-10.79470943571329,13.443659763920307
1740247370913184500,2.1661845703125,1.8207471079289912,-11.16616374425888,12.708515935611723
1740247370923166200,2.176166259765625,1.831519846355915,-11.524057144963741,11.224791289794444
1740247370933147100,2.186147216796875,1.855336190751195,-11.646131034493445,9.990809466564654
1740247370943129300,2.19612939453125,2.1064730980455875,-12.470835306739806,9.985284565663337
1740247370953110300,2.2061103515625,1.798300298321247,-12.380998968470095,8.608879307836293
1740247370963091500,2.216091552734375,2.0098381856769323,-11.232060404014586,7.688670588555931
1740247370973073200,2.2260732421875,2.274846381935477,-9.702949971550703,7.773864653977752
1740247370983054300,2.236054443359375,1.7777520158112048,-8.173381273925305,6.96919194689095
1740247370993036300,2.246036376953125,1.125477024847269,-6.836022662851214,6.0100628375858065
1740247371003017200,2.256017333984375,0.02301372277550399,-5.40357403076291,5.136276846784353
1740247371012999400,2.26599951171875,-1.3624936368525027,-4.243949237120152,4.76926841173172
1740247371022980000,2.27597998046875,-2.818218515110016,-4.528320890018343,5.391431173026562
1740247371032962300,2.28596240234375,-4.498118059456348,-4.822563948589563,5.62869912944436
1740247371042943200,2.295943115234375,-5.798747653070092,-4.371120742049813,5.733772199812531
1740247371052924400,2.30592431640625,-6.822102274048328,-3.9172739814996715,6.222777952027321
1740247371062906400,2.31590625,-7.497105229648947,-3.408663365104794,6.859273774579167
1740247371072887300,2.32588720703125,-7.509682971671223,-2.3681311070933937,7.413347334510087
1740247371082869200,2.335869140625,-6.808569423258304,-1.5006979924499988,7.6347291550099845
1740247371092850200,2.34585009765625,-5.881065286272764,-0.7602411524251103,7.195442834731936
1740247371102832400,2.355832275390625,-4.980675366184115,0.036033144150674344,6.583959288361668
1740247371112813300,2.365813232421875,-4.195335720598697,0.7571205361865461,6.151920454993844
1740247371122795300,2.375795166015625,-3.5897102526068685,1.3941083800390361,5.962109246277809
1740247371132776200,2.385776123046875,-3.2263007188290356,2.175860230265558,6.117204530921578
1740247371142757000,2.395757080078125,-2.9712521910488605,3.076933748704195,6.513039247485995
1740247371152739300,2.4057392578125,-2.624606160545349,3.881718683993816,6.803563577795028
1740247371162720300,2.41572021484375,-2.12450267573297,4.66908925088495,6.840583687156438
1740247371172702200,2.4257021484375,-1.7780787635475397,5.42218754581809,6.614234015116095
1740247371182683100,2.43568310546875,-1.5066607002466916,6.234537363404035,6.318444311624765
1740247371192665300,2.445665283203125,-1.4056190773516892,7.222419688984751,6.250279706937074
1740247371202646300,2.455646240234375,-1.6159370675235987,8.273903256860375,6.435747918012738
1740247371212627500,2.46562744140625,-1.7484271371275186,9.18942411058545,6.666942107474804
1740247371222609400,2.475609375,-2.075272488617897,9.842955823612213,6.719604607126116
1740247371232590000,2.485590087890625,-2.550016491246223,10.081637153959274,6.150197284463047
1740247371242572300,2.495572265625,-2.913489737910032,10.205784927153587,5.553220402351021
1740247371252553200,2.50555322265625,-3.179334969514608,10.424921014553307,4.9863271083354945
1740247371262535400,2.515535400390625,-3.4504689551770684,10.58347959139347,4.371427616041898
1740247371272516400,2.525516357421875,-3.6994343636512754,10.835877312403916,4.265658380103111
1740247371282498300,2.535498291015625,-3.7666228167831894,11.200642352443932,4.612660384437442
1740247371292479200,2.545479248046875,-3.8215000698745247,11.572346836358308,4.7702357954591506
1740247371302460200,2.555460205078125,-3.9209494551420208,11.879114445459843,4.546015536662936
1740247371312442400,2.5654423828125,-3.966199632710218,12.079841600465773,4.014888552555441
1740247371322423300,2.57542333984375,-3.925717984718084,12.160567580562828,3.24313378020823
1740247371332405200,2.5854052734375,-3.854536954818666,12.24303426684737,2.398287468165159
1740247371342386200,2.59538623046875,-3.6706498754546044,12.249107449281215,1.582179759350419
1740247371352368400,2.605368408203125,-3.362043068227172,12.303176893121003,0.8911275862246751
1740247371362349300,2.615349365234375,-2.8638302194669842,12.447543278479575,0.3569055587112903
1740247371372331300,2.625331298828125,-2.133116774821281,12.722483670687675,-0.05828326214253902
1740247371382312200,2.635312255859375,-1.2467857752233742,13.136565991604327,-0.45177989114820954
1740247371392293000,2.645293212890625,-0.1863920479223132,13.299105162513255,-0.9250912306249142
1740247371402275300,2.655275390625,1.0278899263203143,13.10114396508932,-1.519470497459173
1740247371412256300,2.66525634765625,2.214394543582201,12.814999457299708,-2.270549561524391
1740247371422238500,2.675238525390625,3.037286797970533,12.67719023849964,-3.2852889143705366
1740247371432219400,2.685219482421875,3.1666449992895123,12.642890494012832,-4.312524176174402
1740247371442201300,2.695201416015625,2.575240948873758,12.58095923075676,-5.0077054119288915
1740247371452182300,2.705182373046875,1.7501169899106024,12.47073710706234,-5.139442617338895
1740247371462164500,2.71516455078125,0.8273983336359262,12.432441570937632,-4.678483394435048
1740247371472145400,2.7251455078125,-0.11329670883417128,12.108844407588244,-3.702852063140273
1740247371482126300,2.735126220703125,-0.7654284919351338,11.961189502078295,-2.133008638271689
1740247371492108300,2.7451083984375,-1.1368762246094644,11.660823576712607,-0.3525117076665163
1740247371502089200,2.755089111328125,-1.6096873594790697,11.139715297794341,0.8450327745258808
1740247371512071400,2.765071533203125,-2.1856902810148893,10.790878479248285,1.6198615474909543
1740247371522052400,2.77505224609375,-2.6652263402253387,10.65884316767454,2.0765151821553705
1740247371532034300,2.785034423828125,-2.937462734171748,10.448691181719303,2.103887173205614
1740247371542015200,2.79501513671875,-2.9511680189192293,10.021301635462045,1.7819874614238738
1740247371551997200,2.8049970703125,-2.6671871189042924,9.457533779990673,1.273866089850664
1740247371561978400,2.814978271484375,-2.1333611049711703,8.868372540065646,0.8037702052891254
1740247371571959300,2.824959228515625,-1.435282394209504,8.305839779347181,0.5602461110860109
1740247371581941200,2.834941162109375,-0.6967778572961688,7.684338696831464,0.3606009060978889
1740247371591922200,2.844922119140625,-0.012311638431996107,7.131529457747936,0.03507482051253319
1740247371601904400,2.854904296875,0.48127311213612556,6.754372553646564,-0.33154198487401004
1740247371611885300,2.86488525390625,0.8412668461211025,6.538907263714075,-0.7512982597738505
1740247371621867300,2.8748671875,1.0994963420249522,6.348195306766033,-1.1782611050516367
1740247371631848400,2.884848388671875,1.2371950861878693,5.966120235484838,-1.4751403573453425
1740247371641830100,2.894830078125,1.222526363235712,5.40281064517498,-1.596657782036066
1740247371651811300,2.904811279296875,1.1028349849283694,4.864506316784024,-1.5623410864144562
1740247371661793300,2.914793212890625,0.9316051425635814,4.546394306847453,-1.1966741290986538
1740247371671774500,2.9247744140625,0.7482138838924467,4.372111798913776,-0.6307610782921313
1740247371681755400,2.93475537109375,0.5410217706561088,4.237617696011066,0.0786877522677183
1740247371691737000,2.944737060546875,0.23964754503071306,4.111346062530577,0.9771259537667035
1740247371701718300,2.95471826171875,-0.17480770085155964,3.8754987865656614,2.288578554689884
1740247371711700200,2.9647001953125,-0.5236598630972207,3.489028695195913,3.4318729757785795
1740247371721681200,2.97468115234375,-0.754684833472222,3.030677608963847,4.302221977868676
1740247371731663000,2.9846630859375,-0.8594160316001623,2.684550633898377,5.038159002381563
1740247371741644000,2.99464404296875,-0.9319996217738836,2.510603933790326,5.585054048985243
1740247371751626000,3.0046259765625,-1.2466548423200845,2.4600091803237794,6.41217064307034
1740247371761607200,3.014607177734375,-1.608123763424158,2.2333625711634753,7.7039143349170685
1740247371771588000,3.024588134765625,-1.8947288744628428,1.665713198083639,8.876238451135158
1740247371781570300,3.0345703125,-2.1853929055035115,1.1344734012514353,9.750919344949722
1740247371791551200,3.04455126953125,-2.7652584938168525,0.8770932156533002,10.524534065949917
1740247371801533000,3.054532958984375,-3.81300462872982,0.5457891311883926,11.532404117548465
1740247371811514000,3.06451416015625,-5.1892053038954735,-0.2278039625018835,13.277811030071973
1740247371821496000,3.07449609375,-6.53572746463418,-1.5618711308151483,15.851744988000393
1740247371831477200,3.084477294921875,-7.736441809034347,-3.7580677544057366,18.223501007592677
1740247371841459000,3.094458984375,-8.713823198866844,-6.465245815175772,19.447126271981
1740247371851440000,3.104440185546875,-9.42898339281082,-9.229049434009195,19.308063838249442
1740247371861421000,3.114421142578125,-10.075683213990926,-11.598691237926483,18.3695250970304
1740247371871403000,3.124403076171875,-10.599352867829799,-13.13034901678562,18.15068360866308
1740247371881384200,3.13438427734375,-10.052946481525897,-13.496311157655715,18.599544982016084
1740247371891366000,3.144365966796875,-8.141475731098652,-12.633217825782298,18.187265326607225
1740247371901347000,3.15434716796875,-5.597188723415136,-11.220451799285412,16.61371369487047
1740247371911329000,3.1643291015625,-3.18962606190443,-10.3299327003479,14.11846924277544
1740247371921310200,3.174310302734375,-1.1730267115294932,-10.257164401257038,11.283325311827658
1740247371931291100,3.184291015625,0.6432061338454484,-10.610592054724693,8.823321684461831
1740247371941273000,3.194273193359375,2.2036457705527543,-10.641307510983943,6.810967716571688
1740247371951254000,3.20425390625,3.307840353396535,-10.1088174218297,5.360459111657739
1740247371961236000,3.214236083984375,4.013595005613565,-9.422093048775196,4.377498460388184
1740247371971217200,3.224217041015625,4.262547554606199,-8.822481726506352,3.7989106369256973
1740247371981199000,3.23419921875,3.9806045901596545,-8.425403731882572,3.7475685722231864
1740247371991180300,3.24418017578125,3.4550755721896884,-8.364736204952,4.40613243419826
1740247372001162000,3.254161865234375,3.072217241576314,-8.152591583874822,5.317727638912201
1740247372011143000,3.264142822265625,2.950120555692911,-7.653745990169048,6.263132758769393
1740247372021125000,3.274125,3.0985937918484208,-7.0968725703865285,6.757191118198633
1740247372031106000,3.28410595703125,3.1353637258410454,-6.399248033133149,6.450876513561606
1740247372041087200,3.294087158203125,2.577169871109724,-5.622957370921969,5.610863613024353
1740247372051069000,3.30406884765625,1.6915467275202274,-4.971702955177426,5.088824775257707
1740247372061050000,3.314050048828125,0.7122375114303082,-4.521327670130133,5.256553916025162
1740247372071032000,3.324031982421875,-0.40965500599369403,-4.141707006263733,5.677398570683598
1740247372081013200,3.33401318359375,-1.5550596972346304,-3.7681688771814104,6.73576722189784
1740247372090995200,3.3439951171875,-2.742197936224937,-3.5327269671469925,8.262387006589769
1740247372100975900,3.353975830078125,-3.7653696018517016,-3.369976199313998,8.970503711763024
1740247372110958000,3.3639580078125,-4.391704680395126,-2.8006746751129628,8.708242183864115
1740247372120939000,3.37393896484375,-4.196341390509903,-1.6075377802297472,7.810641017711162
1740247372130920200,3.383920166015625,-3.2383471304535862,-0.07868278383165597,6.582740560221672
1740247372140902100,3.393902099609375,-2.3888474396467205,1.1445394527137278,5.151750894770026
1740247372150883000,3.403883056640625,-1.97000594150424,1.868580433858186,3.811965348809957
1740247372160865000,3.413864990234375,-1.8254327815271914,2.282027964002639,2.911378444844484
1740247372170846000,3.423845947265625,-1.7450448012128472,2.717615868154168,2.716058701840043
1740247372180828200,3.433828125,-1.7194389430522918,3.2593101312443613,2.918994180545211
1740247372190809000,3.44380908203125,-1.7130629782795905,3.879576411268115,3.237577899646759
1740247372200791000,3.453791015625,-1.7216355763137339,4.467263486987352,3.658951546615362
1740247372210772000,3.46377197265625,-1.7480416449412703,5.11082501014173,4.0686943770229815
1740247372220753200,3.473753173828125,-1.8065186760902403,5.751366308692098,4.304728407731652
1740247372230735000,3.483735107421875,-1.8055216278769075,6.3523161860883235,4.297296211904287
1740247372240716000,3.493716064453125,-1.8392403576053677,6.984206560671329,4.3524750782907
1740247372250698000,3.503697998046875,-2.000957252345979,7.630563267502188,4.594712639814615
1740247372260679000,3.513678955078125,-2.0886904808565974,8.27364957436025,5.107887787646055
1740247372270661000,3.5236611328125,-2.0258356730148197,8.926511425301433,5.576855544960498
1740247372280642000,3.53364208984375,-1.9326988318949936,9.440551081007719,5.683571121838688
1740247372290624300,3.543624267578125,-1.9353306417033076,9.819303729867935,5.554573570525646
1740247372300605200,3.553605224609375,-2.0856182338044045,10.163539192098378,5.244924853029847
1740247372310587100,3.563587158203125,-2.4150997790172695,10.556503906184433,4.824668811914324
1740247372320568000,3.573568115234375,-2.8031770133227107,10.917611008238792,4.238116293182969
1740247372330549000,3.583549072265625,-3.1482538948133585,11.230206300580502,3.6500942864209414
1740247372340531200,3.59353125,-3.428386594967544,11.424253539431094,3.074643591940403
1740247372350512000,3.60351220703125,-3.5260946895256637,11.604561006742715,2.38918412425518
1740247372360494000,3.613494140625,-3.3920646970033643,11.968070493763685,1.8274995047986506
1740247372370475000,3.62347509765625,-3.134250503902137,12.628955492162703,1.3639911819338797
1740247372380457200,3.633457275390625,-2.8830425771981476,13.388071732211111,0.8925105650156736
1740247372390438100,3.643438232421875,-2.811827060507238,13.872620505017041,0.23006430864930152
1740247372400420000,3.653420166015625,-2.9630200770154596,13.808740445780753,-0.7924374948918819
1740247372410401000,3.663401123046875,-3.236087661089003,13.349177645671366,-1.8215566707462072
1740247372420382000,3.6733818359375,-3.5488778914809225,12.825338480484485,-2.681358559858799
1740247372430364200,3.6833642578125,-3.888507613481581,12.283914558768272,-3.2531741127073763
1740247372440345000,3.693344970703125,-4.1633194108739495,11.89724631447792,-3.4538118358641863
1740247372450327000,3.7033271484375,-4.325185212565958,11.621771669262648,-3.3262796809285877
1740247372460308000,3.713307861328125,-4.19923828099519,11.468882954752445,-2.8025544975101946
1740247372470290200,3.723290283203125,-3.794559748239815,11.547600517636537,-2.0729303094059226
1740247372480271000,3.73327099609375,-3.30194691144377,11.763791783756018,-1.4326222350895403
1740247372490253000,3.743253173828125,-2.9493095315709708,11.80412496318817,-0.9056646456211804
1740247372500234200,3.753234130859375,-2.8852093998432156,11.651494607353209,0.17321663226783274
1740247372510215200,3.763215087890625,-2.9379686378672716,11.320914745509624,1.5681611708700656
1740247372520197000,3.773197021484375,-2.805629082649946,10.331450119173526,2.6060803237736225
1740247372530178000,3.783177978515625,-2.237132445091009,9.01700301260948,2.717068755665421
1740247372540160300,3.79316015625,-1.2045499770402908,7.87563985184431,2.00945064766407
1740247372550141200,3.80314111328125,0.18465806373655794,6.9405392683804035,1.0859043083935975
1740247372560123000,3.813122802734375,1.4533061266779899,6.4149254947364325,-0.10303250445127486
1740247372570104000,3.82310400390625,2.484903675344586,6.235092659199237,-1.2318354588508604
1740247372580086000,3.8330859375,3.2931682694435116,6.189274326354265,-1.7875655538171529
1740247372590067200,3.843067138671875,3.5892549100548026,5.99287847855091,-2.0704688877284525
1740247372600049000,3.853048828125,3.2649066360771655,5.62394462839365,-2.435171383926272
1740247372610030000,3.863030029296875,2.6485662973254915,5.287984242555499,-2.515471832087636
1740247372620011000,3.873010986328125,1.9347469965964554,5.051279180717468,-2.4001462477743623
1740247372629993200,3.8829931640625,1.2533727523982525,4.698840246026218,-2.091637932485342
1740247372639974100,3.89297412109375,0.8071377820260822,4.317909376344084,-1.913508978256583
1740247372649956000,3.9029560546875,0.6046802960962057,3.9754739492729305,-1.7821786000818014
1740247372659937000,3.91293701171875,0.4794827215880155,3.740761814817786,-1.4897610033720732
1740247372669919000,3.9229189453125,0.31504151645004747,3.5955107555791734,-0.9837667069554328
1740247372679900200,3.932900146484375,0.025412089154124257,3.3457956977814436,-0.18520225361585615
1740247372689882000,3.942882080078125,-0.4871604166090488,3.1683547258168456,0.7012181778311729
1740247372699863300,3.95286328125,-1.1790069549828768,2.9278204610794782,1.4859633646547794
1740247372709844200,3.96284423828125,-1.8481183683268725,2.4886358476102353,2.333751575368643
1740247372719827200,3.9728271484375,-2.278119119995832,2.0908201863616704,3.481067507058382
1740247372729808100,3.98280810546875,-2.5763030251473187,1.7262030303597449,4.697902380654216
1740247372739790000,3.9927900390625,-2.874903109884262,1.2166063255369663,5.906907583537698
1740247372749771000,4.00277099609375,-3.084354838615656,0.6744450294569134,7.1503206674575805
1740247372759753000,4.0127529296875,-3.275190714204311,0.031689854249358176,8.602649473536014
1740247372769734100,4.022734130859375,-3.5268379091084,-0.7768518032252788,10.112241551059483
1740247372779716000,4.032716064453125,-3.645540276378393,-1.6739830137789249,11.507360861706733
1740247372789697300,4.042697265625,-3.7623815259516236,-2.5553800641059876,12.720873897403479
1740247372799679000,4.052678955078125,-3.9290293012231587,-3.5181869851410386,13.895067314624786
1740247372809660200,4.06266015625,-4.073548246794939,-4.5624382636755705,14.988579175412655
1740247372819641000,4.07264111328125,-4.167721737486124,-5.849057452115416,16.155077946478126
1740247372829623000,4.082623046875,-4.180855944347381,-7.804915625801682,17.663325623655318
1740247372839604200,4.092604248046875,-3.899555953979492,-10.061029250216484,19.025329431164263
1740247372849586000,4.1025859375,-2.875370727396011,-11.990744097864628,19.52196494760513
1740247372859567000,4.112567138671875,-1.8300807534635066,-13.610299940407275,18.77898852597475
1740247372869549000,4.122549072265625,-1.0603729767739771,-14.597136556327342,16.99888205599189
1740247372879530200,4.1325302734375,-0.41972997141480445,-14.379515549665689,15.088756874954699
1740247372889512000,4.142511962890625,0.18118655170109121,-13.066294770026206,13.784697891414165
1740247372899492900,4.152492919921875,0.32617019217517224,-11.646018806290625,12.890669323050975
1740247372909474000,4.16247412109375,-0.1335001599619165,-10.687449668955802,12.065981417417525
1740247372919456000,4.1724560546875,-0.9407634315311908,-10.169928016352653,11.377443857461213
1740247372929437200,4.182437255859375,-1.607998675739765,-9.958431630051136,10.116274752098322
1740247372939419100,4.192419189453125,-1.9327286425113677,-9.833072727501392,8.41772194520831
1740247372949400000,4.202400146484375,-1.9354209503352642,-9.4163004368484,7.118155012390017
1740247372959382000,4.212382080078125,-1.9910545747518538,-8.886150773340463,6.273742415589094
1740247372969363000,4.222363037109375,-2.005970404332876,-8.46104846123755,5.865115437468886
1740247372979345200,4.23234521484375,-2.1101099932432175,-7.969557906469702,5.710117183458805
1740247372989326000,4.242326171875,-2.311839018768072,-7.284876437419652,5.952101062482595
1740247372999308000,4.25230810546875,-2.485453710442781,-6.414923741170764,6.525465598338842
1740247373009289000,4.2622890625,-2.552485511708259,-5.483129798036813,7.162235561656951
1740247373019270100,4.272270263671875,-2.419063714212179,-4.591266883274913,7.620493708908557
1740247373029252000,4.282252197265625,-2.333717673099041,-3.777883046466112,8.031504951816796
1740247373039233000,4.29223291015625,-2.240778692638874,-3.052023179331422,8.170514778578282
1740247373049215000,4.302215087890625,-2.056939544069767,-2.442885319304466,7.988311122256517
1740247373059196000,4.31219580078125,-2.005444334632158,-1.9587778605252504,7.658394108235836
1740247373069178000,4.32217822265625,-2.082467953079939,-1.5516545649662612,7.283198275074362
1740247373079159000,4.332158935546875,-2.220481754541397,-1.1530991912662982,7.015358070260286
1740247373089141200,4.342141357421875,-2.2917478323757647,-0.6252630653977393,6.828409849759936
1740247373099122000,4.352121826171875,-2.3271254352271558,-0.04962357034683227,6.500446307894587
1740247373109103000,4.36210302734375,-2.3562544990777967,0.4131947244271636,6.047770929211378
1740247373119085000,4.3720849609375,-2.277720476067066,0.8779822734475136,5.741643371579051
1740247373129066000,4.38206591796875,-2.1404665530622005,1.4494196406334638,5.484439127069711
1740247373139048200,4.392048095703125,-1.9754091157220304,1.9865902888193725,5.0926925566017625
1740247373149029000,4.402029052734375,-1.6585574811100958,2.486616032220423,4.5885155387401575
1740247373159011000,4.412010986328125,-1.3326350896835326,2.9526074040725825,4.016989908748865
1740247373168992000,4.421991943359375,-1.1654302650511263,3.4331744137659665,3.64161053571403
1740247373178974200,4.43197412109375,-1.1624493495441972,3.9623762750297784,3.6192478972584006
1740247373188955100,4.441955078125,-1.1626574393369258,4.49826477445066,3.6570389909923073
1740247373198937000,4.45193701171875,-1.1883670501329004,5.035326409304142,3.674499828881025
1740247373208918000,4.46191796875,-1.3195114042162894,5.583213974076509,3.966375573799014
1740247373218900200,4.471900146484375,-1.5471056694902479,6.187818282327056,4.291663174453378
1740247373228881200,4.481881103515625,-1.7470017804995177,6.804972275549173,4.4888317601948975
1740247373238862000,4.491862060546875,-1.9236511636950075,7.437351894953847,4.539708545473218
1740247373248844000,4.501843994140625,-2.10244471931234,8.05134245570898,4.588226784926652
1740247373258825000,4.511824951171875,-2.1863938992395995,8.62298615912199,4.68922164607048
1740247373268807200,4.52180712890625,-2.207392555865645,9.130209705072641,4.696528754213452
1740247373278788000,4.5317880859375,-2.196768578259647,9.55914355816245,4.657776121971011
1740247373288770300,4.541770263671875,-2.1445172897577285,9.933792863357066,4.514571181607246
1740247373298751200,4.551751220703125,-2.067053818587959,10.140720626568793,4.160039950811862
1740247373308733000,4.56173291015625,-1.996428961266577,10.230655164515971,3.6798417744308707
1740247373318714000,4.571714111328125,-1.9397166017025709,10.379105019795894,3.326204277604818
1740247373328695000,4.581695068359375,-2.0284321192488073,10.578116018533706,3.37152109066844
1740247373338677200,4.59167724609375,-2.17555686340481,10.765399170076847,3.7188054190754887
1740247373348658200,4.601658203125,-2.250338255883753,10.935215638512373,3.821197872057557
1740247373358640000,4.61164013671875,-2.283457266153395,11.140710154050588,3.7112791152238844
1740247373368621000,4.62162109375,-2.2474024946928024,11.374068828070163,3.3922084893882274
1740247373378603000,4.63160302734375,-2.09504481831938,11.649670899057387,2.942460980850458
1740247373388584200,4.641584228515625,-1.892429073087871,12.065776834756136,2.4778777222305535
1740247373398566000,4.65156591796875,-1.8120795250877737,12.50406420712471,1.9731793108433484
1740247373408547000,4.661547119140625,-1.9371496738240122,12.732754889333247,1.465256676712632
1740247373418529000,4.671529052734375,-2.152735375265777,12.742654352056979,0.976729647925496
1740247373428510200,4.68151025390625,-2.4190865105658768,12.611508682799338,0.42701428320407864
1740247373438492200,4.6914921875,-2.7127216663718223,12.356239790266752,-0.18409224654734133
1740247373448473000,4.70147314453125,-2.974896685031056,12.004033787548542,-0.8062865720242262
1740247373458454000,4.7114541015625,-3.1346935714945197,11.539589060616493,-1.317296650776267
1740247373468436000,4.72143603515625,-3.087899963876605,11.047501124477385,-1.6927292153030633
1740247373478417200,4.731417236328125,-2.8284134536489844,10.648059907853602,-2.039206903502345
1740247373488399000,4.741399169921875,-2.448171443013847,10.392376004779338,-2.194350703462958
1740247373498380300,4.75138037109375,-2.012110514523089,10.30123033747673,-2.1297575275212526
1740247373508362000,4.761362060546875,-1.6097168778344988,10.364405463314055,-2.0089631564080714
1740247373518343000,4.771343017578125,-1.3310372990980743,10.4040874853611,-2.0304232930660246
1740247373528325000,4.7813251953125,-1.1374103314861654,10.227260261380671,-2.087284997972846
1740247373538306000,4.79130615234375,-0.8497825994014739,9.96011972926855,-1.949988404870033
1740247373548288000,4.8012880859375,-0.5299243303194642,9.819041864061354,-1.6602157697111368
1740247373558269000,4.81126904296875,-0.2189049089923501,9.80010452387929,-1.3478092779397963
1740247373568250000,4.82125,0.027357085742056367,9.658397128596901,-1.176729073178768
1740247373578232000,4.831232177734375,0.1843053047761321,9.304338191488384,-1.217988719806075
1740247373588213000,4.841212890625,0.2449897828415036,8.758933091181516,-1.4328817628085613
1740247373598195200,4.8511953125,0.19692688594013452,8.205770800876618,-1.6307757402151821
1740247373608175900,4.86117578125,0.14020488176494836,7.749447421079873,-1.7388076603889464
1740247373618158000,4.871157958984375,0.114041389721632,7.46317665656209,-1.805237988629937
1740247373628139000,4.881138916015625,-0.060817164534330365,7.3960536698818204,-1.766556083536148
1740247373638121200,4.891121337890625,-0.4329065561130643,7.542247270667552,-1.588211440730095
1740247373648102100,4.90110205078125,-0.9473369647026062,7.730218404474854,-1.3115250816375017
1740247373658084000,4.911083984375,-1.5604761693254112,7.770298485928773,-0.9048667732417583
1740247373668065000,4.92106494140625,-2.084924406321347,7.625628149187564,-0.5775982279032469
1740247373678046000,4.9310458984375,-2.4434292169228193,7.272550039809942,-0.1937234137237072
1740247373688028200,4.941028076171875,-2.644858967240155,6.836843916106224,0.4000380134731531
1740247373698009000,4.951009033203125,-2.721075360958278,6.323511531886458,1.044172368079424
1740247373707991000,4.960990966796875,-2.5817452162012455,5.75458819334805,1.7132330741494892
1740247373717970700,4.970970703125,-2.2798490125283597,5.1668210381299255,2.3775439553439615
1740247373727952600,4.98095263671875,-1.8433263117447494,4.5871553563028575,3.131002023500204
1740247373737933600,4.99093359375,-1.2978624669879675,4.125530362966656,4.0230981624960895
1740247373747915800,5.000915771484375,-0.7863371321901679,3.743070676282048,5.135463776835799
1740247373757896700,5.010896728515625,-0.2416048165783286,3.4795819446757434,6.51801002163589
1740247373767878700,5.020878662109375,0.2198831063747406,3.425980410608649,8.08729990427494
1740247373777859600,5.030859619140625,0.5219301166951656,3.415287751680612,9.33567733260393
1740247373787840500,5.040840576171875,0.708400928942114,3.3315205041915177,10.26734443448782
1740247373797822700,5.05082275390625,0.9104455962873995,3.0292747564285993,11.174605409389734
1740247373807803600,5.0608037109375,1.082811603075266,2.534593296664953,12.013806993544101
1740247373817785900,5.070785888671875,1.16035076982975,2.0456208621978758,12.670285865938663
1740247373827766800,5.080766845703125,1.15244335770607,1.6692407876878976,13.61079210783839
1740247373837748700,5.090748779296875,0.9442202939867973,1.2764929312229156,15.029087711411714
1740247373847729700,5.100729736328125,0.4700419624172151,0.6004886896252631,16.581792954474686
1740247373857711900,5.1107119140625,-0.07850128978490829,-0.7057984913587569,17.960910393869877
1740247373867692800,5.12069287109375,-0.4884897655166685,-2.7579759355932474,18.9685267629683
1740247373877674800,5.1306748046875,-0.49471360846757884,-5.057423090299964,19.84019736905098
1740247373887655700,5.14065576171875,-0.01585135686546564,-7.018366019904613,20.885691925644874
1740247373897637600,5.1506376953125,0.9761994865715503,-7.818044571965932,21.503173835647104
1740247373907618800,5.160618896484375,2.255970416551828,-7.639281996008753,21.531373509693143
1740247373917599700,5.170599853515625,3.4748388418018816,-7.026753909021616,20.659888781571386
1740247373927581700,5.180581787109375,4.30249494959116,-6.416272233170271,19.09934276188016
1740247373937562600,5.190562744140625,4.724516246813535,-5.780093221482634,16.94647031623125
1740247373947544800,5.200544921875,4.692062422454357,-5.291438182401657,14.585499894547462
1740247373957525800,5.21052587890625,4.65982954736948,-5.240464951011538,12.357028894817828
1740247373967507700,5.2205078125,4.727131397747994,-5.453690937584638,10.48644077439904
1740247373977488600,5.230488525390625,4.844072016042471,-5.7923746109068395,9.152079591575264
1740247373987470600,5.240470703125,4.749137477850914,-6.276009775999188,8.309989884763956
1740247373997451800,5.25045166015625,4.579138638585806,-6.750079240366816,7.766115062764286
1740247374007433700,5.260433837890625,4.372305567920208,-7.0697817343652245,7.5016358588159076
1740247374017415000,5.270414794921875,3.9844554203689095,-7.097606729879975,7.272679803669452
1740247374027395800,5.280395751953125,3.418434817534685,-7.033592815130949,7.188128127804398
1740247374037377500,5.29037744140625,2.6089701999962327,-6.844352684301137,7.36376994139254
1740247374047358700,5.300358642578125,1.885287676900625,-6.532805439707636,7.623520363253355
1740247374057340700,5.310340576171875,1.715100621587038,-6.108228612783551,7.9577575785607095
1740247374067321900,5.32032177734375,1.7990531625151633,-5.697432473930716,8.04164231494963
1740247374077303600,5.330303466796875,1.8866425986409185,-5.464556030470132,7.911103379413485
1740247374087284700,5.34028466796875,1.9869985773593186,-5.239037548556923,7.5280924885869025
1740247374097266700,5.3502666015625,2.1396792020767927,-4.868633625847101,6.589777034729718
1740247374107247900,5.360247802734375,2.3232389491826293,-4.160295386877656,5.52064207482934
1740247374117229800,5.370229736328125,2.7032079880952833,-3.158941585305333,4.611117246648669
1740247374127210500,5.38021044921875,3.182345257246494,-1.9676479802012443,3.9666368550837037
1740247374137192700,5.390192626953125,3.917456352329254,-0.6474433330237865,3.567078734081983
1740247374147173600,5.400173583984375,4.692276941987872,0.44780689586400985,3.0622610802292822
1740247374157154800,5.41015478515625,5.460813336810469,1.34567635756433,2.5563725822746752
1740247374167136800,5.42013671875,5.566160547944903,2.481852471080422,1.3156751870542764
1740247374177118000,5.430117919921875,5.589368405053019,2.0084885246336457,0.7570809348285198
1740247374187099600,5.440099609375,5.03989853952527,2.0708646090477703,0.013192074528336524
1740247374197080600,5.45008056640625,4.146916265344619,2.5240719026505944,0.34501170729994773
1740247374207062800,5.460062744140625,2.7238720059394836,2.822062331056595,1.729050821006298
1740247374217043700,5.470043701171875,1.3283575584948062,2.77639714294672,3.201161601397395
1740247374227025700,5.480025634765625,0.4390485659994185,2.9517981335163115,4.474482332324982
1740247374237006600,5.490006591796875,-0.10342822577059269,3.605321078714728,5.705395415633917
1740247374246988800,5.49998876953125,-0.6097162444368004,4.261747928661108,6.468114064088463
1740247374256969700,5.5099697265625,-1.300979722225666,4.735941019408404,6.818091284841299
1740247374266951700,5.51995166015625,-2.1979197941213844,5.2349774595111604,7.072050848340988
1740247374276932600,5.5299326171875,-3.088565149787068,5.735599999761581,7.294840782073139
1740247374286913500,5.53991357421875,-3.684608550441265,6.235455647292733,7.266116791892051
1740247374296895700,5.549895751953125,-3.9214386999636885,6.933724327668547,7.046578553432226
1740247374306876700,5.559876708984375,-3.9074849934130906,7.819864188608527,6.725237644577026
1740247374316859000,5.56985888671875,-3.9033728819191453,8.632154384961725,6.169372525054216
1740247374326839800,5.57983984375,-3.869350785329938,9.399820426690578,5.605117178326845
1740247374336821800,5.58982177734375,-3.708932259836793,10.716936460202932,5.630202519744635
1740247374346802700,5.599802734375,-3.6085745275527237,12.556615063095093,5.9914019762575625
1740247374356785000,5.609784912109375,-3.863911809146404,14.121632675242424,5.686446969535947
1740247374366765800,5.619765869140625,-4.30868562092483,14.875759436440466,4.372755065253377
1740247374376747500,5.62974755859375,-4.7715702589333056,15.043116236764192,2.5851900959581133
1740247374386728700,5.639728759765625,-5.167197470226884,14.863173511111736,0.9336959773629904
1740247374396710700,5.649710693359375,-5.3772699612051245,14.601848971801996,-0.2248836911410093
1740247374406691800,5.65969189453125,-5.310868274536729,14.4915064365983,-0.8117582814335823
1740247374416672800,5.6696728515625,-5.238717815083265,14.351772971737384,-1.1000398012518882
1740247374426654700,5.67965478515625,-5.144102425843477,13.997786515343188,-1.5211889918148516
1740247374436635600,5.6896357421875,-5.094155030369758,13.314280519813298,-2.0198171433776615
1740247374446617600,5.69961767578125,-4.992205644980072,12.55980655261278,-2.3794909977585075
1740247374456598800,5.709598876953125,-4.890842242784798,11.981293547952175,-2.688579743283987
1740247374466580700,5.719580810546875,-4.856382923822105,11.4058901997447,-3.0072073015272616
1740247374476561700,5.729561767578125,-4.636849946059287,10.99531033399105,-3.1929782949417826
1740247374486543600,5.739543701171875,-4.452769974471629,10.684444057399034,-3.3569407766520976
1740247374496524800,5.74952490234375,-4.297546679534018,10.393687671899794,-3.5109856754601
1740247374506506800,5.7595068359375,-3.9985122950330374,10.24628644888997,-3.4060949759215116
1740247374516487700,5.76948779296875,-3.6145860429272054,10.215250674635172,-3.224211053073406
1740247374526469600,5.7794697265625,-3.1071731118842956,10.173630378001928,-3.077656802281737
1740247374536450600,5.789450439453125,-2.5767729807466266,10.051513233852386,-3.072302581772208
1740247374546431700,5.799431640625,-1.9987430834278463,9.819278010904789,-3.4058693504720923
1740247374556413700,5.80941357421875,-1.4359344283774493,9.552981528401375,-3.751884681856632
1740247374566395000,5.819394775390625,-0.9301856311544775,9.598529227611422,-3.823775029069185
1740247374576376600,5.82937646484375,-0.4711787113621831,9.983224710524082,-3.586321194690466
1740247374586357500,5.839357421875,-0.1545931803405285,10.389493142819404,-3.280425692248344
1740247374596339700,5.849339599609375,0.058096799659729,10.38907111801505,-3.3276942239016294
1740247374606320600,5.859320556640625,0.2884182979404926,9.920825829756259,-3.604019932988286
1740247374616302800,5.869302734375,0.5674903831258415,9.379004433155059,-3.7649522532224653
1740247374626283500,5.879283447265625,0.9138836079120636,9.066907737985252,-4.088185259434581
1740247374636265700,5.889265625,1.2199110661707817,9.029702335184812,-4.588476960295439
1740247374646246700,5.89924658203125,1.317437666682154,9.069717534708976,-5.103963892200589
1740247374656228900,5.909228759765625,1.1482032359182834,9.051678604671359,-5.403267156770825
1740247374666209800,5.919209716796875,0.7326139445047826,8.954543926087021,-5.270913865289092
1740247374676190700,5.929190673828125,0.2059317379117012,8.796165966510772,-4.715162143012881
1740247374686172700,5.939172607421875,-0.29120186424441635,8.702226284575461,-3.471426987531781
1740247374696153600,5.949153564453125,-0.7369126646120101,8.439196110391617,-1.6594120521128177
1740247374706135800,5.9591357421875,-0.9770015967346727,7.836573915868997,0.5920265662282705
1740247374716117000,5.969116943359375,-0.9305999110437929,7.002218018180131,3.1903099525153635
1740247374726098700,5.9790986328125,-0.8380198270238935,6.007097558039426,5.729560719597339
1740247374736079600,5.98907958984375,-0.6626200054980814,5.034707985144854,7.669844307532906
1740247374746061800,5.999061767578125,-0.5014109141491353,3.9543975512355565,8.857655915740132
1740247374756042800,6.009042724609375,-0.5966600712478161,2.73258839635849,9.394358654153347
1740247374766024700,6.019024658203125,-0.6264297710895538,1.6975234638422727,9.699815180656314
1740247374776005600,6.029005615234375,-0.301332724571228,1.1120569867819547,10.220274055755137
1740247374785987800,6.03898779296875,0.29660043535232544,0.7756950344055891,10.698763674652575
1740247374795968800,6.04896875,1.0808579847894608,0.3551332883417606,10.844461600875853
1740247374805949700,6.05894970703125,1.775468873310089,-0.18211948516964913,10.647806225353479
1740247374815932000,6.068931884765625,2.466242814016342,-0.7923854724436998,10.64896240965128
1740247374825912800,6.078912841796875,3.069991966742277,-1.3269079442083835,10.857650752794742
1740247374835894800,6.088894775390625,3.6058126616239545,-1.7839672370642423,11.127243938755988
1740247374845875700,6.098875732421875,4.176031300669909,-2.2196102324038742,11.515456489878892
1740247374855858000,6.10885791015625,4.779005377370119,-2.5964731219947335,11.966994973486662
1740247374865838800,6.1188388671875,5.415776509732008,-2.745827817159891,12.347286083960533
1740247374875820800,6.12882080078125,5.928155538749695,-2.8034143292099234,12.31292087302208
1740247374885801700,6.1388017578125,6.287060746845603,-2.9164018259644506,11.822267353600262
1740247374895784000,6.148783935546875,6.461117921590804,-3.0626077017098665,11.135717168068885
1740247374905764900,6.158764892578125,6.719457892131805,-2.9662521908044814,10.931040983176231
1740247374915746800,6.168746826171875,6.895846140173077,-2.96004398381412,10.651346089917421
1740247374925727700,6.178727783203125,7.003608595755696,-2.908144869750738,10.561688615345954
1740247374935709700,6.188709716796875,7.147074232882261,-2.843993592357635,10.673163953971862
1740247374945691000,6.19869091796875,7.3199588567167515,-2.907230677515268,10.793432839906215
1740247374955671800,6.208671875,7.532984352281689,-3.2070015595972534,10.788927345180511
1740247374965654000,6.218654052734375,7.716103369882703,-3.6280531350046394,10.67323994181752
1740247374975634700,6.228634765625,7.735944965428113,-4.098078292417526,10.420129104101656
1740247374985616600,6.23861669921875,7.735386747023463,-4.71773871550262,9.891780937057733
1740247374995597800,6.248597900390625,7.723786325600742,-5.4631853266388175,9.168199536249041
1740247375005579800,6.258579833984375,7.731492662194371,-6.001121990761161,8.447625500562786
1740247375015561000,6.26856103515625,7.69333565775752,-6.22082097274065,7.807263065710663
1740247375025542700,6.278542724609375,7.5178504960358135,-6.109481243193149,7.471576236116886
1740247375035523800,6.28852392578125,7.368144503214955,-5.642322581127286,7.489799290549755
1740247375045505800,6.298505859375,7.263940032374858,-4.944051562663913,7.676770307403802
1740247375055486700,6.30848681640625,7.121205632132291,-4.1765012562692165,7.838916679602861
1740247375065468700,6.31846875,6.833522662729025,-3.4446091232329605,7.843999681955576
1740247375075449600,6.32844970703125,6.319470147541165,-2.8439263723403214,7.6118889621704815
1740247375085431800,6.338431884765625,5.643409791842102,-2.4370482837140557,7.247011693927646
1740247375095412700,6.348412841796875,4.941962481430172,-2.198336558228731,6.911067674702405
1740247375105394000,6.358393798828125,4.285366704657673,-2.0187147350937127,6.608104134058952
1740247375115375900,6.3683759765625,3.6314386857897043,-1.8990818089753387,6.377953316169977
1740247375125356800,6.378356689453125,2.9998996088623997,-1.832668431869149,6.30765579110682
1740247375135338800,6.3883388671875,2.395545475980639,-1.6863953361064195,6.325359790101647
1740247375145319700,6.398319580078125,1.8211323078542947,-1.4955466010361909,6.373449575009942
1740247375155302000,6.408302001953125,1.3090800265729428,-1.2594389205694199,6.4239183640092605
1740247375165282800,6.41828271484375,0.8464858959436417,-0.9854115515530109,6.512186430048942
1740247375175264800,6.4282646484375,0.5015758954524994,-0.6490870085775852,6.478543688166141
1740247375185245700,6.43824560546875,0.19585669942535458,-0.2882014403194189,6.165730369159579
1740247375195228000,6.448227783203125,-0.11121712608113885,0.04854571198225021,5.736307855769992
1740247375205208800,6.458208740234375,-0.4562298562943935,0.45472178981900213,5.313344309261441
1740247375215190800,6.468190673828125,-0.759019355545193,0.9876450096935033,4.994706229624152
1740247375225171700,6.478171630859375,-1.017763376842439,1.629673916453123,4.614434408372641
1740247375235153700,6.488153564453125,-1.2297685894489288,2.3213196715578435,4.266110800045729
1740247375245134800,6.498134765625,-1.3925021138861775,3.109440764555335,4.0258512605965135
1740247375255115800,6.50811572265625,-1.495067000825703,3.8974607352659105,3.7992695333659645
1740247375265098000,6.518097900390625,-1.5690283090934156,4.6755394499376415,3.5303169833958146
1740247375275078700,6.52807861328125,-1.6710370234549046,5.452824676144123,3.271086786016822
1740247375285060900,6.538060791015625,-1.7667597894147038,6.271527077627182,3.2201667461186645
1740247375295041800,6.548041748046875,-1.8165914495542645,7.321773212662339,3.3506355390280484
1740247375305024000,6.55802392578125,-1.9645012066081164,8.423527416616677,3.496916233575344
1740247375315005000,6.5680048828125,-2.204509693905711,9.378180257290602,3.5441035166859627
1740247375324986600,6.577986572265625,-2.506347445389628,10.004670818656683,3.260798616236448
1740247375334967800,6.5879677734375,-2.853265570832789,10.388946030330658,2.8524866954147816
1740247375344949800,6.59794970703125,-3.1326497907072306,10.795228491151333,2.757996978381276
1740247375354931000,6.607930908203125,-3.3578193130522966,11.380766279882192,2.873964367729425
1740247375364912600,6.61791259765625,-3.4897830206945537,12.103519413173197,3.1338562438875437
1740247375374893800,6.627893798828125,-3.61734761659503,12.782996883839369,3.272403129312396
1740247375384874800,6.637874755859375,-3.7313837456196546,13.193773148947953,3.100843032079935
1740247375394856700,6.647856689453125,-3.7490135103344917,13.45997376986146,2.8483535411328074
1740247375404838000,6.657837890625,-3.6430683333069083,13.654185843884944,2.3788795878618956
1740247375414819800,6.66781982421875,-3.2677547189846634,13.732219516158104,1.623140715292096
1740247375424800800,6.67780078125,-2.51417711610198,14.044187031990289,0.9435527699887752
1740247375434782700,6.68778271484375,-1.3221899757757782,15.091749627029895,0.3013186960458755
1740247375444764000,6.697763916015625,0.15233195741027591,16.999896785992384,-0.4456809897512197
1740247375454745900,6.707745849609375,1.3681976937130094,18.90636402904391,-1.679855705204606
1740247375464726800,6.717726806640625,1.965307846815884,19.992572873342034,-4.328477532109618
1740247375474708700,6.727708740234375,2.1120158268645404,19.91087775595188,-8.18180131174624
1740247375484689700,6.737689697265625,1.5297034299209713,18.435745581912993,-12.035941668462753
1740247375494672000,6.747671875,0.3985505513943732,16.254893242448567,-14.587484930884838
1740247375504652800,6.75765283203125,-0.6262208045139909,14.38958452373743,-15.349235026568174
1740247375514634800,6.767634765625,-1.4909714020751417,13.36232003583908,-13.41780402265191
1740247375524615700,6.77761572265625,-1.9153788637816904,13.19635322856903,-9.588054595348238
1740247375534598000,6.787597900390625,-1.9076888938009737,13.738652764075994,-5.919826101821661
1740247375544578800,6.797578857421875,-1.7968650048211217,14.16804137519598,-3.044187663400173
1740247375554559700,6.807559814453125,-1.6920763043522833,13.99513512405157,-0.5909270805537701
1740247375564541700,6.817541748046875,-1.6852245387613773,13.492413565695285,1.9784072746247052
1740247375574522600,6.827522705078125,-1.854031099501997,12.791353208774327,4.528357130375504
1740247375584504800,6.8375048828125,-2.095729585713148,11.750403894394635,5.993563538205623
1740247375594485800,6.84748583984375,-2.1560231647647914,10.418971750760077,5.925208963903785
1740247375604468000,6.857468017578125,-2.3482817666329443,9.06753142284155,5.0278012744963165
1740247375614449000,6.867448974609375,-2.4921803883492943,8.091657514962554,4.04176603808701
1740247375624430800,6.877430908203125,-2.280228221104294,7.526642289778589,3.285228708615899
1740247375634411800,6.887411865234375,-1.8218294963382184,7.232007017019391,2.628392108824849
1740247375644393700,6.897393798828125,-1.4310079317606985,6.820982330107689,1.8455694144964216
1740247375654375000,6.907375,-1.1592914700351655,6.214923146873712,1.0851719024658202
1740247375664356600,6.917356689453125,-1.0046129494987428,5.528215140432119,0.48514673869907854
1740247375674337800,6.927337890625,-0.8835502828381955,4.798124211598933,0.1588017379462719
1740247375684319700,6.93731982421875,-0.7836476008452474,4.044869849321246,0.20197160210907458
1740247375694301000,6.947301025390625,-0.6355762234888971,3.31930048956573,0.5959001927912235
1740247375704283000,6.957282958984375,-0.35002325185164807,2.606822666573524,1.1360942804515362
1740247375714263600,6.967263671875,-0.0050735038720071315,1.9091069439053534,1.7311667902469634
1740247375724244700,6.97724462890625,0.30261626157574356,1.2999606083109974,2.324852814120054
1740247375734226700,6.987226806640625,0.4638495375178754,0.7826604895040392,2.8768904843091962
1740247375744208000,6.997207763671875,0.5900280128221959,0.31293782216906546,3.429516768041253
1740247375754189800,7.00718994140625,0.7042682861167937,-0.14887304912805557,3.780035256063938
1740247375764171000,7.0171708984375,0.84351659780927,-0.6370885277479886,3.9499060850352046
1740247375774152700,7.027152587890625,1.1121148544490336,-0.9947609791785478,4.159384701773524
1740247375784134000,7.0371337890625,1.4080349063217639,-1.162120702111721,4.568077730867266
1740247375794115800,7.04711572265625,1.6640262679100035,-1.1690052009284495,5.246126045513153
1740247375804096800,7.0570966796875,1.9302058460354803,-1.0788637422323226,6.019294191789626
1740247375814078700,7.06707861328125,2.2156951047867537,-1.105695050534606,6.742651720714568
1740247375824059600,7.0770595703125,2.575595169138908,-1.1767618064045906,7.587468222141266
1740247375834041900,7.087041748046875,3.0086282742410897,-1.205377660036087,8.511244278514384
1740247375844022800,7.097022705078125,3.3392531442701814,-1.284461133623123,9.299917452436684
1740247375854004700,7.107004638671875,3.5683424704074858,-1.4648562792181967,9.934648603403568
1740247375863985700,7.116985595703125,3.6943180435508487,-1.661621544855833,10.50693995707035
1740247375873967900,7.1269677734375,3.658472823187709,-1.8647645288318395,11.141705010306834
1740247375883948800,7.13694873046875,3.6079835759222507,-2.2043659015208483,11.8723667247653
1740247375893929700,7.1469296875,3.644945817616582,-2.7660060973137615,12.708451638203858
1740247375903912000,7.156911865234375,3.7432992243409156,-3.449977956789732,13.55978672774434
1740247375913892900,7.166892822265625,3.880083776268363,-4.146567890298367,14.223811777734756
1740247375923874800,7.176874755859375,4.015350909370183,-4.835204234454036,14.714633639460802
1740247375933855700,7.186855712890625,4.132879556685686,-5.544997348406911,15.025336249923706
1740247375943838000,7.196837890625,4.316292588797212,-6.144494104385376,15.134959823203086
1740247375953819000,7.20681884765625,4.5957180174648755,-6.278500423771143,15.174197608613968
1740247375963800800,7.21680078125,4.796331190702319,-6.056441726922989,15.197791250169276
1740247375973781800,7.22678173828125,4.91697533968985,-5.5739083855926985,15.113392134517431
1740247375983763700,7.236763671875,4.999903798267245,-5.104665902990102,14.600206465291976
1740247375993745000,7.246744873046875,4.995023625010251,-4.836753801983595,13.608955540060997
1740247376003726800,7.256726806640625,4.855025371733308,-4.859914312818646,12.302401817095278
1740247376013707800,7.266707763671875,4.632980703410506,-5.195478977337479,11.048750832277536
1740247376023689700,7.276689697265625,4.664967494779825,-5.708648864471912,9.966472313165664
1740247376033671000,7.2866708984375,4.895580669483542,-6.025861879742145,9.107781600165367
1740247376043651800,7.29665185546875,5.1192345265686505,-5.9918567342877385,8.529598265850543
1740247376053633800,7.3066337890625,5.187614235311746,-5.548426153811812,8.190172249728441
1740247376063614700,7.31661474609375,5.03749440099299,-4.8569203916996715,8.073784589141606
1740247376073596700,7.3265966796875,4.705265018376708,-4.1102462845951315,8.133903250017761
1740247376083577900,7.336577880859375,4.34091440435648,-3.5154490846097466,8.28840349137783
1740247376093559800,7.346559814453125,4.084988509219885,-3.077750325784087,8.255365729650855
1740247376103541000,7.356541015625,3.816632171577215,-2.705785729628801,7.998919610032439
1740247376113522700,7.366522705078125,3.410243327772617,-2.250415120512247,7.682917724117636
1740247376123503600,7.376503662109375,2.879709048861265,-1.6962556358635426,7.444868846455216
1740247376133485800,7.38648583984375,2.2023101380348202,-1.1031459505736827,7.368494047304988
1740247376143466800,7.396466796875,1.430277133268118,-0.4741302546441555,7.385754978707432
1740247376153448700,7.40644873046875,0.7232135173443704,0.10047989735901355,7.262357147097587
1740247376163429600,7.4164296875,0.04153261834979057,0.5689975728183985,7.046002214848995
1740247376173411800,7.426411865234375,-0.6009304420433939,0.9831611422777176,6.679140494790673
1740247376183392800,7.436392822265625,-1.1842553770303725,1.3658581448495388,6.342149596861004
1740247376193375000,7.446375,-1.6136453033246099,1.705098283010721,6.143029877051711
1740247376203356000,7.45635595703125,-1.8014228142559527,2.141666868762672,5.877588550072908
1740247376213337900,7.466337890625,-1.809691753168404,2.7078239574581384,5.510294868338108
1740247376223318800,7.47631884765625,-1.7133794968828557,3.313805399280786,4.975297180277109
1740247376233299700,7.4862998046875,-1.6062380958080291,3.8894551234647627,4.381369164341688
1740247376243282000,7.496281982421875,-1.5042486706689,4.476313931666314,3.8599288769900797
1740247376253262800,7.506262939453125,-1.4556021286606788,5.130619259414076,3.542027879455685
1740247376263244800,7.516244873046875,-1.3977312467113137,5.847361754113435,3.4506495724409816
1740247376273225700,7.526225830078125,-1.3440610313221812,6.502783810931444,3.478435989511013
1740247376283208000,7.5362080078125,-1.2418182159438729,7.111613043400645,3.544569380632043
1740247376293188900,7.54618896484375,-1.0592381275251508,7.704360909640789,3.5705601464569567
1740247376303170600,7.556170654296875,-0.9120376877844333,8.23379570287764,3.489938795778155
1740247376313151700,7.56615185546875,-0.7866641721874476,8.786465825751423,3.4800872638493776
1740247376323133700,7.5761337890625,-0.7538730786979198,9.527477669310569,3.4290666861861943
1740247376333115000,7.586114990234375,-0.7935840345785021,10.204992315471172,3.3007705611407756
1740247376343096800,7.596096923828125,-0.891273424436152,10.827325757157801,3.3126544756799934
1740247376353078000,7.606078125,-1.0665440666243433,11.505516110622882,3.516695869800448
1740247376363059700,7.616059814453125,-1.3158350537911057,12.064261754018068,3.5431817256659266
1740247376373040600,7.62604052734375,-1.5156842569187283,12.396914330482483,3.3058471337527036
1740247376383022800,7.63602294921875,-1.6727432428508997,12.688407213562726,3.0477526624053715
1740247376393003800,7.646003662109375,-1.8557602613821624,13.080790912890434,2.8478894307523963
1740247376402985700,7.65598583984375,-2.054305688434839,13.430033389627933,2.521471364763379
1740247376412966700,7.665966552734375,-2.2732360241293907,13.635780418622494,2.1683073306679725
1740247376422947800,7.67594775390625,-2.439173605304956,13.807594782876967,1.8172744633823632
1740247376432929800,7.6859296875,-2.490455756513774,13.941073863518238,1.4527011465221642
1740247376442911000,7.695910888671875,-2.375072304533422,14.23667125930786,1.1095447117000818
1740247376452892700,7.705892578125,-2.1280977776154875,14.836605822181701,0.9551233807951212
1740247376462873600,7.71587353515625,-1.8313596873581408,15.62231663916707,0.898520619085431
1740247376472855800,7.725855712890625,-1.632788541342318,16.178057840049267,0.4669353747040033
1740247376482836700,7.735836669921875,-1.6160495879873633,16.137202098047734,-0.41159401123225686
1740247376492819000,7.74581884765625,-1.8079168524503706,15.60342255360484,-1.689037375047803
1740247376502800000,7.7557998046875,-2.104120689700544,14.975953502595424,-3.355997942844033
1740247376512781800,7.76578173828125,-2.481084993839264,14.211894545447825,-4.918715461355448
1740247376522762800,7.7757626953125,-2.8943764566391703,13.264718908786772,-6.1781257403522725
1740247376532745000,7.785744873046875,-3.2097043888151644,12.463921581828593,-7.309446230530739
1740247376542726000,7.795725830078125,-3.2555773744568226,12.029506082457303,-7.9673770552992815
1740247376552707800,7.805707763671875,-3.0940622858986258,11.646046863341331,-7.38137515618801
1740247376562688800,7.815688720703125,-2.739225350154936,11.299234828621149,-5.382265869796276
1740247376572670700,7.825670654296875,-1.8766589647650718,10.981964530205726,-2.7493594984173773
1740247376582652000,7.83565185546875,-0.8661028889529406,11.015604934000969,-0.30706980691850183
1740247376592633600,7.845633544921875,-0.3133449416652322,11.34121285265088,1.4857207880705594
1740247376602614800,7.85561474609375,-0.39542350541502236,11.558138278263806,2.422353987929225
1740247376612595700,7.865595703125,-0.5036242062844336,11.482314098733664,2.491030049270391
1740247376622578000,7.875577880859375,-0.51965603428334,11.068201382678746,1.8268699747234582
1740247376632558800,7.885558837890625,-0.3972843308508396,10.439283886426686,1.102138234835863
1740247376642540800,7.895540771484375,-0.07565949048772454,9.849101486760377,0.8800392059773207
1740247376652521700,7.905521728515625,0.35783377947211265,9.165276926800608,1.0030424853116273
1740247376662503700,7.915503662109375,0.8001533299662172,8.279360353222488,1.1378069295883178
1740247376672484900,7.92548486328125,1.0863013448871672,7.208253800988197,1.096970476809144
1740247376682466800,7.935466796875,1.2019593760251999,6.1817684807688,0.9467173714995384
1740247376692448000,7.945447998046875,1.3052280273199082,5.424466596665978,0.6319616862535476
1740247376702429700,7.9554296875,1.3782418256044386,4.955330497047305,0.2736328167408705
1740247376712410600,7.96541064453125,1.3184978432595729,4.624290324215591,0.0762356829404831
1740247376722392800,7.975392822265625,1.181919627559185,4.296378220276535,0.04378945736587048
1740247376732374000,7.9853740234375,0.8615852653980255,3.909828341668844,0.252107798153162
1740247376742355700,7.995355712890625,0.4865466686248779,3.465382446670532,0.8520452836364507
1740247376752336600,8.005336669921874,0.17039039586596189,3.0079344467580316,1.6779864042013883
1740247376762318800,8.01531884765625,-0.08335640166588128,2.4410233248248696,2.448775546386838
1740247376772299800,8.0252998046875,-0.1727403199929744,1.8821236599117517,3.20544205519557
1740247376782282000,8.035281982421875,-0.152094933784008,1.4237149982735513,3.8507659118473527
1740247376792263000,8.045262939453124,-0.1309293961584568,0.9617223406687379,4.390556679403781
1740247376802244900,8.055244873046876,-0.1037806924700737,0.28617987136393785,4.940879946890473
1740247376812225800,8.065225830078125,0.1413877348739654,-0.5258803156256675,5.640619868862629
1740247376822206700,8.075206787109375,0.6082135847888887,-1.1840876192480325,6.409300056070089
1740247376832189000,8.08518896484375,1.1199907023906708,-1.6402525936126708,7.209975802475213
1740247376842169900,8.095169921875,1.537777723044157,-1.9692220976501702,8.002393423622847
1740247376852151800,8.10515185546875,1.7418308076024054,-2.1774925076425076,8.742765215712785
1740247376862132700,8.1151328125,1.7627110985457897,-2.403556348478794,9.695610714703797
1740247376872115000,8.125114990234374,1.8967057274937629,-2.6667536959230898,11.080678586935996
1740247376882095900,8.135095947265626,2.3060382235348222,-2.9165333433896303,12.25202772064209
1740247376892077800,8.145077880859375,2.8175603434622287,-3.2120506596803664,12.916353214883804
1740247376902058800,8.155058837890625,3.169439013922214,-3.582691898277402,13.147068680918215
1740247376912041000,8.165041015625,3.255463100427389,-3.9881723950654266,13.055412141484021
1740247376922022000,8.17502197265625,3.1593782231569287,-4.402081697502732,12.78439155306816
1740247376932003800,8.18500390625,3.0082290457904337,-4.851748542019725,12.485922985756396
1740247376941984800,8.19498486328125,2.8824457803487777,-5.213762822046876,12.2971013725996
1740247376951966700,8.204966796875,2.9651123731195925,-5.330400658002495,12.531922520387171
1740247376961948000,8.214947998046876,3.2776001134335995,-5.150935486733913,13.142912730282545
1740247376971929900,8.224929931640625,3.7922728063464164,-4.903005851048231,13.82008484661579
1740247376981911000,8.2349111328125,4.527233094781637,-4.724011219900846,13.852765465468167
1740247376991892000,8.24489208984375,5.196652112770081,-4.790041150647402,12.99961251285076
1740247377001873700,8.254873779296876,5.501382078564166,-5.107514862680435,11.574831054389476
1740247377011854800,8.264854736328125,5.4374698706239455,-5.652918793943524,10.031213957667351
1740247377021836800,8.2748369140625,5.177877269673347,-6.340166898611187,8.601077694174647
1740247377031818000,8.28481787109375,4.8682589473158115,-7.01977004148364,7.4667925089716904
1740247377041799700,8.294799560546876,4.576709365612269,-7.492085940182209,6.846856776076555
1740247377051780900,8.30478076171875,4.2692976133883,-7.609114236760139,6.763805567902327
1740247377061762800,8.3147626953125,4.225184330895543,-7.30655284717679,7.118773436549305
1740247377071743700,8.32474365234375,4.485796338021755,-6.635939650967717,7.593475938123464
1740247377081726000,8.334725830078124,4.741859595802426,-5.809348542061448,7.965859051951766
1740247377091707000,8.344706787109375,4.823761633941531,-5.072914089420437,8.090908742421865
1740247377101687800,8.354687744140625,4.813808979725837,-4.464580531513691,7.890158791062236
1740247377111669800,8.364669677734375,4.754302897790074,-3.905208865174651,7.2595946966469285
1740247377121651000,8.37465087890625,4.486631035280228,-3.3731180044710634,6.47423809992671
1740247377131633000,8.3846328125,3.9330747772216794,-2.853919358566403,5.715975846359133
1740247377141613800,8.39461376953125,3.201327021092176,-2.4842881737947464,5.0726498855263
1740247377151595800,8.404595703125,2.34337981993556,-2.2465122678548095,4.600141679126024
1740247377161576700,8.41457666015625,1.4410370122134684,-2.06116739089787,4.395977535408735
1740247377171559000,8.424558837890626,0.598884688494727,-1.8479069175332783,4.453032132539152
1740247377181539800,8.434539794921875,-0.1869030661843717,-1.6426532250136137,4.613306865647435
1740247377191521800,8.444521728515625,-0.8748587345995008,-1.4125111749529837,4.708097611454129
1740247377201502700,8.454502685546874,-1.4779004697084426,-1.1944202126920223,4.582019162458181
1740247377211485000,8.46448486328125,-1.9568166434548795,-0.931055691987276,4.312426561018825
1740247377221465900,8.4744658203125,-2.3362917613707483,-0.5732043768584728,3.973309172454476
1740247377231447800,8.48444775390625,-2.555576463460922,-0.22188626289069652,3.6337989851802583
1740247377241428700,8.4944287109375,-2.5481392991974947,0.19070611172914503,3.3632296476632355
1740247377251410700,8.50441064453125,-2.21952430768609,0.7579138785213232,3.015077304250002
1740247377261392000,8.514391845703125,-1.7669851226031779,1.4447095632463693,2.571337511694431
1740247377271373800,8.524373779296875,-1.445793559090793,2.1610861472427843,2.0964806963413953
1740247377281355000,8.53435498046875,-1.2814914701625704,2.8158883185967802,1.7258587469667195
1740247377291336700,8.544336669921876,-1.2229523335628212,3.4362633196920154,1.5530384205400942
1740247377301318000,8.55431787109375,-1.2404638787254691,4.0790938982233405,1.6543699662923812
1740247377311299800,8.5642998046875,-1.3116370175793766,4.727947390305996,1.8949013084203004
1740247377321280800,8.57428076171875,-1.3787141192913055,5.330571338394284,2.2098136455327273
1740247377331262700,8.5842626953125,-1.419172678668797,5.885508821678162,2.51641525041759
1740247377341243600,8.59424365234375,-1.3567626919850706,6.4476867776095865,2.7155367237925527
1740247377351224800,8.604224853515625,-1.3281784025356174,7.071958493882417,2.8354969821691514
1740247377361206800,8.614206787109374,-1.3889862147197127,7.689599393838644,2.915291818895936
1740247377371188000,8.62418798828125,-1.5974086004033683,8.245566220170259,2.9159108275771137
1740247377381170000,8.634169921875,-1.8610098524734378,8.73688083384931,2.8874229842394588
1740247377391150800,8.64415087890625,-2.0598998551800847,9.31801775727272,2.979744125062227
1740247377401132800,8.6541328125,-2.2385060715317726,9.962504578578471,3.16321794745028
1740247377411113700,8.66411376953125,-2.392362169769406,10.481783303982018,3.2040123146533963
1740247377421096000,8.674095947265625,-2.478027944356203,10.880908878785371,2.994028671002388
1740247377431076900,8.684076904296875,-2.621390705630183,11.177961734080315,2.5031524487406016
1740247377441058800,8.694058837890625,-2.8106863660395143,11.318425851303338,1.877436378878355
1740247377451039700,8.704039794921876,-2.9608810191601513,11.390268267720938,1.2124275785475969
1740247377461022000,8.71402197265625,-2.990817015479505,11.558926213771104,0.6964525708645581
1740247377471003000,8.7240029296875,-2.8593831769302485,11.980271803689002,0.4193611381024122
1740247377480984800,8.73398486328125,-2.6158675582945343,12.583819880884885,0.08596388075053692
1740247377490965800,8.7439658203125,-2.4288266910746694,12.962142321634293,-0.6777420251756906
1740247377500948000,8.753947998046876,-2.375297345460951,13.101587032681703,-2.015873374187946
1740247377510929000,8.763928955078125,-2.3479838065996765,13.306114749014377,-4.284322164040804
1740247377520910800,8.773910888671875,-2.248414009822905,13.318501936900615,-7.186798340505361
1740247377530891800,8.783891845703126,-2.055059721672535,12.79979721199274,-9.986146150928736
1740247377540873700,8.793873779296876,-1.898755061239004,11.983133622860908,-11.898579024386406
1740247377550855000,8.80385498046875,-2.011756001996994,11.141726053094864,-12.316636094152926
1740247377560836900,8.8138369140625,-2.393326923148334,10.665639988207817,-11.01299095211029
1740247377570818000,8.823818115234374,-2.7161624544754623,10.69653547720909,-8.565850313448905
1740247377580799700,8.8337998046875,-2.668847453331947,10.990473999875784,-6.044005439198017
1740247377590780700,8.84378076171875,-2.1201557325698435,11.328299595063925,-4.040312916669249
1740247377600761900,8.853761962890625,-1.4160089539408682,11.513584850788115,-2.277401911637187
1740247377610743800,8.863743896484374,-0.8328969310522079,11.504154174619913,-0.5879179618656635
1740247377620725000,8.87372509765625,-0.38136085859723384,11.233195545524358,0.8579933783859014
1740247377630706700,8.883706787109375,-0.10307108289599418,10.534788917982578,1.815501023969054
1740247377640687900,8.89368798828125,-0.038224224454164506,9.409778926125169,2.2104536970019337
1740247377650669800,8.903669921875,-0.06664594375304878,8.166355320811272,2.3360347178697585
1740247377660650800,8.913650634765625,-0.0835726016998291,7.02629798194766,2.43547475078702
1740247377670633000,8.923633056640625,-0.08247607516739516,6.030658466368913,2.419288170617819
1740247377680613600,8.933613525390625,-0.04115509027428925,5.223370608347654,2.202978831076622
1740247377690595800,8.943595947265624,0.06257423733472824,4.672720300863683,1.9032453583955764
1740247377700576800,8.95357666015625,0.20993337476849555,4.3397938758939505,1.6027327180355786
1740247377710559000,8.96355908203125,0.3364589830100536,4.12649365504086,1.3193605975687503
1740247377720540200,8.9735400390625,0.4078888000387698,3.7913825795084235,0.888863732945919
1740247377730522400,8.9835224609375,0.39915122070126235,3.1378526200473305,0.38592823957800865
1740247377740503300,8.99350341796875,0.3757645729601383,2.3538908386863766,0.020237316864728926
1740247377750485500,9.003485595703125,0.34742337155155834,1.6046331448294222,-0.1267734455227852
1740247377760466400,9.013466552734375,0.3491173890531063,0.9358651380956172,-0.08538871121108531
1740247377770448400,9.023448486328125,0.38025706207379695,0.4008928767368197,0.09207096545398234
1740247377780429300,9.03342919921875,0.4362999979436397,0.040814533208310605,0.35587738470733166
1740247377790411300,9.043411376953125,0.455022234070301,-0.14822832148373127,0.6621364597648381
1740247377800392400,9.053392333984375,0.3841303233105689,-0.20203502273410556,1.0778490122318267
1740247377810374100,9.0633740234375,0.27967494644932445,-0.1515513284265995,1.5112047734171152
1740247377820355300,9.073355224609376,0.12746077019982038,-0.14721768313646316,1.8260972367852926
1740247377830337300,9.083337158203125,0.04574585213065147,-0.250606453679502,2.1000462798684834
1740247377840318500,9.093318359375,0.10223170946240424,-0.42281683151423927,2.5219196930527685
1740247377850300400,9.103300537109375,0.45544294370040295,-0.666122314530611,3.1437557066112753
1740247377860281300,9.11328125,1.0913070442199706,-0.8403560148864984,3.797790692985058
1740247377870263300,9.12326318359375,1.899860976654291,-0.9742056824058294,4.348433109423518
1740247377880244200,9.133244140625,2.6965549599468708,-1.136490001770854,4.6762926063925025
1740247377890225400,9.143225341796875,3.282962517249584,-1.3327701142400503,4.815384266218543
1740247377900207400,9.153207275390624,3.6820413303017614,-1.4126000222802162,5.0625072616964575
1740247377910188500,9.1631884765625,3.9341917985528707,-1.3674234944701193,5.541226597696542
1740247377920170200,9.173170166015625,4.125768847897649,-1.3252327044725418,6.336206178286671
1740247377930151200,9.183151123046875,4.345938954520225,-1.356646664389968,7.240188569909334
1740247377940133400,9.19313330078125,4.554320423671603,-1.5340665935665367,8.266325515082478
1740247377950114300,9.2031142578125,4.622506655669212,-1.9459663097470998,9.197727828550338
1740247377960096300,9.21309619140625,4.519703283798695,-2.6267238833516835,9.680082890704274
1740247377970077200,9.2230771484375,4.319679893147945,-3.423950950607657,9.89340707695484
1740247377980059400,9.233059326171874,4.147753300690651,-3.8658413159042593,10.454230111145973
1740247377990040300,9.243040283203126,4.0155876407355064,-3.8730905563801525,11.423144116884469
1740247378000022500,9.2530224609375,3.961235872823,-3.7429374052911997,12.494471033871173
1740247378010003500,9.26300341796875,4.069562392029166,-3.746515263777971,13.297166887927055
1740247378019985400,9.2729853515625,4.363259507155418,-4.006456824296713,13.479516674721241
1740247378029966300,9.28296630859375,4.69117979440093,-4.691707617667317,13.060067273813486
1740247378039948300,9.2929482421875,4.790853636074066,-5.61219398484528,12.261084302800892
1740247378049929500,9.302929443359375,4.705768291723728,-6.480187363719939,11.284190404224395
1740247378059911200,9.3129111328125,4.6040322568237775,-7.082562890005112,10.357911425119639
1740247378069892400,9.322892333984376,4.5522775196671486,-7.215053544130921,9.648454411253333
1740247378079874300,9.332874267578125,4.414159088787436,-6.8986027454048395,9.23000980347395
1740247378089855500,9.34285546875,4.276614073881507,-6.126127257567644,9.158853031232953
1740247378099837200,9.352837158203124,4.160713320028782,-5.0331420510023825,9.097671125039458
1740247378109818000,9.362818115234376,3.911145269486308,-3.968914152365923,8.831627740514278
1740247378119800300,9.37280029296875,3.563918224224448,-3.1816450000226495,8.377504501110314
1740247378129781200,9.38278125,3.1323417476713655,-2.6620687529772518,7.740068767359852
1740247378139763500,9.392763427734375,2.624779179024696,-2.3535668674290178,7.054746077796817
1740247378149744400,9.402744384765626,2.050570593559742,-2.1174597714841363,6.51483723681867
1740247378159726300,9.412726318359375,1.4557225401699543,-1.954293408587575,6.137244279387593
1740247378169707300,9.422707275390625,0.8558698834259062,-1.8891355845004318,5.799079661503434
1740247378179688400,9.4326884765625,0.25894078597836195,-1.8517407966077326,5.385803396272659
1740247378189670400,9.44267041015625,-0.3351169207513332,-1.8800094442367552,4.833121582961082
1740247378199651300,9.4526513671875,-0.8017582809448242,-1.8696219057351349,4.246120735940337
1740247378209633300,9.46263330078125,-1.1658673412941396,-1.7630922068178652,3.7239533033579586
1740247378219614200,9.4726142578125,-1.3943266989648342,-1.5088783762961626,3.245076730969548
1740247378229596400,9.482596435546874,-1.5515524197660386,-1.215471184027195,2.800001890417933
1740247378239577300,9.492577392578125,-1.556736252144724,-0.9090367524027824,2.434645314225554
1740247378249559300,9.502559326171875,-1.4560031106770037,-0.5557505532324314,2.1642881581544873
1740247378259540200,9.512540283203125,-1.3004934000134467,-0.18491466884613036,1.8924971698880195
1740247378269522400,9.5225224609375,-1.0907530635990201,0.20691081207692621,1.5444792665094136
1740247378279503400,9.53250341796875,-0.8859083902716636,0.5712500279203057,1.17668815664649
1740247378289485600,9.542485595703125,-0.7214426352143287,0.962954805073142,0.7745055323600769
1740247378299466500,9.552466552734375,-0.6093021106779575,1.418523274849355,0.45382337967455383
1740247378309448200,9.5624482421875,-0.553330632609129,1.9941797210350631,0.2609177120745182
1740247378319429400,9.572429443359376,-0.5209526499651372,2.605146842315793,0.10987900934517383
1740247378329411300,9.582411376953125,-0.5048335820741952,3.1858973967701196,0.01317220078408718
1740247378339392500,9.592392578125,-0.5152126450084149,3.7902339939951895,0.08458674717843533
1740247378349374200,9.602374267578124,-0.538052399456501,4.409877465945482,0.220579856467247
1740247378359355400,9.61235546875,-0.5927776768565177,4.9847442230582235,0.27786066356897354
1740247378369337300,9.62233740234375,-0.6819501443900168,5.518491034275293,0.3074637746721506
1740247378379318300,9.632318359375,-0.7941090813659131,6.105127139636874,0.3884206409156322
1740247378389300200,9.64230029296875,-0.9243141087725758,6.730217186555266,0.3852800048023462
1740247378399281200,9.65228125,-1.072755196224153,7.281357615643739,0.248830968439579
1740247378409263400,9.662263427734375,-1.1919596677973865,7.838020607545971,0.017610475492477417
1740247378419244300,9.672244384765625,-1.2686582920745015,8.453067399355769,-0.2581535080581903
1740247378429226500,9.6822265625,-1.3179228198505937,9.123508746129273,-0.6199906779527664
1740247378439207400,9.69220751953125,-1.4122823346331714,9.835206232398749,-1.2699082921355962
1740247378449189400,9.702189453125,-1.5093071231022477,10.512007761853933,-2.341405304992199
1740247378459170300,9.71217041015625,-1.567955419164896,11.027356162071227,-3.5667870576590297
1740247378469152500,9.722152587890625,-1.7212591442167757,11.529923406648635,-4.700732635644078
1740247378479133400,9.732133544921876,-1.979907450054586,11.681548384833334,-5.507832277616858
1740247378489115100,9.742115234375,-2.2282161481857297,11.27148056025505,-5.862729419115185
1740247378499096300,9.752096435546875,-2.3161817241474987,10.757443827158212,-5.671854380559921
1740247378509078300,9.762078369140625,-2.133589360769093,10.781128654128313,-4.828620179888606
1740247378519059500,9.7720595703125,-1.6310732618570327,11.556477067053317,-3.390709775263071
1740247378529041400,9.78204150390625,-1.0996142693161963,12.648286800098418,-1.9632535446345805
1740247378539022300,9.792022216796875,-0.9657102412611246,13.270119891047477,-1.1833663192361592
1740247378549004300,9.80200439453125,-1.3042293716713786,12.84599431502223,-1.3534697879195212
1740247378558985200,9.811985107421876,-1.9489175607681273,11.439910542768239,-2.258072941789031
1740247378568966400,9.82196630859375,-2.5319781457304953,9.88335797662735,-3.068255352208018
1740247378578948400,9.8319482421875,-2.887375930227339,9.116955086702108,-3.1344138777703043
1740247378588929500,9.841929443359374,-3.0119892751067874,9.192145644503832,-2.504510877612233
1740247378598911200,9.8519111328125,-2.9040283743426203,9.75567618408799,-1.5236200183540582
1740247378608892400,9.861892333984375,-2.6884482258588074,10.369895292901992,-0.6027841070860624
1740247378618874400,9.871874267578125,-2.3118565544247627,10.811509763866662,0.008244681254029274
1740247378628855300,9.881855224609374,-1.8739178493633866,10.94029396468997,0.4790583586961031
1740247378638837200,9.891837158203124,-1.3740695083558558,10.626209310573339,0.9766834706962108
1740247378648818200,9.901818115234375,-0.8016191647350788,9.890417832010984,1.6018962672114372
1740247378658800400,9.91180029296875,-0.14039777398854494,8.754060516709089,2.1727035198003053
1740247378668781300,9.92178125,0.5888742396771908,7.321992992892861,2.761094944396615
1740247378678763300,9.93176318359375,1.2123670805320144,5.741232452690601,3.2418682903170586
1740247378688744200,9.941744140625,1.5533938098490236,4.313458242154121,3.167850867947936
1740247378698726400,9.951726318359375,1.7496438194409012,3.308443579986691,2.8063649957090613
1740247378708707300,9.961707275390625,1.9033549562498926,2.9155259199127554,2.211714510717988
1740247378718689000,9.97168896484375,1.531246275448799,2.8679601588785646,1.234796062222123
1740247378728670000,9.981669921875,0.6856172885954379,2.853282229706645,0.4810924948722124
1740247378738652000,9.99165185546875,-0.29388211630433797,2.6620330971419808,0.051449616730213164
1740247378748632800,10.0016328125,-1.3139800735741853,2.172191186363995,-0.31939971165955067
1740247378758615000,10.011614990234374,-2.1505247134789824,1.460585908422619,-0.6176771403133868
1740247378768596000,10.021595947265626,-2.65841666021049,0.7184780863203107,-0.8099480171412229
1740247378778578000,10.031577880859375,-2.8955729729473587,-0.12074220253452658,-1.040719597277045
1740247378788558800,10.041558837890625,-2.6384429627180097,-1.0409507756844163,-1.1870096441745757
1740247378798541000,10.051541015625,-1.8587877925097942,-1.8697963855192063,-1.2220908944278954
1740247378808522000,10.06152197265625,-0.8127350175112485,-2.2023919710993765,-1.2887000863671303
1740247378818504000,10.07150390625,0.04709142152070999,-2.118780498693883,-1.3789637101382017
1740247378828485000,10.081485107421875,0.616936551079154,-1.9570283865094185,-1.2033768416076898
1740247378838466800,10.091466796875,1.109208611613512,-1.9427192906498907,-0.8353373099416493
1740247378848448000,10.101447998046876,1.4674156083121894,-2.1594296122074126,-0.41003041517734523
1740247378858430000,10.111429931640625,1.6644140981838107,-2.558581782756746,0.36614158909022804
1740247378868411100,10.1214111328125,1.9132289922714232,-3.0692621911630034,1.4354355389446019
1740247378878392800,10.131392822265624,2.3111852310344574,-3.706982879334688,2.730320451426506
1740247378888373800,10.141373779296876,2.8219886812984942,-4.325550246486068,4.312848001301289
1740247378898356000,10.15135595703125,3.0932360642075536,-4.816579028961062,5.338166615828872
1740247378908337000,10.1613369140625,2.9279987402558323,-5.175141122707724,5.758198785060644
1740247378918319000,10.171319091796875,2.491972298556566,-5.433552404919267,6.053517948430776
1740247378928299800,10.1812998046875,2.269834252861887,-5.65128505526185,6.698423871931433
1740247378938282000,10.191281982421875,2.466182900522649,-5.971894142711162,7.620953727635741
1740247378948263000,10.201262939453125,3.063839289331436,-6.509092555686831,8.66931127244532
1740247378958245000,10.2112451171875,3.8287539865255353,-7.1229217884004115,9.501256601861119
1740247378968226000,10.22122607421875,4.457742794448137,-7.701124996459484,9.99042835829258
1740247378978208000,10.2312080078125,4.6961225115001195,-8.190949079319834,10.224385582727193
1740247378988189000,10.24118896484375,4.792913491213321,-8.626461726278066,10.51363390175104
1740247378998169900,10.251169921875,4.929591075634956,-8.948828471049666,11.025939281010627
1740247379008152000,10.261152099609374,5.288666379600763,-8.696478096312283,11.57357550137043
1740247379018133000,10.271133056640625,5.706348186314106,-7.78824681507349,12.221480606687068
1740247379028115000,10.281114990234375,5.891573820805549,-6.552737636145949,12.691146283137797
1740247379038096000,10.291095947265624,5.820817446058988,-5.632492676508426,12.677047615158557
1740247379048078000,10.301078125,5.477538261640071,-5.403862784576416,11.915152558046579
1740247379058059000,10.31105908203125,4.863494509392977,-5.7939995817601675,10.57003091175556
1740247379068041000,10.321041015625,4.177497281569242,-6.194007784616947,9.48070072056651
1740247379078022000,10.33102197265625,3.7135377078056333,-6.0422296616971485,9.249724557769298
1740247379088003800,10.34100390625,3.4165479808747765,-5.287424855107068,9.734971834233402
1740247379097985000,10.350985107421875,3.024043870037794,-4.3654216536253685,10.350231976532935
1740247379107967000,10.360967041015625,2.3765198729932306,-3.749461838623881,10.534321300470829
1740247379117948200,10.3709482421875,1.626923156440258,-3.496198440694809,10.33847256515622
1740247379127929900,10.380929931640624,1.0120517942626028,-3.350872854915261,10.096462967169284
1740247379137910800,10.390910888671876,0.560881413314864,-3.1235037766993043,9.79029215491712
1740247379147893000,10.40089306640625,0.29313078648038204,-2.7957600150644777,9.395351756843924
1740247379157874000,10.4108740234375,0.2041759072203189,-2.41676771222949,8.846603191328049
1740247379167855900,10.42085595703125,0.16666823353767393,-2.0292817218154666,8.009443926656246
1740247379177836800,10.4308369140625,0.07707980561442673,-1.6515665993094444,6.990371513041853
1740247379187819000,10.440819091796875,-0.057961190581321716,-1.2672948947668075,5.989920797789097
1740247379197800000,10.450800048828125,-0.24699323161840436,-0.8347516190081834,5.163251947471499
1740247379207782100,10.4607822265625,-0.469428506693989,-0.42983226323425766,4.426121913781762
1740247379217763000,10.47076318359375,-0.7748514962535351,-0.06966273429095744,3.816298409578204
1740247379227745000,10.4807451171875,-0.9911934959553181,0.31926644066870213,3.638921735021472
1740247379237726000,10.490725830078125,-0.9231436036884784,0.7996674461454153,3.6816380101978776
1740247379247708000,10.5007080078125,-0.721951169258356,1.2679139034479856,3.5346798547804354
1740247379257689000,10.510689208984376,-0.551619298646599,1.7176012062311172,3.267632261648774
1740247379267670800,10.5206708984375,-0.4189538724757731,2.2379291484266517,2.8971389070898295
1740247379277652000,10.53065185546875,-0.3960685253202915,2.8419159093007442,2.4838924524754282
1740247379287634000,10.540634033203125,-0.45172202348113055,3.443054879528284,1.9759762480854988
1740247379297615000,10.550614990234376,-0.5873027525767683,3.9343554646819827,1.4659733005493878
1740247379307596800,10.5605966796875,-0.6989930491276085,4.391932936193049,1.0348007286220788
1740247379317578000,10.570577880859375,-0.7503484117031097,4.862954995688796,0.8670920461207627
1740247379327560000,10.580559814453125,-0.729325497418642,5.379594604760408,1.0454705911964177
1740247379337540900,10.590540771484376,-0.6644004591740668,5.816743328487873,1.118213171324134
1740247379347523000,10.600523193359376,-0.6334191915854811,6.1411734355300664,1.047154014238715
1740247379357504000,10.61050390625,-0.7248898530587553,6.4204100636273616,0.8841314437270164
1740247379367486000,10.62048583984375,-0.8782733653485775,6.75326079301238,0.7861310882240533
1740247379377467000,10.630466796875,-1.0762148351587355,7.223003626352548,0.74411857740283
1740247379387449000,10.640448974609376,-1.3108699787296354,7.780679594689607,0.8185773137986659
1740247379397430000,10.650429931640625,-1.5864323022283613,8.374055821961164,1.0313315912067889
1740247379407412000,10.660411865234375,-1.8657156920768319,9.070727588534355,1.4888479801803827
1740247379417393000,10.670392822265624,-2.041560919282585,9.878118322408199,2.026550835546851
1740247379427375000,10.680375,-2.147791927514225,10.522537339174747,2.260309322538972
1740247379437356000,10.69035595703125,-2.1671473469778895,10.84553127593398,2.159020446884632
1740247379447338000,10.700337890625,-2.169091466782987,11.011712018215656,1.9138626139998436
1740247379457319000,10.71031884765625,-2.2468889922127127,11.248284393584727,1.8353700920432805
1740247379467300900,10.72030078125,-2.4264041401028633,11.64468609638214,1.9234207159399985
1740247379477282000,10.730281982421875,-2.6666274391949174,12.11297230117321,2.1058932523310183
1740247379487264000,10.740263916015625,-2.7959108217120168,12.668190939486026,2.355394667378068
1740247379497245200,10.7502451171875,-2.4229104527682064,13.58725808751583,3.062491381853819
1740247379507227000,10.760226806640626,-1.7268319759130477,15.037463910090922,4.0098201632499695
1740247379517207800,10.770207763671875,-1.1969108604639769,16.460929025256632,4.426121329259872
1740247379527190000,10.78018994140625,-1.1671782777622342,16.965218271321056,3.7919571645259853
1740247379537171000,10.7901708984375,-1.47005384786129,16.382501385229826,2.1363936045348644
1740247379547153000,10.80015283203125,-1.7142223774477838,15.39465237739682,0.1978922238409519
1740247379557133800,10.8101337890625,-1.7982210956051945,14.505336224508286,-1.4855682278573512
1740247379567116000,10.820115966796875,-1.7971230712354183,13.651871137201786,-2.98223769544363
1740247379577097000,10.830096923828124,-1.7438751729115842,12.9246054949224,-3.986124230363965
1740247379587079200,10.8400791015625,-1.4874287610322237,12.52618134638667,-4.205789310073852
1740247379597059800,10.850059814453125,-1.0895584469869732,12.409832264244555,-3.7875311647772785
1740247379607042000,10.8600419921875,-0.5047159470438957,12.26080957751274,-3.183292767229676
1740247379617023000,10.87002294921875,0.26354221535921096,11.877204227924347,-2.5583096878170966
1740247379627005000,10.8800048828125,0.9731354228258132,11.398771892172098,-2.1370348250478504
1740247379636986000,10.889986083984375,1.5137750622965394,10.960900699388981,-1.838349400115013
1740247379646967800,10.8999677734375,1.80439335449934,10.601436103844643,-1.6520061597704887
1740247379656949000,10.909948974609375,1.89769941470623,10.224848524063825,-1.4941536853730677
1740247379666931000,10.919930908203124,1.9118319849550722,9.80111048605144,-1.155235034251213
1740247379676912000,10.929912109375,1.8318845880150794,9.310946211451292,-0.6964683529555797
1740247379686893800,10.939893798828125,1.7343863368153571,8.74094852167964,-0.19058394665420053
1740247379696874800,10.949874755859375,1.6901368607223033,8.114442762744426,0.22062837178409098
1740247379706857000,10.95985693359375,1.6110216768227517,7.344876440352201,0.4757447041034698
1740247379716838100,10.969838134765626,1.5083540601611136,6.518005929982662,0.4905518126130104
1740247379726820400,10.9798203125,1.338955963268131,5.898535476511716,0.32949557373821736
1740247379736801000,10.989801025390625,1.0762111818969249,5.477181703287362,0.07703472436368465
1740247379746782200,10.9997822265625,0.7963666510343551,5.176707641372085,-0.1961591164380312
1740247379756764200,11.00976416015625,0.5581820181630551,4.907931617012619,-0.455372947204113
1740247379766745300,11.019745361328125,0.3553378710031509,4.73304003726989,-0.4762637595415115
1740247379776727300,11.029727294921875,0.07337123342007398,4.661693295414746,-0.2244008760601282
1740247379786708200,11.039708251953124,-0.29755335216298695,4.404156457950174,0.3185135764747858
1740247379796690200,11.049690185546876,-0.609164017381519,3.9697424198836084,1.2993284478873013
1740247379806671000,11.059671142578125,-0.7565420056462288,3.4503120110496877,2.7451450955927372
1740247379816653300,11.0696533203125,-0.6936496422730386,2.856134112006426,4.269433222466707
1740247379826634200,11.07963427734375,-0.49331893923878667,2.0847779835879803,5.656681361347436
1740247379836616200,11.0896162109375,-0.16790858898758887,1.110051784439385,6.886700710687041
1740247379846597000,11.09959716796875,0.2013688869755715,0.11493512369096279,7.864907445427775
1740247379856579300,11.109579345703125,0.5078968421023339,-0.7170745031327008,8.444163377410172
1740247379866560300,11.119560302734374,0.7125345216155051,-1.3372884684473276,8.780010366001724
1740247379876542200,11.129542236328126,0.8635119956769048,-1.9058342058449982,9.21203049466908
1740247379886523100,11.139523193359375,1.0328862733028827,-2.4844313816577195,9.765332485705613
1740247379896505000,11.149505126953125,1.3026549619615078,-3.0810750862926244,10.400756879633665
1740247379906486300,11.159486328125,1.3955423583649098,-3.7233664433807134,11.228258673644065
1740247379916468200,11.16946826171875,1.2865011150181294,-4.445871739390492,12.362998032355307
1740247379926449400,11.179449462890625,1.0929378602921962,-5.2668818332940335,13.791260903191565
1740247379936431000,11.18943115234375,1.0151180499654262,-6.186646315938234,15.38256797184944
1740247379946412300,11.199412353515624,1.218827435652539,-7.067387532705069,16.62942096709013
1740247379956394200,11.209394287109374,1.7920470831453799,-7.723051581585406,17.30013528558612
1740247379966375200,11.219375244140625,2.499091775172949,-8.151355904600024,17.15636043637991
1740247379976357000,11.229357177734375,3.2894799363195895,-8.415176936900615,16.34429703451991
1740247379986338000,11.239338134765624,4.13104298890829,-8.30871621156633,15.195572405076026
1740247379996320300,11.2493203125,4.958566994750499,-7.72867818929553,14.294656999808549
1740247380006301200,11.25930126953125,5.7619256966292856,-6.604736703452468,13.925249686920642
1740247380016283400,11.269283447265625,6.278992591202258,-5.4076411340713495,13.8167460575819
1740247380026264000,11.27926416015625,6.565194966658949,-4.6302048089563845,13.685427369844913
1740247380036246300,11.289246337890624,6.625594198042154,-4.338471102857589,13.292399527394771
1740247380046227200,11.299227294921875,6.335611135002971,-4.601903428101539,12.597099049174785
1740247380056209400,11.30920947265625,5.901618244957923,-5.5169812142342325,11.603926215970516
1740247380066190300,11.3191904296875,5.509817898476124,-6.7225353998810045,10.334835669958592
1740247380076172000,11.329172119140624,5.1758700215041635,-7.607402172145247,9.181091751047969
1740247380086153200,11.3391533203125,4.7086605060338975,-7.738039307358861,8.48269798298776
1740247380096135200,11.34913525390625,4.21929527285695,-7.0205421948999165,8.320774313628673
1740247380106116400,11.359116455078125,3.7441046955049035,-5.74188770172894,8.576030931201577
1740247380116098000,11.36909814453125,3.266690596884489,-4.36918597459495,8.957358398985862
1740247380126079200,11.379079345703126,2.6386171502411364,-3.2847458935350176,9.154341106766461
1740247380136061200,11.389061279296875,1.8878256709456442,-2.655475346061587,8.937290593469143
1740247380146042000,11.3990419921875,1.0991478208482264,-2.3721003029853103,8.448970485430955
1740247380156024300,11.4090244140625,0.3829087456263602,-2.223406117555499,8.012024006277322
1740247380166005200,11.419005126953126,-0.14762801750302315,-2.103213803988695,7.508285379832983
1740247380175987200,11.4289873046875,-0.5906571775712073,-2.012671947798133,6.958276585122943
1740247380185968000,11.438968017578125,-0.9213282248295843,-1.9200655602931975,6.512980210775137
1740247380195950300,11.448950439453125,-1.1720483680166303,-1.8011171093076466,6.036159986394644
1740247380205931300,11.45893115234375,-1.3146063887789845,-1.6481828020900486,5.44257157767713
1740247380215913200,11.468913330078125,-1.3359107503533363,-1.362812201282382,4.759465979641676
1740247380225894100,11.47889404296875,-1.306005733694136,-0.9731400990009307,4.076445137280226
1740247380235876400,11.48887646484375,-1.2457776210941374,-0.46680385727882384,3.4211487526684996
1740247380245857300,11.498857177734376,-1.1873860762715338,0.08889496576637029,2.8720950667262075
1740247380255839200,11.508839111328125,-1.1507412299633026,0.6763160840258002,2.6087556804627177
1740247380265820200,11.518820068359375,-1.1086951091334223,1.297355978770554,2.485485859146714
1740247380275802000,11.528802001953125,-1.059139781717211,1.8369629141926764,2.2668004381239415
1740247380285783300,11.538783203125,-0.9163663646385073,2.309278812891245,2.066881676891446
1740247380295765200,11.54876513671875,-0.711133276515454,2.8982208571076393,1.9126637596040963
1740247380305746400,11.558746337890625,-0.5966764378607273,3.544882684364915,1.7581144184052944
1740247380315728100,11.56872802734375,-0.6318763460576534,4.115480678117275,1.4671101956248283
1740247380325709000,11.578708984375,-0.7331133453942835,4.6703456806868315,1.3052782962024212
1740247380335691300,11.588691162109376,-0.828609170730412,5.376226589632034,1.3436702784389256
1740247380345672200,11.598672119140625,-0.9439300788685678,6.143195881268381,1.55424019754529
1740247380355654100,11.608654052734375,-1.1250037082470954,6.840874779057502,1.6367676741063595
1740247380365635000,11.618635009765624,-1.402782684881985,7.418425076165795,1.64196991892457
1740247380375617300,11.6286171875,-1.7290166264757514,8.016613672155142,1.8362153106957673
1740247380385598200,11.63859814453125,-1.9511402052536606,8.776762177860736,2.2693425238221883
1740247380395580400,11.648580322265625,-2.127194399034977,9.621555882933736,2.696756035476923
1740247380405561000,11.65856103515625,-2.253880166274309,10.42495608586669,3.056493602743745
1740247380415543300,11.668543212890626,-2.3931994973763824,11.13222172716856,3.2001065393865105
1740247380425524200,11.678524169921875,-2.5553107982620595,11.492558429372309,2.8801667295008895
1740247380435506200,11.688506103515625,-2.6089555869489907,11.454248864722251,2.2203315324157473
1740247380445487400,11.6984873046875,-2.45113087734133,11.360221504503487,1.5876117212712764
1740247380455469000,11.708468994140626,-2.0396046706482767,11.48013617017269,1.2334224357813597
1740247380465450200,11.7184501953125,-1.4558438284620643,11.940113980823755,1.2250842310249805
1740247380475432200,11.72843212890625,-0.8175657986685633,12.749736419272422,1.5428431897401809
1740247380485413400,11.738413330078124,-0.2629787362575531,13.903061235988138,2.013427150079608
1740247380495395000,11.74839501953125,-0.06745937902778387,14.78744636221528,2.0739619905412194
1740247380505376000,11.7583759765625,-0.39077480282634497,14.607593652933835,1.1081786840438843
1740247380515358200,11.768358154296875,-1.062167458975315,13.511295960819721,-0.3858990134835243
1740247380525339100,11.778339111328124,-1.8528128097534178,12.341503993427752,-1.4826491255402565
1740247380535321300,11.7883212890625,-2.5133386194512246,11.675244900774954,-1.8501164102762937
1740247380545302300,11.79830224609375,-3.0737656400620934,11.320217995417117,-1.9237521398514508
1740247380555284200,11.8082841796875,-3.46210327886939,10.972777015143633,-1.7075684725165365
1740247380565265200,11.81826513671875,-3.648820613223314,10.701433770644664,-1.3426105402529238
1740247380575247400,11.828247314453124,-3.584263677638769,10.521921253103017,-1.136221121701598
1740247380585228300,11.838228271484375,-3.20404270979166,10.519158802652358,-1.1581553056120872
1740247380595210200,11.848210205078125,-2.63230665192008,10.567706852722168,-1.300110538175702
1740247380605191200,11.858191162109375,-2.0811935492299494,10.65138466836214,-1.428008603814244
1740247380615173000,11.868173095703124,-1.5591630409002304,10.688098488253354,-1.5969640715062616
1740247380625155300,11.8781552734375,-1.0160650484919547,10.582517468363045,-1.7398522010058164
1740247380635136000,11.888135986328125,-0.1660509784221649,10.438832635527849,-1.448253519463539
1740247380645118200,11.8981181640625,1.3924293409109114,10.7644043138206,-0.15102467420399188
1740247380655099100,11.90809912109375,3.2691537721276283,11.683114903497696,0.8474053488761186
1740247380665081300,11.918081298828126,4.283625413948298,12.139586751854418,-0.7324164491713047
1740247380675062300,11.928062255859375,4.260002546298503,11.160566362643241,-4.323502666306496
1740247380685044200,11.938044189453125,3.5852795766830443,9.652930679884552,-8.18583100565374
1740247380695025200,11.948025146484374,2.5245789753898977,8.41619283594489,-10.621728365767002
1740247380705007400,11.95800732421875,1.3937386699438095,7.331320793208479,-10.263057550948858
1740247380714988300,11.96798828125,0.5336719924151897,6.38527737544775,-6.996169385665655
1740247380724969500,11.977969482421875,0.40674072598218913,5.657105139717459,-1.6449357829928397
1740247380734950400,11.987950439453124,1.188589022320509,4.539507469943166,3.205965786808729
1740247380744932400,11.997932373046876,2.2245327834978696,2.882861375412345,5.325895747798681
1740247380754913300,12.007913330078125,2.0976757513448594,1.098730033827573,5.051043618395925
1740247380764895500,12.0178955078125,1.382006438834965,0.060938598956912754,2.883114473390579
1740247380774876400,12.02787646484375,1.0666516186520456,-0.19342888775654135,0.4799971008509397
1740247380784858400,12.0378583984375,1.039679440574348,-0.13981654003448785,-0.49114101067781446
1740247380794839300,12.04783935546875,1.044485671812296,0.19076310261338947,0.46292029384374617
1740247380804821500,12.057821533203125,1.005562651439011,0.7145075752541422,2.5573417195677757
1740247380814802400,12.067802490234374,0.8747428531348704,1.0675526591449975,4.724571191871166
1740247380824784600,12.07778466796875,0.5228757269822061,1.0463245776772498,6.1336997386485335
1740247380834765300,12.087765380859375,0.06096563309431076,0.6507330222189426,6.915685982152819
1740247380844747300,12.097747314453125,-0.11863427046984433,-0.15095774644762278,7.5507532332062715
1740247380854728400,12.107728515625,0.33069691235199566,-1.241830783164501,8.120155295172333
1740247380864710400,12.11771044921875,1.0733705516435206,-2.0226506132379174,8.405833939015865
1740247380874691600,12.127691650390625,1.5958476346969603,-2.2933669580101967,8.721713075333833
1740247380884673300,12.13767333984375,1.5369639224432408,-2.3657930195346473,9.126696143993735
1740247380894654500,12.147654541015624,1.1040576585911213,-2.730866394871473,9.647323361396788
1740247380904636400,12.157636474609374,0.90463997874856,-3.358840472793579,10.621644194614886
1740247380914617300,12.167617431640625,1.1626609464682638,-4.065025333121419,12.0207838468194
1740247380924599300,12.177599365234375,1.6802748073995113,-4.7253883534729475,13.483041341716051
1740247380934580200,12.187580322265624,2.2696493978142738,-5.233309818559885,14.377721067464352
1740247380944562400,12.1975625,2.5930045691013333,-5.78179768731296,14.50290110631585
1740247380954543400,12.20754345703125,2.5872458594441414,-6.700920364922284,13.905270728731155
1740247380964525600,12.217525634765625,2.31340422225818,-7.8525676038146015,13.304647599071263
1740247380974506500,12.227506591796875,1.8517147853836415,-8.852648901233076,12.888473858833311
1740247380984487400,12.2374873046875,1.2717092040777205,-9.451050263190268,12.624752779775857
1740247380994469400,12.247469482421875,0.8068330999910831,-9.697780459958315,12.447459107327461
1740247381004450300,12.2574501953125,0.5535948365032672,-9.899579628109931,11.933149987030028
1740247381014432500,12.2674326171875,0.6545413284607231,-10.15072296514511,10.970220316398143
1740247381024413400,12.277413330078126,0.9504454521119594,-10.30473629977107,9.970442385840416
1740247381034395400,12.2873955078125,1.2427879377588629,-9.8242534612298,9.14492621268928
1740247381044376300,12.297376220703125,1.4930126986443994,-8.61209184014201,8.647835938218236
1740247381054358500,12.307358642578125,1.685664976005256,-7.210593057590723,8.185179263746738
1740247381064339500,12.31733935546875,1.630344509191066,-6.2350540807545185,7.627208111855388
1740247381074321400,12.3273212890625,1.3121696631513535,-5.732713046148419,6.9673232304096215
1740247381084302300,12.33730224609375,0.811764418913424,-5.501929775574803,6.276363411742448
1740247381094284500,12.347284423828125,0.23051672859191893,-5.112124402302503,5.9754281620562075
1740247381104265500,12.357265380859374,-0.3981351024612784,-4.419918967488408,6.385827995067834
1740247381114247400,12.367247314453126,-0.9929486690595746,-3.5541496944040056,7.331845693865418
1740247381124228400,12.377228271484375,-1.3563202089145778,-2.6346651977449653,8.324925003567337
1740247381134210300,12.387210205078125,-1.4537190913930536,-1.7630740866392849,8.783437417840958
1740247381144191500,12.39719140625,-1.383828685826063,-0.9372887411579489,8.563298875400424
1740247381154173400,12.40717333984375,-1.337632459579408,-0.2818503177270293,7.742873303386569
1740247381164154600,12.417154541015625,-1.3666916730642318,0.13599018667936325,6.517429006877541
1740247381174136300,12.42713623046875,-1.4363245967388152,0.37197979372441764,5.166154098653793
1740247381184117200,12.4371171875,-1.492261880277097,0.4721434647411108,4.1582162425160405
1740247381194099500,12.447099365234376,-1.412743814665079,0.5456678428962827,3.477659744441509
1740247381204080400,12.457080322265625,-1.1343290243446826,0.7460448692902922,2.8255501731723545
1740247381214062300,12.467062255859375,-0.9158899792984128,1.0227473027348517,2.239782667338848
1740247381224043300,12.477043212890624,-0.812309923966974,1.331479782168567,1.7060352715998888
1740247381234025500,12.487025390625,-0.6457822679437697,1.6779959026820956,1.1907803948849438
1740247381244006400,12.49700634765625,-0.49689606707319617,2.0467009125195443,0.7832692690521478
1740247381253988600,12.506988525390625,-0.3916542160093784,2.3939419863067566,0.4298153120994568
1740247381263969500,12.516969482421874,-0.30836686099171634,2.751887555590272,0.12216098329126834
1740247381273951500,12.526951416015624,-0.31058585221543905,3.124280606290698,-0.12422259199619293
1740247381283933400,12.536933349609376,-0.37266543790102,3.515068560859561,-0.28070962325930593
1740247381293914400,12.546914306640625,-0.4092738977216184,3.9022298493638634,-0.3632984746187925
1740247381303896300,12.556896240234375,-0.4453893133282661,4.3578745992466805,-0.40611645660400386
1740247381313877200,12.566877197265624,-0.42235345178619027,4.801951953193545,-0.39971301930248737
1740247381323859500,12.576859375,-0.3909771935306489,5.34602083646059,-0.33506723639070984
1740247381333840400,12.58684033203125,-0.3857552210986614,5.917445928686857,-0.34612580602169035
1740247381343822600,12.596822509765625,-0.40182957306504247,6.451110906839371,-0.26500994982421394
1740247381353803500,12.606803466796874,-0.34896176009997726,6.929633258962631,0.04139525570571422
1740247381363785500,12.616785400390626,-0.27268501449674365,7.409653156167268,0.4992874922543764
1740247381373766400,12.626766357421875,-0.09699906950592994,7.866572748291492,0.8645242414593696
1740247381383748600,12.63674853515625,0.09281535408049821,8.287160797840356,1.1388169834136963
1740247381393729500,12.6467294921875,0.23047405849397182,8.766566947060824,1.6515817968785762
1740247381403711200,12.656711181640626,0.3511385196171701,9.346649977517128,2.102734496039152
1740247381413692400,12.6666923828125,0.3976245225906372,9.899532866358756,2.392707037684321
1740247381423674400,12.67667431640625,0.27958456475213167,10.320187551403045,2.5680840628564354
1740247381433655600,12.686655517578124,0.09442541962563991,10.657127011406422,2.7587235390901563
1740247381443637200,12.69663720703125,-0.12895868060737847,11.042039351940154,3.0943595152795313
1740247381453618400,12.706618408203125,-0.41971915775984525,11.384783114308117,3.2917432050764557
1740247381463600400,12.716600341796875,-0.7148758240446448,11.694569194447993,3.260288913148641
1740247381473581300,12.726581298828124,-0.9930041986390947,12.097708096545935,3.061746116444468
1740247381483563500,12.7365634765625,-1.1602902718141674,12.68970368311405,2.6886247514694928
1740247381493544400,12.74654443359375,-1.2316788069844244,13.34040747923851,2.0641110431343317
1740247381503526400,12.7565263671875,-1.3504054319128393,13.734094662380217,0.9706734166264533
1740247381513507300,12.76650732421875,-1.494144040761888,13.759979629743098,-0.5629208832532168
