time,seconds_elapsed,z,y,x
1740007286855074800,0.02907470703125,-0.6665034228026867,-0.16456760799661277,2.9383026921272277
1740007286865056800,0.039056884765625,0.09055179306268692,0.23255013411566614,3.309045053011179
1740007286875039000,0.0490390625,0.8244540968775749,0.5258519663140178,3.3247230991363526
1740007286885020700,0.059020751953125,1.4491454998672009,0.710867465186119,2.8932886614024635
1740007286895003000,0.0690029296875,2.4155326174765825,1.4297627540051936,2.400372750006616
1740007286904985600,0.078985595703125,3.51057592561543,2.1428129700578746,2.2564657988533376
1740007286914967800,0.0889677734375,3.3771588042944667,1.3350905200116336,0.8965838058039546
1740007286924949800,0.09894970703125,4.173133825662732,1.9674109565749762,0.011407821460068225
1740007286934931700,0.108931640625,4.813492168861627,2.7882351725175973,0.28059564149081706
1740007286944914000,0.118913818359375,5.286822797560691,3.0820138284474607,-0.25215865155756473
1740007286954895600,0.1288955078125,5.315221209049224,3.216820358300209,-0.17274200049340724
1740007286964877800,0.1388779296875,4.818830022758245,3.768621589384973,0.1034343632504344
1740007286974859800,0.14885986328125,4.343250153827667,4.069651823878288,0.13906068016588688
1740007286984841700,0.158841796875,3.7156338033020493,4.230168256787955,0.48114977801740166
1740007286994823700,0.16882373046875,3.4296137986749407,4.630263261145353,0.7598486459761857
1740007287004806000,0.178805908203125,3.4691000058889387,5.057012171411514,1.1066524973899126
1740007287014787600,0.18878759765625,3.764054427599907,5.4576165865957735,1.146467790427804
1740007287024769800,0.198769775390625,4.0282174052059645,5.562528328922391,0.7814929070293903
1740007287034752000,0.208751953125,4.2203631943494075,5.440451516783237,0.317903335621953
1740007287044733700,0.218733642578125,2.8731004443764685,5.037687293216586,0.9779173964053391
1740007287054716000,0.2287158203125,3.8488714764028784,5.962233164918422,0.10437398218810558
1740007287064697900,0.23869775390625,6.742014591854811,6.5404457253277295,0.3887058875977993
1740007287074679800,0.2486796875,5.606621737670898,6.365367975363135,0.3535854743778705
1740007287084662800,0.258662841796875,4.539641909977793,5.970802255821227,0.009701309803128243
1740007287094644700,0.268644775390625,4.241773646646738,5.467632953697443,0.2912193268358707
1740007287104627000,0.278626953125,3.4325445914298296,5.183106402498483,1.2735720753401518
1740007287114608600,0.288608642578125,1.9690368042111395,5.007014507055282,2.3454519500344992
1740007287124590800,0.2985908203125,0.38837943212240933,4.599150914523006,3.496486609986424
1740007287134572800,0.30857275390625,-0.6386567999780177,4.165419890284538,4.344223382773995
1740007287144554800,0.3185546875,-1.1429621203944087,3.687625852435827,4.718440141770244
1740007287154536700,0.32853662109375,-1.2134037301033735,3.178783765372634,4.407037858605385
1740007287164519000,0.338518798828125,-0.9586308043941855,2.8785724460467694,3.760426300230622
1740007287174500600,0.34850048828125,-0.533089516352117,2.810300873853266,3.1730566198974848
1740007287184482800,0.35848291015625,-0.7326257080078125,2.8617010984838007,2.8018571628957987
1740007287194464800,0.36846484375,-1.3862450993180273,2.9011636325612664,2.110069076710939
1740007287204446700,0.37844677734375,-3.172735132858157,2.53301391851902,2.305740701892972
1740007287214428700,0.3884287109375,-5.096846169149876,2.1332523838996886,2.9018770415276287
1740007287224411000,0.398410888671875,-6.092119189503789,1.918056996949762,3.0712527804583307
1740007287234392800,0.408392822265625,-6.942696154153347,1.5839502761542796,2.9211650948435066
1740007287244376000,0.4183759765625,-7.62009857211113,1.0599912839800119,2.4719559309661387
1740007287254357800,0.428357666015625,-7.8130913334727286,0.5601825443305075,1.8092951550662517
1740007287264340000,0.438340087890625,-7.832693859565258,0.15126505883112548,1.2535258971333503
1740007287274322000,0.448322021484375,-7.872229751139879,-0.2597331784650683,1.033129580539465
1740007287284304000,0.458303955078125,-7.899366764390468,-0.5059855285882949,1.4585393511563538
1740007287294285800,0.468285888671875,-8.04423700761795,-0.6718894997552037,2.8541344626218077
1740007287304267800,0.478267822265625,-8.059365603166817,-0.996366368548572,3.712700672459602
1740007287314249700,0.488249755859375,-7.622852839255333,-0.9089081575870513,3.979910178154707
1740007287324232000,0.49823193359375,-7.062302192264795,-0.7865630499005317,3.885879895326495
1740007287334214000,0.5082138671875,-6.412367626947164,-0.9733905666306615,3.613853929260373
1740007287344195800,0.51819580078125,-5.657939252454042,-1.2608984717279672,3.3909827469855545
1740007287354178000,0.528177978515625,-5.020474877130985,-1.420114343433082,3.725696347633004
1740007287364159700,0.53815966796875,-4.592655122762918,-1.4531272629797458,4.416219528448582
1740007287374142000,0.548141845703125,-4.177145399391651,-1.6371461520299315,4.86837468264997
1740007287384124000,0.5581240234375,-3.9264708489120004,-1.9379466694205998,4.866994626468419
1740007287394105900,0.56810595703125,-3.93861253760457,-2.2917685829028485,5.616631675031781
1740007287404087800,0.578087890625,-3.9963130314230915,-2.552917181123793,6.66748980448544
1740007287414070000,0.588070068359375,-3.942529126526415,-2.8830291331946847,7.186486205816268
1740007287424053000,0.598052978515625,-4.155481849116087,-3.508371109047532,7.389075063040852
1740007287434035000,0.608034912109375,-4.607916989302635,-4.224162002110481,7.626576243692636
1740007287444017000,0.618016845703125,-5.255170937234163,-4.851929451544582,8.036094033172725
1740007287453998800,0.627998779296875,-5.865488946956396,-6.17958587603271,8.387120470717548
1740007287463980800,0.637980712890625,-6.246570331025123,-7.808030542951822,8.715773163890837
1740007287473962800,0.647962646484375,-6.494487107229232,-9.511188797810673,8.670173442232608
1740007287483945000,0.657945068359375,-6.874702229857444,-10.954756205284594,8.230078143659233
1740007287493926700,0.6679267578125,-7.065121925860643,-11.99165361392498,7.3195882698386905
1740007287503908900,0.677908935546875,-6.616604251378774,-12.516152119803428,6.4719900287389756
1740007287513891000,0.68789111328125,-5.8841351952373975,-12.326907312798498,5.770211294415593
1740007287523872800,0.697872802734375,-4.8921688152134415,-10.809310792517662,5.991803542795777
1740007287533855000,0.70785498046875,-3.4249615889549254,-8.994707594171166,6.473194143831729
1740007287543837000,0.7178369140625,-2.2915555246740578,-7.836300359624624,6.573617342567443
1740007287553819000,0.72781884765625,-1.2054098087400198,-6.975904596272111,6.175476102626323
1740007287563800800,0.73780078125,-0.34424890623390675,-5.996377426582574,5.765414123266935
1740007287573783000,0.747782958984375,0.4126373828053474,-5.060857740923762,5.498318014818429
1740007287583764700,0.7577646484375,1.070043964504078,-4.217645752084255,5.390585954374075
1740007287593748000,0.767748046875,1.6090929007172583,-3.527159103886783,5.296667899748683
1740007287603730000,0.77772998046875,1.9704343960493802,-3.1538629668667912,4.930222943797707
1740007287613712000,0.7877119140625,2.132028395062685,-3.175618287079036,4.842802434498071
1740007287623693800,0.79769384765625,2.3570126239687204,-3.3467467148959633,4.957671507215499
1740007287633675800,0.80767578125,2.9995290219843387,-2.8427620047360658,5.262800116938353
1740007287643658000,0.817657958984375,3.490895658111572,-1.7541531135588884,5.745764250901341
1740007287653639700,0.8276396484375,3.80280355271101,-0.40108080052435396,6.00017155816853
1740007287663622000,0.837621826171875,3.8383196872502565,0.6688521778859198,5.081142404061556
1740007287673603800,0.847603759765625,3.1382264217957854,0.9830563667289912,3.2711201037645337
1740007287683585800,0.857585693359375,2.4994945107549427,0.8349222993999719,1.66517076177001
1740007287693567700,0.867567626953125,1.675437304240465,0.9472264900654553,0.4761427635103464
1740007287703550000,0.877550048828125,0.874385710260272,1.157983675372228,-0.2544768653720617
1740007287713532000,0.887531982421875,0.30159926655292507,1.5245406403303146,-0.3439823642522096
1740007287723513900,0.897513916015625,0.14840850035622716,1.9933865248307585,0.2104582754254341
1740007287733496000,0.90749609375,0.07603110027909278,2.2981274504102767,0.9759545718997716
1740007287743477800,0.917477783203125,0.16993658768385647,2.3666972748979926,1.529941038069129
1740007287753461000,0.9274609375,0.6633429129451512,2.6135639575272798,1.556727922707796
1740007287763442700,0.937442626953125,1.2903054757371544,2.872290004776418,1.4773480965226888
1740007287773425000,0.9474248046875,1.7284920180797576,3.0195810454100367,0.9845300925433635
1740007287783406800,0.95740673828125,2.04448484390527,3.294298734778166,0.35334932753443715
1740007287793388800,0.967388916015625,2.568252405160665,3.730545541229844,0.05785480759739876
1740007287803371000,0.97737109375,2.9837717731431126,3.9539328563332554,0.17406594257354735
1740007287813352700,0.987352783203125,3.333407340851426,4.02447763415575,0.28077333614528177
1740007287823335000,0.9973349609375,3.716058166193962,4.184293517580628,0.17450608755648134
1740007287833316900,1.00731689453125,4.028537723201513,4.42558356912136,0.007674772411584854
1740007287843298800,1.017298828125,4.184717588211596,4.708875902350247,-0.25409458805620666
1740007287853280800,1.02728076171875,4.282624127951264,5.064047476875782,-0.36685996649265284
1740007287863263000,1.037262939453125,4.217114129425585,5.555237587392329,-0.03725450263917446
1740007287873244700,1.04724462890625,3.815908825738728,6.0899231407642365,0.8462579324066638
1740007287883227000,1.057226806640625,3.1091537643074987,6.579824965035915,1.9700994650065897
1740007287893209000,1.067208984375,2.4067390701681375,6.76245473781526,2.6827111435115336
1740007287903190800,1.077190673828125,2.3097452613592147,6.90921415579021,2.509233229959011
1740007287913174000,1.087174072265625,2.4595050301939247,7.2108262818247075,2.208836909455061
1740007287923155700,1.09715576171875,2.772665555202961,7.320025492212176,1.8843764072746036
1740007287933138000,1.107137939453125,3.4387089592784643,7.711767971026897,1.6057546962052582
1740007287943120000,1.117119873046875,4.021787079897523,8.40196206601858,2.022196147468686
1740007287953101800,1.127101806640625,4.273012249997258,9.084371498483419,2.750068523469567
1740007287963084000,1.137083984375,4.482922828412056,9.50640156353414,2.9363182403117416
1740007287973065700,1.147065673828125,4.607252972435951,9.728826755607127,2.577346981242299
1740007287983048000,1.1570478515625,4.52827120565772,9.586453589892386,2.0881489213258027
1740007287993030000,1.16702978515625,3.9376165123045443,8.768923739320039,1.3762240560412407
1740007288003011800,1.17701171875,3.154121617802977,7.481532981985807,0.5046586638987064
1740007288012993800,1.186993896484375,2.590536133161187,6.504307074975967,-0.18085925597548483
1740007288022976000,1.19697607421875,2.5610814906179904,6.121675538855791,-0.39939094774127004
1740007288032957700,1.206957763671875,2.8098855710506436,6.152417883121967,-0.12369827586114406
1740007288042940000,1.21693994140625,3.0335557947486635,6.334348567721247,0.3526362108290195
1740007288052921900,1.226921875,2.938449407121539,6.460817477339506,0.9192886818259954
1740007288062903800,1.23690380859375,2.589713710862398,6.4301020210802555,1.2914607832521199
1740007288072887000,1.246886962890625,2.0229449200093743,6.243717864203453,1.3850965138047933
1740007288082868700,1.25686865234375,1.1374559241935611,5.976854395467043,1.5555302373558282
1740007288092851000,1.266850830078125,0.07928338007330894,5.845681253680587,1.7896049506902694
1740007288102833000,1.2768330078125,-0.7410165197342634,5.836136595743894,1.9559037663936614
1740007288112814800,1.28681494140625,-1.1903472641646862,6.011376258271932,2.2310908268392087
1740007288122796800,1.296796875,-1.3325228614807128,6.331940922057628,2.628600783139467
1740007288132779000,1.306779052734375,-0.9577116437226534,6.700559130394458,2.628748082655668
1740007288142760700,1.3167607421875,-0.4189160246834159,6.736225487059355,1.9262603232800959
1740007288152743000,1.326742919921875,0.2616220609515905,6.058091832217574,0.10006196420788764
1740007288162724900,1.336724853515625,1.7671283304661511,4.90546961081326,-2.636868845269084
1740007288172706800,1.346706787109375,1.0659494617320597,4.420588829573989,-3.5380665746092794
1740007288182689000,1.35668896484375,0.7861948011100292,4.18251832460165,-3.4851340258449315
1740007288192670700,1.366670654296875,0.16712825226485728,3.644559448647499,-2.0690303793579337
1740007288202653000,1.37665283203125,-0.5517289695661515,2.779025153362751,-0.7726087588280439
1740007288212635000,1.386634765625,-0.8948205224584788,1.9356664495289324,0.05246376220881939
1740007288222616800,1.396616943359375,-0.4880739512573927,1.5460872862279413,0.4375345081746578
1740007288232598800,1.406598876953125,0.33204467369914054,1.1771354620225727,-0.10268822105824947
1740007288242582000,1.41658203125,1.171400498567149,0.6427182772632688,-1.386883397221565
1740007288252564000,1.42656396484375,1.8163187700927257,0.25641996226385233,-2.4009347678035495
1740007288262546200,1.436546142578125,2.2475831119567156,0.05563903124406933,-2.849652348771691
1740007288272528000,1.44652783203125,2.465450202333927,-0.16133644405566155,-2.873168833437562
1740007288282510000,1.456510009765625,2.4525194090902804,-0.378007821842283,-2.600662974900007
1740007288292492000,1.466491943359375,2.023302647405863,-0.6989958256065845,-2.1576859834104773
1740007288302474000,1.476473876953125,1.5770090787142514,-1.1477069768339394,-1.5864105287879704
1740007288312456200,1.486456298828125,1.2563736877799034,-1.475606367421895,-1.273907006382942
1740007288322438000,1.49643798828125,0.9535532819341868,-1.5102186849892139,-1.064037929022312
1740007288332420000,1.506420166015625,0.7745962063182145,-1.6429589299619196,-0.9536603225052356
1740007288342402000,1.516402099609375,0.7127035215068608,-1.7178677482128142,-0.9173959999471902
1740007288352384000,1.526384033203125,0.7967326348025351,-1.6306763714939354,-0.28290508747696874
1740007288362366000,1.536365966796875,0.7642080102294683,-1.5141075091212988,0.5072743993550539
1740007288372348200,1.54634814453125,0.5754161346238106,-1.4347794131234288,1.8958593397974968
1740007288382329900,1.556329833984375,0.40503859823942184,-1.33444886110723,3.6454724718391893
1740007288392312000,1.56631201171875,0.06892508593248203,-1.3608712963476777,5.379183101350069
1740007288402295000,1.576294921875,-0.27154081289768217,-1.3075973867997526,7.069767705839872
1740007288412277000,1.586277099609375,-0.31168343819379807,-1.4904618451178073,8.827273052436112
1740007288422259200,1.59625927734375,-0.1984159554541111,-1.7278963902741669,10.393872380816935
1740007288432241000,1.606240966796875,-0.2937946572165936,-2.0791694960564375,11.772593514370918
1740007288442223000,1.61622314453125,-0.702699429364875,-2.8248481623828408,12.740059074866771
1740007288452205000,1.626205078125,-1.3298634330131114,-3.8807834489703175,13.214085284614562
1740007288462187000,1.63618701171875,-2.090300546401739,-5.162125573790073,13.663259961700438
1740007288472169000,1.6461689453125,-2.942050646483898,-6.591831629171967,14.248843343138693
1740007288482151000,1.65615087890625,-3.731791157376766,-8.044623961108922,14.736882880669832
1740007288492133000,1.666133056640625,-4.288683866381645,-9.288328136929868,15.094655869865417
1740007288502115000,1.676114990234375,-4.47375810970366,-9.777736040204763,15.53885743471384
1740007288512097000,1.686096923828125,-4.362988288998603,-9.128244542479514,16.651499527907372
1740007288522079000,1.696078857421875,-4.528839068673551,-8.22881791446507,16.926733350104094
1740007288532061200,1.706061279296875,-4.793946633653342,-8.22831347207427,15.557677870517969
1740007288542043000,1.71604296875,-4.679908166541159,-8.723692850974201,13.595287080192564
1740007288552025000,1.726025146484375,-4.495518106091022,-8.976034457883237,11.345927606213092
1740007288562008000,1.736008056640625,-4.851867199963331,-9.354050024640559,9.12133315565586
1740007288571990000,1.745989990234375,-5.131624052542448,-9.702664724868535,7.289259767070412
1740007288581972200,1.75597216796875,-5.288922400188445,-9.517359595400094,6.339464303299784
1740007288591954000,1.765953857421875,-5.099474179565906,-8.62046862334311,6.421809993553161
1740007288601936100,1.77593603515625,-4.761771041713654,-7.374144620412587,7.217929391828179
1740007288611918000,1.78591796875,-4.667353513133525,-6.375824487447738,7.827471741002798
1740007288621900000,1.795900146484375,-4.594688089895248,-5.442592620465159,8.232426168090104
1740007288631882000,1.805882080078125,-4.339416859275103,-4.313528384780883,8.58667449029088
1740007288641864000,1.815864013671875,-3.7044402091145514,-3.0138790343761444,8.46179606473446
1740007288651846000,1.825845947265625,-2.8272400259554384,-1.8866107421979308,7.767979687592387
1740007288661828000,1.835828125,-2.2248305974006652,-1.1206216937705873,6.713292355239391
1740007288671810000,1.84581005859375,-1.7836837439477442,-0.7281570381611585,5.78097701857984
1740007288681792000,1.8557919921875,-1.04939455970712,-0.5640338129311799,5.171374463650584
1740007288691774200,1.865774169921875,-0.2249368095677346,-0.20673077933490275,4.829463060453534
1740007288701756000,1.875755859375,0.27013094609975813,0.26665099502950906,4.238441287353635
1740007288711738000,1.885738037109375,0.45766438260953873,0.5900692946806549,3.2573440918684002
1740007288721720000,1.895719970703125,0.20460251686824485,0.8276582997463643,2.2260288672745228
1740007288731703000,1.905703125,-0.19871406161785124,1.0428608470894396,1.5755840143471955
1740007288741685000,1.91568505859375,0.004283371841046027,1.383656397999078,1.352861885154247
1740007288751667000,1.9256669921875,0.19745909312069415,1.7896674945324658,1.357840258088708
1740007288761649200,1.935649169921875,0.2701198401838541,2.219005252248049,1.4189906001001595
1740007288771631000,1.945631103515625,0.26268004557192326,2.722231837517023,1.4225480003207922
1740007288781613000,1.955613037109375,0.4511228520115837,3.226016348929703,1.4854852257490156
1740007288791595000,1.965594970703125,0.5877993039220571,3.6996371927469967,1.2617284928113222
1740007288801577200,1.9755771484375,0.657621612688899,4.21508028551042,0.8406190497368574
1740007288811559000,1.985558837890625,0.6154401750415563,4.697899750305712,0.6506032583594322
1740007288821541000,1.995541015625,0.661581163969636,5.214551342076063,0.6865694747537374
1740007288831522800,2.005522705078125,0.6392243707329034,5.76760608035326,0.8304922079980372
1740007288841505000,2.015505126953125,0.6109802730232476,6.316235987925529,0.9569365676969289
1740007288851487000,2.025487060546875,0.639848055589199,6.862230286297201,0.9447925409168004
1740007288861469000,2.035468994140625,0.842988116955757,7.35369862923324,0.9411854563355445
1740007288871451100,2.045451171875,1.2229495570838451,7.775698883667588,1.1294734010070562
1740007288881433000,2.05543310546875,1.5566063421547411,8.144972341042756,1.2845534880816936
1740007288891416000,2.065416015625,1.976180830746889,8.616388660553097,1.2812065157413481
1740007288901398000,2.07539794921875,2.3720330829679965,9.15854148106575,1.1735054349571465
1740007288911380000,2.0853798828125,2.5509505572259425,9.678791097328066,1.2004518940716982
1740007288921362000,2.09536181640625,2.3734078784525394,9.972605116832256,1.4127256944864988
1740007288931344100,2.10534423828125,2.0381062487840653,9.989179819536208,1.756540885478258
1740007288941326000,2.115326171875,1.581448522466421,9.869807590180635,2.4189888954102994
1740007288951308000,2.12530810546875,1.1359446428477764,9.767357269531487,3.240255594423413
1740007288961290200,2.135290283203125,0.7251110945940017,9.778801039087773,3.872499604749679
1740007288971272000,2.14527197265625,0.34748540393710137,9.913397725582122,4.112269899377226
1740007288981254100,2.155254150390625,0.09569090951681136,10.231238517361879,4.104909599742293
1740007288991236000,2.165236083984375,-0.031004794594645498,10.734482638287544,4.004090095165371
1740007289001218000,2.175218017578125,-0.03542555191265419,11.159705946421623,3.536108426278829
1740007289011200000,2.185199951171875,-0.07551847458183765,11.182962903368473,2.599120421633124
1740007289021182000,2.195181884765625,-0.0839256529211998,11.029424200516939,1.480264276230335
1740007289031164000,2.205163818359375,0.007849544456601142,10.985288121670484,0.4872206223636865
1740007289041146000,2.21514599609375,0.16747253565788267,10.890748720276354,-0.39988603778183457
1740007289051129000,2.225129150390625,0.2628957341492176,10.584552773582935,-1.1391676965475082
1740007289061111000,2.235111083984375,0.3700263581017032,10.24262851090431,-1.5775369019806385
1740007289071093000,2.245093017578125,0.44342418726775795,10.028796375131606,-1.4725725526839495
1740007289081075000,2.255074951171875,0.552401827326417,9.935541752851009,-0.9771639476895332
1740007289091057200,2.26505712890625,0.7091781969249248,9.763564891511201,-0.37947102626264095
1740007289101038800,2.275038818359375,0.8905898260861634,9.526893147420882,0.10684124908447265
1740007289111021000,2.28502099609375,1.0766203472197056,9.262324511623381,0.6859376065909862
1740007289121003300,2.295003173828125,1.121961710202694,8.96562353850603,1.4249158984959125
1740007289130985000,2.30498486328125,1.1406862844169139,8.630827520272135,1.987189716017246
1740007289140967200,2.31496728515625,1.0110334840655326,8.199436337158083,2.2820284023940562
1740007289150949000,2.32494921875,0.8951870907485484,7.7136840337812895,2.4309411990106105
1740007289160931000,2.33493115234375,0.7698340334177016,7.198304069381952,2.578917591559887
1740007289170913000,2.3449130859375,0.6582452975451946,6.567490968641638,2.6123230175554752
1740007289180895000,2.35489501953125,0.45991468228697774,5.821314874187111,2.5326976921766997
1740007289190877000,2.364876953125,0.15587331981156022,5.051819863465428,2.1625521281421185
1740007289200860000,2.37485986328125,-0.16971472509410232,4.332023241892457,1.381008952230215
1740007289210842000,2.384842041015625,-0.4650140147199854,3.7517432275593277,0.4963070151388645
1740007289220824000,2.394823974609375,-0.754240158444643,3.282787160682678,-0.3572650396734476
1740007289230806000,2.404805908203125,-0.8989467355430125,2.828403224515915,-1.098107956406474
1740007289240788200,2.414788330078125,-1.020467667365074,2.376998596420884,-1.6620879933238029
1740007289250770200,2.424770263671875,-1.2469886043190956,1.9569833783239126,-1.9063035769224166
1740007289260752100,2.434752197265625,-1.3999813637256622,1.6070105414852498,-1.7835007885962724
1740007289270734000,2.444734130859375,-1.2785223912239074,1.1740024977590888,-1.607306601822376
1740007289280716300,2.45471630859375,-1.0432008926987648,0.5865419973373412,-1.4264876778572797
1740007289290698000,2.464697998046875,-1.20857967094779,0.0016502514250576496,-0.9577046294599771
1740007289300680200,2.47468017578125,-1.2701181354939937,-0.3959931219965219,-0.5246650946170092
1740007289310662100,2.484662109375,-1.3215467094361781,-0.8059351282380521,-0.13886486533284187
1740007289320644000,2.49464404296875,-1.327179162365198,-1.2091259066537021,0.3212923935383558
1740007289330626000,2.5046259765625,-1.134715904770419,-1.4274536002799867,0.6781710642427206
1740007289340608000,2.51460791015625,-1.0024117131274193,-1.4741782343149183,1.0035375753521918
1740007289350590200,2.524590087890625,-0.9598163609169423,-1.562011123807728,1.5175339764386415
1740007289360573000,2.534572998046875,-0.9016180736441165,-1.695031354765594,2.212403077504039
1740007289370555100,2.54455517578125,-0.8502713327664881,-1.8331167601585387,2.919002948373556
1740007289380537000,2.554537109375,-0.9435504319012165,-2.0913909719869492,4.062217874485254
1740007289390519000,2.56451904296875,-1.1754980700790882,-2.227591294285655,5.563413295063376
1740007289400501000,2.5745009765625,-1.6005867920480668,-2.2944734579473733,7.103940609076619
1740007289410483200,2.584483154296875,-2.323511920905113,-2.4899644658654925,8.611091723188757
1740007289420465200,2.594465087890625,-3.2711575131654738,-2.8464550140351057,9.87116134287715
1740007289430447000,2.604447021484375,-4.034292925727367,-4.085293045124411,10.856872169637679
1740007289440429300,2.61442919921875,-4.154706773090362,-6.072537706199288,12.011377720570563
1740007289450411000,2.624410888671875,-3.7007904544353485,-7.481157134410738,13.060666993272303
1740007289460393200,2.634393310546875,-3.1165748542189595,-8.723616863128543,13.643408429282903
1740007289470375200,2.644375244140625,-3.001892828506231,-9.744159933817386,14.325581714904308
1740007289480357000,2.654357177734375,-2.982150017160177,-10.286150841766595,15.810875217473505
1740007289490339000,2.664339111328125,-2.8689024081647396,-10.051288777446747,17.62669246778488
1740007289500321000,2.674321044921875,-2.8410779971718787,-8.925896508273482,18.34265111863017
1740007289510304300,2.68430419921875,-2.785369553953409,-7.938913177359104,17.063098799836634
1740007289520286200,2.6942861328125,-2.826722139561176,-7.6156532831400625,14.35549169999957
1740007289530268200,2.70426806640625,-2.9737153662919997,-7.7656182191580525,11.458714611959456
1740007289540250000,2.71425,-2.8503216263353823,-8.023027630850672,9.117564158511161
1740007289550232000,2.724232177734375,-2.5334406194984913,-8.463425711762905,7.682765748426318
1740007289560214000,2.734214111328125,-2.2133706073619424,-8.70260096310675,7.085222464603185
1740007289570196200,2.7441962890625,-2.108467486733198,-8.743177888166905,7.181620061084628
1740007289580178000,2.754177978515625,-1.9285551562190055,-8.753938351634144,7.33497580858469
1740007289590160100,2.76416015625,-1.653210274863243,-8.637614403933286,7.352692082539201
1740007289600142000,2.77414208984375,-1.402650290673971,-8.056946267065406,7.501951500636339
1740007289610124000,2.7841240234375,-1.1335901886761188,-7.108049213439226,7.47186674349606
1740007289620106200,2.794106201171875,-0.8250631686866283,-6.031118485096097,7.224769466981291
1740007289630088200,2.804088134765625,-0.5102104528069495,-4.8583466251105065,6.9576973239302635
1740007289640070100,2.814070068359375,-0.1936848170126788,-3.639694472959637,6.6005030114054675
1740007289650052000,2.824052001953125,0.01049803140508011,-2.6402017890840765,6.021988253179193
1740007289660034300,2.834034423828125,0.10942015966176986,-1.8728057964682578,5.25575370555818
1740007289670017000,2.84401708984375,0.08976736468672752,-1.2361471845701335,4.571192648017406
1740007289679999200,2.853999267578125,0.051317514783143996,-0.7892363607630133,3.9681373227745294
1740007289689981200,2.863981201171875,0.22279227181971073,-0.6898252616792917,3.367607716616988
1740007289699963100,2.873963134765625,0.6722177087962627,-0.8672051511064172,2.995599865841865
1740007289709945000,2.883945068359375,1.2573247048944234,-0.8613046948909759,2.954585718408227
1740007289719927000,2.893927001953125,1.8357278194397686,-0.7086380986988544,2.8030881659954785
1740007289729909200,2.9039091796875,2.129821824929118,-0.6541966066762804,2.526003747496009
1740007289739891000,2.913890869140625,2.3640911840528247,-0.5702390973120928,2.2714614156723023
1740007289749873200,2.923873046875,2.365146246063709,-0.1773775513395667,2.1256284648925066
1740007289759855000,2.933855224609375,2.117624606657028,0.003691255733370781,1.5850614522665738
1740007289769837000,2.943837158203125,1.873090458628535,0.10940379304885864,1.1477923170298336
1740007289779819000,2.953819091796875,1.2134914814520628,0.9458277291834354,1.5790864695101976
1740007289789801200,2.96380126953125,0.5378934095025062,1.7322215599969029,2.0729455069750546
1740007289799783200,2.973783203125,0.08504033616483211,2.7047949650257825,2.4828929200440646
1740007289809765000,2.98376513671875,-0.2624420720975846,3.878896612310409,2.8300691119015213
1740007289819748000,2.993748046875,-0.4018593106161803,5.099751827463507,2.80616275113523
1740007289829730000,3.00372998046875,-0.5568249044656753,6.111266957566142,2.4858342341929673
1740007289839712300,3.013712158203125,-0.8289286850083619,6.825200824585557,1.947262194776535
1740007289849694000,3.02369384765625,-0.8804951330512761,7.321386843693256,1.344059570017457
1740007289859676200,3.03367626953125,-0.4842552697520703,7.837106415310502,1.0403478413552045
1740007289869658000,3.043658203125,-0.012577742022275924,8.394310089960694,1.0689975972563028
1740007289879640000,3.05364013671875,0.39936654395237564,8.93119695276916,1.1684563348740338
1740007289889622300,3.063622314453125,0.9360328958779572,9.439891740316153,1.1289672050505877
1740007289899604000,3.07360400390625,1.2888678441494703,9.986626627922057,1.0878303080201148
1740007289909586200,3.083586181640625,1.5196072755813599,10.531319196045398,1.0839438219755888
1740007289919568100,3.093568115234375,1.6734527062945066,11.00346090722084,1.0429156460165976
1740007289929550000,3.103550048828125,1.7305226471245287,11.510876176351308,1.0660147820532322
1740007289939532000,3.113531982421875,1.682958931916952,12.104051328092813,1.1264233657866716
1740007289949514200,3.12351416015625,1.5096991911597548,12.596208237814903,1.0579513025850058
1740007289959496000,3.133495849609375,1.2170500507164745,12.871202406036852,0.9193044639170169
1740007289969479200,3.143479248046875,0.9927128875423222,13.007901033246517,0.6622820057153701
1740007289979461000,3.153461181640625,0.8191980760455131,13.06145726686716,0.42201252939403056
1740007289989443000,3.163443115234375,0.7281511198770254,13.09605044134259,0.20151567503511905
1740007289999425300,3.17342529296875,0.7117763967245817,13.190606209349632,-0.014849778607487677
1740007290009407000,3.183406982421875,0.8697849384665489,13.152117781001328,-0.32803485353589057
1740007290019389200,3.19338916015625,1.125052077433467,12.986977487683296,-0.7411147194117307
1740007290029371100,3.20337109375,1.3587825073748827,12.911279564881324,-1.0577490580111741
1740007290039353000,3.21335302734375,1.5206050544470548,12.773543995839356,-1.336776427271962
1740007290049335000,3.2233349609375,1.59644501606822,12.489122658580541,-1.6231623426020145
1740007290059317000,3.23331689453125,1.612907490569353,12.126009477400778,-1.8192437176287173
1740007290069299200,3.24329931640625,1.4643068286418914,11.533373254841566,-1.9636352374285457
1740007290079281200,3.25328125,1.4815139840304852,10.752163256406783,-1.8273434374541042
1740007290089263000,3.26326318359375,1.889196959298849,10.119626400613784,-1.2099047820717095
1740007290099245000,3.2732451171875,2.35147427906394,9.71300550161898,-0.1513110899299383
1740007290109227300,3.283227294921875,2.7362685461759564,9.468963521021603,0.9257704450607299
1740007290119209000,3.293208984375,2.8986919817507264,9.22314284031391,1.866225833556056
1740007290129192200,3.303192138671875,2.8333517868340015,8.934230036854743,2.7537884207755328
1740007290139174100,3.313174072265625,2.4392647907197476,8.517887954312563,3.490136948698759
1740007290149156000,3.323156005859375,2.088334214764833,8.10859579028189,4.037359912082553
1740007290159138300,3.33313818359375,1.7023334944725035,7.6749477681517595,4.420440945535898
1740007290169120000,3.3431201171875,1.1375076543807983,6.889585326212644,4.314946434885263
1740007290179102200,3.353102294921875,0.42081013133432715,6.0939177633583546,3.952535264495015
1740007290189084200,3.363084228515625,-0.391768782299757,5.263947533407807,3.3960224947184323
1740007290199066000,3.373066162109375,-1.0513163946151733,4.418761614146828,2.5996535055965184
1740007290209048000,3.383048095703125,-1.4970342092454432,3.6381431518644094,1.5871230609714984
1740007290219030000,3.393030029296875,-1.905418610781431,3.011237287695706,0.5361012653887272
1740007290229012000,3.403011962890625,-2.1980185783207413,2.522322136373818,-0.39517362230718134
1740007290238993700,3.41299365234375,-2.375070258706808,2.0761301283605396,-1.1162485932528972
1740007290248976000,3.422975830078125,-2.4985142675459384,1.63511128520146,-1.6062357577204702
1740007290258957600,3.43295751953125,-2.5082792902350426,1.1540420250743626,-1.9544097284436224
1740007290268940800,3.44294091796875,-2.40680862827301,0.6461430640801787,-2.0187147350937127
1740007290278922500,3.452922607421875,-2.2948609959602355,0.24231121128201483,-1.846255058673024
1740007290288904700,3.46290478515625,-2.186228771805763,-0.21659926239848135,-1.52102415664196
1740007290298886700,3.47288671875,-2.1791969734728336,-0.6464522761598229,-1.0249339991241693
1740007290308868600,3.48286865234375,-2.268670908170938,-1.0223977586448192,-0.3800590552836656
1740007290318850800,3.492850830078125,-2.308407875275612,-1.3899351860076188,0.2367664366364479
1740007290328832500,3.50283251953125,-2.344347788184881,-1.8388816072955727,0.7017892557173967
1740007290338814700,3.512814697265625,-2.116566475906223,-2.2182284226566553,1.087630401533842
1740007290348796700,3.522796630859375,-1.5555577098846434,-2.4704794286727902,1.6644517998456954
1740007290358778600,3.532778564453125,-0.6622163931332529,-2.6289450665324923,2.4905448961019516
1740007290368760600,3.542760498046875,0.08111044936999678,-1.878504884892702,3.9096968242436647
1740007290378742800,3.55274267578125,0.37056013618484135,-1.813209113639593,5.0085751805007455
1740007290388724500,3.562724365234375,0.3911971198916435,-1.9159937808096408,5.896576159137487
1740007290398706700,3.572706787109375,0.3074152593553066,-1.9162819501012562,6.948491104167699
1740007290408688600,3.582688720703125,0.004869067341089248,-2.03768714658916,7.9920432945221656
1740007290418671600,3.592671630859375,-0.34662747193351384,-2.1268577144265173,9.05176920556426
1740007290428653800,3.60265380859375,-0.6649472794018686,-2.4017630353212356,10.372126997476816
1740007290438635500,3.612635498046875,-1.0334870156750082,-2.8676562074959278,11.805759286391734
1740007290448617700,3.62261767578125,-1.8785653829082845,-3.703978436821699,12.848153538882732
1740007290458599700,3.632599609375,-2.867760252392292,-4.6522249175846575,13.59412037450075
1740007290468581600,3.64258154296875,-3.4033342790365215,-5.461443451407551,14.301284308993816
1740007290478563600,3.6525634765625,-3.6994136131241917,-5.870467319890857,15.40629254630804
1740007290488545500,3.662545654296875,-4.167223724836111,-5.668005888438224,16.64924678054452
1740007290498527700,3.67252783203125,-4.669934761798381,-5.406120792636275,17.326471503847838
1740007290508509700,3.682509765625,-5.167935721373558,-5.680148161652684,16.736517067718506
1740007290518491600,3.69249169921875,-5.5397360668778415,-6.440118388181925,15.021536857640742
1740007290528473600,3.7024736328125,-5.767122096228599,-7.367150231480598,13.021810316133498
1740007290538455800,3.712455810546875,-5.716550431376695,-8.182470589309931,11.241277145171164
1740007290548437500,3.7224375,-5.478868633460999,-8.872986755862831,10.131879148465394
1740007290558419700,3.732419677734375,-5.065810394895077,-9.079014355364441,10.048732078701256
1740007290568402700,3.742402587890625,-4.581617011398077,-8.62805864008069,10.49860350587964
1740007290578384600,3.752384521484375,-4.118767736963927,-7.966695502775907,10.858372052806615
1740007290588366800,3.762366943359375,-3.581037116807699,-7.385972420850396,10.849752693021296
1740007290598348500,3.7723486328125,-2.962798543219268,-6.684770609632134,10.763481938278675
1740007290608330800,3.782330810546875,-2.4035610246539116,-5.666239463287591,10.792506957232952
1740007290618312700,3.792312744140625,-1.9366029997266827,-4.465492385661602,10.960119778144358
1740007290628294700,3.802294677734375,-1.6226057316325604,-3.249946382832527,10.996962192851305
1740007290638276600,3.812276611328125,-1.455019944858551,-2.09844936606586,10.76192360292077
1740007290648258600,3.822258544921875,-1.4642669350229203,-0.9501648816049099,10.401143833124637
1740007290658240500,3.832240478515625,-1.9035984096169472,0.030285832670331,10.054445195651054
1740007290668222700,3.84222265625,-2.60661603808552,0.8284680086940527,9.696328507584333
1740007290678204700,3.85220458984375,-3.3045454035043713,1.3671131133466958,9.142849990937114
1740007290688186600,3.8621865234375,-3.819877437108755,1.605337347576022,8.320124325287342
1740007290698168800,3.8721689453125,-4.101186779826879,1.734227931383252,7.511904154852032
1740007290708150500,3.882150634765625,-4.198211568295956,1.5884095936506986,6.582061345785855
1740007290718133800,3.8921337890625,-3.6974177631318565,1.268463354024291,5.501902887567877
1740007290728115500,3.902115478515625,-2.8135844255685805,1.046878412167728,4.825560207796096
1740007290738097700,3.91209765625,-1.8208850550949573,1.066048392061889,4.746512390044331
1740007290748079600,3.92207958984375,-1.0545581530153751,1.3786419308379292,4.706250522282719
1740007290758062600,3.9320625,-0.6227453834883868,1.583136329422891,4.466415345725417
1740007290768044800,3.942044921875,-0.2949038605675101,1.972068426991999,4.440739052677154
1740007290778026500,3.952026611328125,-0.5347428365170955,2.7687086342707277,4.627431837111711
1740007290788008700,3.9620087890625,-1.0351707309782505,3.6050709033459425,4.539742447742819
1740007290797990700,3.97199072265625,-1.0223612260267139,4.674380635291338,4.582795992049575
1740007290807972600,3.98197265625,-0.844278741288185,5.78192803569436,4.593823582020402
1740007290817954600,3.99195458984375,-0.8403430092744528,6.670165745696425,4.2343478805601595
1740007290827936800,4.001936767578125,-0.8660477977648376,7.464945419800281,3.7773166447550057
1740007290837918700,4.011918701171875,-1.0153041471220552,8.298224628168343,3.369006477499008
1740007290847900700,4.021900634765625,-1.2548156446829437,9.004725130316615,3.0122260064721105
1740007290857882600,4.031882568359375,-1.6880024790421126,9.612810850942134,2.6317665536940096
1740007290867864600,4.041864501953125,-2.0817358394131062,10.23910735104084,2.265335626268387
1740007290877846800,4.0518466796875,-2.401962065024674,10.816500411760806,1.9680805263996124
1740007290887828500,4.061828369140625,-2.46915607111454,11.302331625592707,1.8086878368228674
1740007290897811700,4.071811767578125,-2.473717972202599,11.781688674974442,1.6324065562874077
1740007290907793700,4.081793701171875,-2.5985005361691114,12.363570863807201,1.7297925792843103
1740007290917775600,4.091775634765625,-2.6642183322265742,12.947669559645652,1.903736356782913
1740007290927757800,4.1017578125,-2.599189979737997,13.4822393776834,1.8743851746141909
1740007290937739500,4.111739501953125,-2.6845839516460894,13.706161530315875,1.7484078479051588
1740007290947721700,4.1217216796875,-2.821342200088501,13.86160226739645,1.5467618244886396
1740007290957703700,4.13170361328125,-2.8138135581493375,13.984625420475005,1.432718096679449
1740007290967685600,4.141685546875,-2.7071713387683034,14.035228649508952,1.3251508714079856
1740007290977667600,4.15166748046875,-2.580899413026869,14.009430191385745,1.2111264328211546
1740007290987649800,4.16164990234375,-2.4362697005569935,14.026269097983837,1.2302227629572153
1740007290997631500,4.171631591796875,-2.335321601164341,14.132385539925098,1.456188988637924
1740007291007613700,4.18161376953125,-2.101149564935267,14.112601812046766,1.4835896212607622
1740007291017595600,4.191595703125,-1.869336366792023,13.665845886540412,0.8679436945140361
1740007291027577600,4.20157763671875,-2.0098951765611766,13.056091355919838,0.2226099009901285
1740007291037559800,4.211559814453125,-2.1137854668855667,12.672931412011383,-0.3821089735507965
1740007291047542500,4.22154248046875,-2.0219673071488735,12.477646155798434,-1.0015244819641114
1740007291057524700,4.231524658203125,-2.0666160116925836,12.323360433971882,-1.7591975374668836
1740007291067506400,4.24150634765625,-2.0596853356465696,12.059137835133075,-2.5584645861178634
1740007291077488600,4.251488525390625,-2.403910861004889,11.652867064750193,-3.3390199200361965
1740007291087470800,4.261470947265625,-2.7263541781440375,11.27823295712471,-3.701718090674281
1740007291097452500,4.27145263671875,-2.8906334707185626,11.11950253084898,-3.596964169257879
1740007291107434800,4.281434814453125,-2.7513974339857694,11.085572204196453,-3.1168887424737215
1740007291117416700,4.291416748046875,-2.4415049708619714,10.957781690585612,-2.5115356616824864
1740007291127398700,4.301398681640625,-2.180221348084509,10.62775712453723,-1.8572557606369255
1740007291137380600,4.311380615234375,-2.002354551923275,10.444434693318605,-0.7937158442646265
1740007291147362800,4.32136279296875,-1.6297729929134248,10.252651892268657,0.8263134610086679
1740007291157344500,4.331344482421875,-1.1547687319137154,9.65394365631938,2.6397318334847686
1740007291167326700,4.34132666015625,-0.7183867547750472,8.708779944002627,4.395226424780488
1740007291177308700,4.35130859375,-0.3290434460565448,7.599561395516991,5.834975735270977
1740007291187290600,4.36129052734375,-0.010017536145448685,6.588169599533081,5.824838372138142
1740007291197272600,4.3712724609375,-0.2355500465840101,6.062621292340755,4.7572278453260655
1740007291207254500,4.381254638671875,-0.6864838422968983,5.774925463455915,3.434162548020482
1740007291217237800,4.39123779296875,-1.1778374728120862,5.495435737380385,2.2260329589277505
1740007291227219500,4.401219482421875,-1.6051330571755766,4.967830497658253,1.0558891093581915
1740007291237201700,4.41120166015625,-1.7892627131238579,4.299785398371517,0.34791327396035193
1740007291247184000,4.421183837890625,-1.9118261397361753,3.695233112569153,0.03779167825579643
1740007291257165600,4.43116552734375,-1.6829434420868754,2.990710924756527,0.154735803681612
1740007291267147800,4.441147705078125,-0.9132885646283626,2.2495979589104653,0.6689227589040995
1740007291277130000,4.4511298828125,-0.07906389210373163,1.487894040456414,1.158925705462694
1740007291287111700,4.461111572265625,0.49859658738076684,0.6483866052232682,1.4804507387131451
1740007291297094000,4.471093994140625,1.1269511890530586,-0.05741510100588202,1.848231911703944
1740007291307075800,4.481075927734375,1.715042023267597,-0.6420876512095332,2.0836136159837246
1740007291317057800,4.491057861328125,2.127362449078262,-1.151900336870551,2.222449255222082
1740007291327039700,4.501039794921875,2.3075400063998996,-1.5022785396397114,2.2965432499587535
1740007291337022000,4.51102197265625,2.4892612860321996,-1.8682932874798774,2.4251222835987805
1740007291347003600,4.521003662109375,2.682155847716331,-2.1250050722971556,2.9012112710952755
1740007291356987000,4.53098681640625,2.7935645508468148,-2.3858806987956167,3.7187054658323526
1740007291366968800,4.54096875,2.797352252691984,-2.6676941916435957,4.218386341318488
1740007291376950800,4.55095068359375,2.4268216348625717,-2.843923741991818,4.453251912769675
1740007291386932700,4.5609326171875,2.0948245996974406,-3.1478397610545157,4.591486078983545
1740007291396914700,4.570914794921875,1.8755974730134009,-3.3333015423893926,5.008077752372622
1740007291406897000,4.58089697265625,1.9074274663858115,-3.2878596416413783,5.749099532803893
1740007291416878600,4.590878662109375,2.1577802375651896,-3.247294407019019,6.82054978390932
1740007291426860800,4.60086083984375,2.3868751166604456,-3.4492169092893596,7.886067137834429
1740007291436842800,4.6108427734375,2.515235100722313,-3.631021337160468,8.979588350972532
1740007291446824700,4.62082470703125,2.6592718157351016,-3.9852877795398234,10.05975031632185
1740007291456807000,4.630806884765625,2.9488778621554372,-4.661823351535201,10.860814185261725
1740007291466788900,4.640788818359375,3.2987714962780474,-5.466689535367489,11.338728634619713
1740007291476770800,4.650770751953125,3.686667236536741,-6.157438341632485,11.710842283856868
1740007291486752800,4.660752685546875,3.926193785536289,-6.60081573061645,12.17354630460143
1740007291496735000,4.67073486328125,3.92404742115736,-6.767414406049252,12.997733859497307
1740007291506717700,4.6807177734375,3.6816181364536282,-7.199270284065604,13.655223954761027
1740007291516700000,4.690699951171875,3.4723265667200085,-7.843110624161362,13.679476937007903
1740007291526681900,4.700681884765625,3.023180531206727,-8.564228849726915,13.083058857822417
1740007291536663800,4.710663818359375,2.1110148331284524,-9.214756704762577,12.564573913145065
1740007291546645800,4.720645751953125,1.0528548562288285,-9.727055069759487,11.9904962605834
1740007291556627700,4.730627685546875,0.12930895534977316,-10.30656234615445,11.276114649796485
1740007291566610000,4.74060986328125,-0.6203754394866525,-10.702845975530147,10.790648177623748
1740007291576591600,4.750591552734375,-1.4205235087558625,-10.746874502348899,10.707077914011478
1740007291586573800,4.76057373046875,-2.3307879032574594,-10.025461093229055,11.228377916109562
1740007291596555800,4.7705556640625,-2.728419586241245,-8.948431580686568,11.751895594257116
1740007291606537700,4.780537841796875,-3.227735720068216,-8.580977739953994,11.625766291856765
1740007291616519700,4.790519775390625,-3.504901971632242,-7.762000028660893,11.454857936531305
1740007291626502000,4.800501953125,-3.3790053089439867,-6.647564622309804,11.274582033401726
1740007291636483600,4.810483642578125,-2.929730094093084,-5.3033349564224475,10.988630417835711
1740007291646466800,4.820466796875,-2.3406711454987525,-3.71966115912199,10.57147117369175
1740007291656448800,4.83044873046875,-1.6156044745683669,-2.197523488280177,9.981099388933181
1740007291666430700,4.8404306640625,-1.0309585931759326,-1.0305547616153954,9.099114309585094
1740007291676413000,4.850412841796875,-0.7352886436067522,-0.27997663280963897,7.943361973461508
1740007291686394600,4.86039453125,-0.49256260444615035,0.14100246188342572,6.732430770951509
1740007291696376800,4.870376953125,-0.25753917555212974,0.43523149192929267,5.560747290724516
1740007291706358800,4.88035888671875,0.09991353218052536,0.5585334619492293,4.42181749458611
1740007291716340700,4.8903408203125,0.3475975956073031,0.5427431876212359,3.5653514718979595
1740007291726323000,4.900322998046875,0.6153577574551106,0.54172845762074,2.897991724526882
1740007291736304600,4.9103046875,0.8191243532221764,0.589065962857008,2.381281972828507
1740007291746286800,4.920286865234375,0.7991244253098965,0.7233455462262034,2.068120278775692
1740007291756268800,4.930268798828125,0.7831400897145271,0.8239005546480417,1.827243484210968
1740007291766250800,4.940250732421875,0.7598175932507961,0.8951189939484,1.6863649409681558
1740007291776233700,4.950233642578125,0.6480804618835448,1.102434587433934,1.6384966898560522
1740007291786215700,4.960215576171875,0.609942746669054,1.40563661300838,1.5518530101478099
1740007291796198000,4.970197998046875,0.5961665886424482,1.7941294423773884,1.5168798964440822
1740007291806179800,4.980179931640625,0.328487273478508,2.2408500043094155,1.4997493134230375
1740007291816161800,4.990161865234375,0.1178644551411271,2.84424610581398,1.5663053138703107
1740007291826143700,5.000143798828125,-0.1311468383014202,3.5311432050868867,1.5943553503125905
1740007291836126000,5.0101259765625,-0.2439562020100653,4.27987102985084,1.5840116509526967
1740007291846107600,5.020107666015625,-0.41914428048133845,5.075348623090982,1.6051239970862865
1740007291856089900,5.03008984375,-0.5801578492581844,5.8357309375524515,1.5972779597610234
1740007291866071800,5.04007177734375,-0.8364052314341068,6.505295501491427,1.4705062678039074
1740007291876053800,5.0500537109375,-1.082107838720083,7.161868481910228,1.3582324722766876
1740007291886035700,5.06003564453125,-1.309732353001833,7.8272747571259735,1.3659873241871594
1740007291896017700,5.070017578125,-1.5060563046127557,8.564324126794935,1.5488175879746675
1740007291906000000,5.079999755859375,-1.647892879232764,9.310040202522277,1.8139426886111496
1740007291915981800,5.08998193359375,-1.745929182831943,10.06012090319991,2.057976485902071
1740007291925964800,5.09996484375,-1.6772116204366088,10.820255380380154,2.1692945881396533
1740007291935946800,5.10994677734375,-1.4617361013710497,11.610415577989816,2.305177807313204
1740007291945928700,5.1199287109375,-1.293745094797015,12.304552857649325,2.382494855749607
1740007291955910700,5.12991064453125,-1.3752736234486103,12.923994085025786,2.332626370730996
1740007291965892900,5.139892822265625,-1.4959412994422017,13.403839794707297,2.0610002176374196
1740007291975874800,5.149874755859375,-1.645237104026973,13.683954374682903,1.7446061175346375
1740007291985856800,5.159856689453125,-1.9275123691678047,13.79580263827443,1.5397878938227891
1740007291995839000,5.1698388671875,-2.1933672453835604,13.794749329829216,1.3559136739403008
1740007292005820700,5.179820556640625,-2.1353486255265772,13.75971776393652,1.1599626472949982
1740007292015803000,5.189802978515625,-1.8390556486882268,13.658355823045968,0.8716033860653638
1740007292025784800,5.199784912109375,-1.4881401241719723,13.35069974067211,0.5471779551982879
1740007292035766800,5.209766845703125,-1.1822061894156037,13.174139058673381,0.16627192769646643
1740007292045748700,5.219748779296875,-1.4669453604519367,12.870568784308432,-0.373790058016777
1740007292055731700,5.229731689453125,-1.7038732712604105,12.324551689583062,-0.9798112473279237
1740007292065714000,5.2397138671875,-1.6386078951455652,11.68206393314004,-1.3042074521005154
1740007292075695900,5.24969580078125,-1.4666894859947264,11.177453200036286,-1.310135088583827
1740007292085677800,5.259677734375,-1.1486918962180614,11.034445243549346,-1.1364993541210888
1740007292095659800,5.26965966796875,-0.783158794414997,10.925021576756238,-1.0364783064454792
1740007292105641700,5.279641845703125,-0.4416822755038738,10.64023432879448,-0.7943149792015552
1740007292115623700,5.289623779296875,-0.2142003845632076,10.34498296996355,-0.14467910456955432
1740007292125606000,5.29960595703125,0.05960954231023788,10.151946953982113,0.7336176416546106
1740007292135587600,5.309587646484375,0.3081532182410359,9.887090733414889,1.6386235311061144
1740007292145569800,5.31956982421875,0.42752544759660954,9.395373384153842,2.1690625329494475
1740007292155551700,5.3295517578125,0.4435577139869332,8.655334769541025,2.158175228232145
1740007292165533700,5.33953369140625,0.3746466748461127,7.836145461323857,1.7292554036676884
1740007292175516000,5.349515869140625,0.27303046693354843,7.054187859392166,1.1365706657916306
1740007292185497900,5.359497802734375,0.20998218234628438,6.33548078662157,0.39224575216174123
1740007292195480800,5.369480712890625,0.16674509816616773,5.71359450418055,-0.3951677770882845
1740007292205462800,5.379462890625,0.08460515961796045,5.1826662575155495,-1.1661574102818966
1740007292215444700,5.38944482421875,-0.2107479060217738,4.688081828385592,-1.8174609258651733
1740007292225426700,5.3994267578125,-0.5989116495668888,4.26901762740314,-2.340567685124278
1740007292235409000,5.409408935546875,-0.9978455011904239,3.8273590250357983,-2.7879385276585817
1740007292245390300,5.419390380859375,-1.2704736709333955,3.334987011258304,-3.1410628142654895
1740007292255372300,5.429372314453125,-1.4324677751801906,2.8916104990571734,-3.30646848052144
1740007292265354500,5.4393544921875,-1.4727473247289657,2.606323777140677,-3.2473288938105105
1740007292275336200,5.449336181640625,-1.3455039236068724,2.3335499153167008,-2.9522043762296435
1740007292285318400,5.459318359375,-1.2119007781945168,2.072341988123953,-2.4227877031713723
1740007292295300600,5.469300537109375,-1.0785143442727625,1.797195405819267,-1.8702181180626152
1740007292305282300,5.4792822265625,-0.9198913238942623,1.2559727057635783,-1.5338818846493958
1740007292315264500,5.489264404296875,-0.6335061392165721,0.8011495013967156,-1.102097318303585
1740007292325247200,5.499247314453125,-0.38165436165109273,0.5846250578001141,-0.2889636568635702
1740007292335229400,5.5092294921875,-0.15375380690693854,0.4203717764496803,0.7664619266360998
1740007292345211400,5.51921142578125,0.08602189454808831,0.3060807958811521,1.8501169947981833
1740007292355193300,5.529193359375,0.17382263533696532,0.2118430077821016,2.7777912276536223
1740007292365175300,5.53917529296875,0.06794467832669615,0.06550941400378942,3.9734126328289507
1740007292375157200,5.5491572265625,-0.02704232070446014,-0.18877075975239277,5.529285984534025
1740007292385139500,5.559139404296875,-0.07433847101703285,-0.6895604732632636,7.060220709815621
1740007292395121400,5.569121337890625,-0.11599398509413003,-1.2359089919000863,8.426130292591452
1740007292405103400,5.579103271484375,-0.3207330060899257,-1.820329759299755,9.714186820358037
1740007292415085300,5.589085205078125,-0.9453414069712162,-2.669914790302515,10.999572667610645
1740007292425067500,5.599067626953125,-1.6728936111070214,-3.83928239480257,12.300510304260253
1740007292435049200,5.60904931640625,-2.2386419728711244,-5.225961209362745,13.295462422096728
1740007292445031400,5.619031494140625,-2.715985636603832,-6.48941930244565,14.086701647114753
1740007292455013400,5.629013427734375,-3.1957991975814104,-7.355607677724957,14.659240838062763
1740007292464996400,5.638996337890625,-3.8987937374353407,-7.6749693954616784,15.018607233929632
1740007292474978600,5.648978515625,-4.843425827093422,-7.616562214678526,14.702723421436547
1740007292484960300,5.658960205078125,-5.885363860249519,-7.205325346320867,13.655967466604709
1740007292494942500,5.6689423828125,-6.53826195154786,-6.427658135059476,12.60406655009985
1740007292504924400,5.67892431640625,-6.740947254884243,-5.3822758066684,11.934406709092855
1740007292514906400,5.68890625,-6.756465142011642,-4.51424735648036,11.519696611666678
1740007292524888300,5.698888427734375,-6.745870098239183,-4.23546490189135,11.066339095938204
1740007292534870300,5.708870361328125,-6.639129386919737,-4.584475323438644,10.220378100651502
1740007292544852200,5.718852294921875,-6.424976933151483,-5.349866405972838,9.148839586740731
1740007292554834400,5.72883447265625,-5.981696574801206,-6.4043742901057,7.997479348096251
1740007292564816400,5.73881640625,-5.48587821996212,-7.51293408242166,7.300816933873295
1740007292574798300,5.74879833984375,-4.856466218191385,-8.23489577307403,6.862287569442391
1740007292584780500,5.758780517578125,-4.163807486651837,-8.367035129544139,6.64031655087769
1740007292594763300,5.76876318359375,-3.688111005604267,-8.31598766387403,6.51935149937272
1740007292604745500,5.778745361328125,-3.1944764245450497,-8.07460058169961,6.323416839340329
1740007292614727200,5.78872705078125,-2.8048516685366627,-7.622027494347095,6.1358618851184845
1740007292624709400,5.79870947265625,-2.5371219383597374,-6.950021966996789,6.205141173049808
1740007292634691600,5.808691650390625,-2.450533057578653,-6.105330553254484,6.466812918362021
1740007292644673300,5.81867333984375,-2.5291221717774865,-5.250415851661563,7.2243386743485924
1740007292654655500,5.828655517578125,-2.591925541692972,-4.44665967489779,8.307654719814657
1740007292664637400,5.838637451171875,-2.4284441214978694,-3.622741000071168,9.036192866247891
1740007292674619400,5.848619384765625,-2.1789058815717697,-2.9422084673941136,9.24345497598052
1740007292684601300,5.858601318359375,-1.8802911837875842,-2.3886072011500596,8.861219161179662
1740007292694583300,5.868583251953125,-1.655644224011898,-1.727750844323635,7.789127689561248
1740007292704565200,5.878565185546875,-1.50419255656749,-1.1666720818057656,6.6153218103528015
1740007292714547500,5.88854736328125,-1.1854490437943488,-0.7131593755155802,5.461655632853508
1740007292724529200,5.898529052734375,-0.7254512863337993,-0.20474661978036163,4.518642376568913
1740007292734512400,5.908512451171875,-0.3281086128918454,0.3049208121910691,3.9345536176025866
1740007292744494300,5.918494384765625,0.3904010010778904,0.9695014502376318,3.4817338620126246
1740007292754476300,5.928476318359375,1.1988847178202122,1.7664891557797788,2.8749808512955903
1740007292764458500,5.93845849609375,1.6858102296948432,2.328649137663096,2.3397791650950905
1740007292774440200,5.948440185546875,2.016172649395466,2.7483076512768863,1.924011083048582
1740007292784422400,5.95842236328125,2.1833353884518147,3.090516283854842,1.419797240307927
1740007292794404400,5.968404296875,2.2532196565389633,3.3404362165749073,0.9302496363013982
1740007292804386300,5.97838623046875,2.174390888365358,3.432672017201781,0.5935445695757866
1740007292814368300,5.9883681640625,2.1356161904215814,3.6958632271662353,0.6982932302951812
1740007292824350500,5.9983505859375,1.8704770612597463,4.350956490421295,1.1128051748007535
1740007292834332400,6.00833251953125,1.351153912192583,5.098523162451386,1.4101602279126644
1740007292844314400,6.018314453125,0.885693286216259,5.706392609977722,1.4984434915214777
1740007292854296300,6.02829638671875,0.48536827249526976,6.284921981251239,1.6828315061450003
1740007292864279300,6.038279296875,0.16703998945951462,6.911516587513685,1.8226959039092063
1740007292874261500,6.048261474609375,0.07775660889744758,7.639804558578133,1.864326721936464
1740007292884243200,6.0582431640625,-0.017743673418089745,8.338526243418455,1.832336423435807
1740007292894225400,6.068225341796875,-0.13818557783178984,8.85335325011015,1.6477116774469613
1740007292904207400,6.078207275390625,-0.3950643167138099,9.185271667081118,1.420832428574562
1740007292914189300,6.088189208984375,-0.5281272177696228,9.467636656332015,1.2625444853693246
1740007292924171500,6.098171630859375,-0.435395194591023,9.822655378383397,1.211336276179552
1740007292934153200,6.1081533203125,-0.4183821004698053,10.323520495218037,1.2841934225976466
1740007292944135400,6.118135498046875,-0.26339842297434807,10.910131466138361,1.3048954343646764
1740007292954117400,6.128117431640625,-0.1553039772246964,11.416819590038061,1.1494202104926108
1740007292964099300,6.138099365234375,-0.15143559309244156,11.726353156721592,0.861884540605545
1740007292974081300,6.148081298828125,-0.3580056289076805,11.892913838231562,0.7338543730199336
1740007292984063500,6.1580634765625,-0.7454308290451764,11.936152091455458,0.9605547581940889
1740007292994046500,6.16804638671875,-1.0507605142980814,11.988843232679367,1.171712121799588
1740007293004028400,6.1780283203125,-1.2039876669824123,12.233266906070709,1.4645090732157229
1740007293014010400,6.18801025390625,-1.2337222955107687,12.819861510378121,1.9541443555057048
1740007293023992300,6.197992431640625,-0.9097147977948188,13.76794081788063,1.8086194477617739
1740007293033974500,6.207974609375,-0.4392553406178951,14.460692780661581,0.6666758567601442
1740007293043956200,6.217956298828125,0.14662263071960768,14.613112708616256,-0.5248141476988792
1740007293053938400,6.2279384765625,0.8175660909295082,14.81062733131647,-1.4951467880636453
1740007293063920400,6.23792041015625,1.8506161764919757,15.419292313134669,-2.6426234632730483
1740007293073902300,6.24790234375,3.0042496207654477,15.79417659612894,-4.02082203425765
1740007293083884500,6.257884521484375,3.811238203579187,15.420618008780478,-5.030777075436711
1740007293093866200,6.2678662109375,4.029598045909404,14.653152458059786,-5.116642171987891
1740007293103848400,6.277848388671875,3.748561090391874,13.79479609158039,-3.8716666610568757
1740007293113830400,6.287830322265625,3.1199323479533194,13.162252221524716,-1.4871844308823345
1740007293123813400,6.2978134765625,2.314144373100996,12.538932106888293,1.3059300381094217
1740007293133795300,6.30779541015625,1.2664951226912438,11.717988648480176,3.948890770512819
1740007293143777300,6.31777734375,0.08174290205463766,10.508665465688704,5.581337074288726
1740007293153759500,6.327759521484375,-0.3233211228869855,9.813257435441017,6.592934621977806
1740007293163741400,6.337741455078125,-0.599481120017916,9.592972762528062,7.790175152787565
1740007293173723400,6.347723388671875,-1.054494001737982,8.540210845279693,7.84667737673223
1740007293183705300,6.357705322265625,-1.2230230607114732,6.9175488534152505,6.868843566957116
1740007293193687600,6.3676875,-1.4094881738699971,5.422760377269983,5.460360332345962
1740007293203669200,6.377669189453125,-1.2966963458180427,4.387956433777511,4.1319209407866
1740007293213651500,6.3876513671875,-1.104491373833269,3.626306583598256,3.0274761825740337
1740007293223633400,6.39763330078125,-0.9809246153973042,3.010596943965554,2.12370071170032
1740007293233615400,6.407615478515625,-0.949629459553957,2.5446421047315,1.6638883207440376
1740007293243598300,6.417598388671875,-1.1573301068343222,2.0888615996398032,1.6351865423947571
1740007293253580500,6.42758056640625,-1.4389385786294937,1.6255110976852476,1.6833476389735935
1740007293263562500,6.4375625,-1.6316295805655419,1.2624712740026414,1.643407842773199
1740007293273544400,6.44754443359375,-1.8462077123999594,0.9391448904186487,1.7183856346070765
1740007293283526400,6.4575263671875,-2.0097721347033977,0.48271162050664423,2.1462924827367065
1740007293293508600,6.467508544921875,-2.039420400122553,-0.05580547385215759,2.486185531848669
1740007293303490300,6.477490234375,-1.971074447518587,-0.6037438920289278,2.7259984965741633
1740007293313472500,6.487472412109375,-1.873421736409515,-1.1279100972130893,3.0014889238804576
1740007293323454500,6.497454345703125,-1.8433296727456152,-1.6362296217069028,3.32435426582396
1740007293333436400,6.5074365234375,-2.017962455421686,-2.228240113583207,3.621101416170597
1740007293343418600,6.517418701171875,-2.380468902879953,-2.9406343499451872,4.0892946819812055
1740007293353400600,6.527400634765625,-2.758590268099308,-3.5649843921512363,4.5195238355785605
1740007293363382500,6.537382568359375,-2.949832970923185,-4.131548600342869,5.100338687440753
1740007293373364500,6.547364501953125,-3.1832410370424387,-4.670497656378149,6.104803314509987
1740007293383347500,6.557347412109375,-3.182942638617754,-5.042066531214117,7.231743397647142
1740007293393329400,6.567329345703125,-2.9731635776281355,-5.223310987114906,8.175242391622065
1740007293403311600,6.5773115234375,-2.7411563182175156,-5.424232787910103,8.967364244693517
1740007293413293600,6.58729345703125,-2.635824304652214,-5.738094739186764,9.664850250259041
1740007293423275500,6.597275634765625,-2.682135973972082,-6.310354528671502,10.124342323219775
1740007293433257500,6.607257568359375,-2.5459166547119616,-7.014393609142303,10.408792886573076
1740007293443239400,6.617239501953125,-2.103549173422903,-7.598881012037396,10.683487779587507
1740007293453221600,6.6272216796875,-1.4296421963654458,-8.188603392976521,11.192371367704867
1740007293463203300,6.637203369140625,-0.5568566147781908,-8.63921248677969,11.604223153090476
1740007293473185500,6.647185546875,0.164940240701288,-8.808717989569901,11.981319266915321
1740007293483167500,6.65716748046875,0.5315921904664487,-8.68378344991207,12.264898892652988
1740007293493149400,6.6671494140625,0.633137744295597,-8.487665250006318,12.4857300935328
1740007293503131400,6.67713134765625,0.6446399660408496,-8.42938023429811,12.758798846650123
1740007293513114400,6.6871142578125,0.5115699776571244,-8.293265544456244,12.932184405744074
1740007293523096600,6.6970966796875,0.2613853295862675,-8.169687680104374,12.802562000530957
1740007293533078500,6.70707861328125,0.038063042543083424,-8.198336266961693,12.165462366867065
1740007293543060500,6.717060546875,-0.24912775942906737,-8.167227427470683,11.205015745222568
1740007293553042400,6.72704248046875,-0.6384251831792295,-8.23055102186799,10.032400537103413
1740007293563024600,6.737024658203125,-0.9310333340249956,-8.523066233733296,8.73466198875606
1740007293573006300,6.74700634765625,-1.1714284825526178,-8.918810349404811,7.362081842175126
1740007293582988500,6.756988525390625,-1.3410473825894296,-9.148144590213894,6.394058063274621
1740007293592970500,6.766970458984375,-1.4154080654382706,-8.95387815565467,6.060246379902958
1740007293602952400,6.776952392578125,-1.4728502005815505,-8.329540972930193,6.269855929544567
1740007293612934700,6.7869345703125,-1.6350176155686378,-7.49182173628807,6.6527732968688005
1740007293622916400,6.796916259765625,-1.9586147789180277,-6.6128118733584875,7.040996953907609
1740007293632899600,6.806899658203125,-2.4459879614949225,-5.652267052036524,7.585331210112571
1740007293642881300,6.81688134765625,-2.9545395411789417,-4.330981039363145,8.15654762802422
1740007293652863500,6.826863525390625,-3.787206170606613,-2.726122415214777,9.181616651704907
1740007293662845400,6.836845458984375,-3.524900803565979,-1.3843115009069442,9.743174429911374
1740007293672827400,6.846827392578125,-3.3742426245868202,-0.07268938863575458,9.92291374194622
1740007293682809600,6.8568095703125,-3.2459096746623515,1.2141051563709973,9.31059257570803
1740007293692791600,6.86679150390625,-2.6632874811172482,2.090570303253829,8.063664177143574
1740007293702773500,6.8767734375,-1.909958007776737,2.499027185504138,6.363574662205576
1740007293712755500,6.88675537109375,-1.154304475402832,2.678160056078434,4.80427542770505
1740007293722737700,6.896737548828125,-0.06698036333918571,2.7218971987351774,3.511013147988915
1740007293732719400,6.90671923828125,0.9921791459918021,2.609320328608155,2.2648814527601004
1740007293742701600,6.91670166015625,1.6416273890972137,2.420440555523336,1.162562600660324
1740007293752683500,6.92668359375,1.452729788094759,2.3076817529581484,0.6332452963232994
1740007293762666500,6.93666650390625,1.3807751434743403,2.103759309042245,0.5196674324601889
1740007293772648400,6.9466484375,1.333892980790138,2.089420548696816,0.6753174283772707
1740007293782630400,6.95663037109375,1.1562614546895027,2.1892038420937956,1.008086324697733
1740007293792612600,6.966612548828125,0.7204899375993759,2.426072131669521,1.4139531904548406
1740007293802594300,6.97659423828125,0.3114601508319378,2.962299069264531,1.7539520380288363
1740007293812576500,6.986576416015625,-0.21116087073683737,3.607180150584876,1.829801936522126
1740007293822558500,6.996558349609375,-0.6557553804256021,4.100964076986909,1.6380752495735882
1740007293832540400,7.00654052734375,-0.9585469985682517,4.538382557566464,1.3310019355237483
1740007293842522400,7.0165224609375,-1.3243395550251007,5.150473714441061,1.2114917590022087
1740007293852504600,7.026504638671875,-1.682471294530481,5.957866201880574,1.324986036235094
1740007293862486500,7.036486572265625,-1.9990834212981163,6.842041484749317,1.5416969423145055
1740007293872468500,7.046468505859375,-2.2176259267188607,7.7002137268334625,1.7711586088955402
1740007293882450700,7.05645068359375,-2.2387236598052085,8.670092778211831,1.9922955147236585
1740007293892433400,7.066433349609375,-2.263837935056537,9.660997081962227,2.104041486984491
1740007293902415600,7.07641552734375,-2.2862964351020754,10.480094035720825,2.0850129613876343
1740007293912397300,7.086397216796875,-2.3390962973974645,11.001772808003425,1.859996583777666
1740007293922379500,7.096379638671875,-2.360834812605381,11.298022530221939,1.670017617279291
1740007293932361700,7.10636181640625,-2.509355979555845,11.543010851758718,1.6616034246772526
1740007293942343400,7.116343505859375,-2.7883471084594724,11.813709953135252,1.8765420603871343
1740007293952325600,7.12632568359375,-3.100341512298584,12.002440380877255,2.1578607554554936
1740007293962307300,7.136307373046875,-3.2351836979866024,12.280428470218181,2.489007019010186
1740007293972289500,7.14628955078125,-3.3372201771378514,12.526710923218726,2.740611543816328
1740007293982271500,7.156271484375,-3.4594188620910047,12.704213854503632,2.8121494243294
1740007293992253400,7.16625341796875,-3.5568247588321564,12.884843977898358,2.76091724974215
1740007294002235400,7.1762353515625,-3.7148061203062532,13.0009195037961,2.452596565979719
1740007294012218400,7.18621826171875,-3.7624154282212254,13.180903145980833,2.100084273791313
1740007294022200600,7.19620068359375,-3.6331846526741978,13.447705824440717,1.6870868255019187
1740007294032182500,7.2061826171875,-3.3346649396970864,13.603561572062969,1.0589064113527535
1740007294042164500,7.21616455078125,-2.929586301708221,13.538083429980277,0.2045861685216427
1740007294052146400,7.226146484375,-2.48614578436017,13.307131817102432,-0.6248597452938557
1740007294062128600,7.236128662109375,-2.013501676620543,13.126818504571913,-1.2158043615043164
1740007294072110300,7.2461103515625,-1.4808160648941993,12.87154376682043,-1.6625287228286265
1740007294082092500,7.256092529296875,-0.9657787764526903,12.509586769938469,-2.134047918191552
1740007294092074500,7.266074462890625,-0.44078430375084277,12.101319272780417,-2.5838158849954604
1740007294102056400,7.276056396484375,0.11486088941097258,11.747275533241034,-2.8032407262086867
1740007294112038400,7.286038330078125,0.701028646608442,11.518450410997866,-2.8195184917926785
1740007294122020600,7.2960205078125,1.3009389518238603,11.391403409230708,-2.765823726484179
1740007294132003600,7.306003662109375,1.8323476754821837,11.314777265667916,-2.5147172143280505
1740007294141985500,7.315985595703125,2.2603720125116404,11.228272702169418,-2.0135265188008544
1740007294151967500,7.325967529296875,2.4768238292634486,10.982200677049159,-1.108887709096074
1740007294161949400,7.335949462890625,2.3484042239688336,10.58250811601281,0.06139467216134071
1740007294171931400,7.345931396484375,1.874081223231554,10.016391651588679,1.44979957986176
1740007294181913300,7.355913330078125,1.194468289617449,9.2891084736526,2.845051576977968
1740007294191895600,7.3658955078125,0.3978033862888813,8.454936115837096,4.121196133154631
1740007294201877500,7.37587744140625,-0.26589433144330976,7.491939809709787,5.404778730377554
1740007294211859500,7.385859375,-0.946789998344332,6.313281229773163,6.646375704786181
1740007294221841700,7.395841552734375,-1.5701004683695732,5.145927303183078,7.62129158128798
1740007294231823400,7.4058232421875,-1.9790262833058834,4.1607153658553955,8.315404895550012
1740007294241805600,7.4158056640625,-2.139110754539072,3.319802301608026,8.382135668042302
1740007294251787800,7.425787841796875,-2.311666000288725,2.4535095891714094,7.884161596474051
1740007294261771000,7.43577099609375,-2.292959984644502,1.569215940620005,7.277475805774331
1740007294271753000,7.4457529296875,-2.36454769564867,0.5610156341537833,6.736907624104618
1740007294281735000,7.45573486328125,-2.625847685039043,-0.35977526892870665,6.074878131845593
1740007294291717000,7.465717041015625,-2.8266262779712674,-1.0543971172347664,5.2416462697505946
1740007294301698800,7.47569873046875,-2.866836707806587,-1.7029168473184109,4.544176630797982
1740007294311681000,7.485680908203125,-2.626768891537189,-2.361319381251931,3.993541228622198
1740007294321663000,7.4956630859375,-2.2176403936356306,-3.010046324345469,3.7035441370576616
1740007294331645000,7.50564501953125,-1.733144227799773,-3.60380716702044,3.886761938858032
1740007294341627000,7.515626953125,-1.23336573715806,-4.161828587794304,4.19197355068922
1740007294351609000,7.525609130859375,-0.7048327881317585,-4.653199900096655,4.59516973593235
1740007294361591000,7.535591064453125,-0.22278934921026228,-5.079326879072189,5.00549065848887
1740007294371573000,7.545572998046875,0.36476620908379553,-5.589480633255839,5.3722512562602756
1740007294381556000,7.555555908203125,0.5921672898732125,-5.9988885326206685,5.669726136359572
1740007294391538000,7.565537841796875,1.1680050839751959,-6.314730844059586,5.658378228393197
1740007294401520000,7.57552001953125,1.9492980845183132,-6.696541711446643,5.6129503561705345
1740007294411501800,7.585501708984375,2.3715409155368805,-6.835371505466103,5.964297111710906
1740007294421484000,7.595484130859375,2.9434429776251316,-6.725878280568122,6.590380261319876
1740007294431466000,7.605466064453125,3.2352865738391876,-6.556964313930273,7.260962477868795
1740007294441448000,7.615447998046875,3.278189896020293,-6.377268256515264,7.861865008991956
1740007294451430100,7.62543017578125,3.31607334421277,-6.2496285495519635,8.47356249037385
1740007294461411800,7.635411865234375,3.513715977206826,-6.1744759856730695,8.894199639761448
1740007294471394000,7.64539404296875,3.9044700295060872,-6.211984170812368,9.049281480401755
1740007294481376000,7.6553759765625,4.2025060506194825,-6.575113718605041,9.1888658921808
1740007294491358000,7.66535791015625,4.457286867374181,-7.060216033640503,8.780563323709368
1740007294501340000,7.67533984375,4.476042421248555,-7.6288880277663464,8.418631461268664
1740007294511323000,7.685322998046875,4.180147503817081,-8.002524356526136,8.801463488397001
1740007294521305000,7.69530517578125,3.9376059909105297,-7.979886992782354,9.824967746978997
1740007294531287000,7.705287109375,3.622125498521328,-7.636057188743353,11.058237622547148
1740007294541269000,7.71526904296875,3.0173797359734773,-7.452259541228413,12.05461480475068
1740007294551251000,7.7252509765625,2.2614982400625943,-7.723484127783775,12.494001078271864
1740007294561233200,7.735233154296875,1.5510925471693275,-8.136031494218111,12.452729156684875
1740007294571214800,7.74521484375,0.8403695319551974,-8.575393802341818,12.118988200461864
1740007294581197000,7.755197021484375,0.25202013813601803,-8.88738879070282,11.631567087090014
1740007294591179000,7.765178955078125,-0.2297422370880842,-9.134814568519591,10.869603056395054
1740007294601161000,7.775160888671875,-0.6450333492726087,-9.187134538343548,10.282015933918952
1740007294611143000,7.785142822265625,-0.8155839772015809,-8.83197553103864,9.951249025070666
1740007294621124900,7.795124755859375,-0.714319651466608,-8.07256703004539,9.686143798178433
1740007294631108000,7.805108154296875,-0.5540443338364363,-7.064383090192079,9.456175351119041
1740007294641089800,7.81508984375,-0.5192267029553651,-5.988015840950608,9.250341228362917
1740007294651072000,7.825072021484375,-0.5081663797587156,-4.876960724687576,9.194487239193915
1740007294661054000,7.835053955078125,-0.550553569111228,-3.561684181562066,9.607588732379675
1740007294671036000,7.845035888671875,-0.6479582968086004,-1.99637723107934,10.37348191921711
1740007294681017900,7.855017822265625,-0.7365723998069763,-0.49321430982053277,11.042516321802138
1740007294691000000,7.865,-0.7061947971999645,0.8638853590339421,11.32396361168623
1740007294700982000,7.87498193359375,-0.6037550344774499,1.9642022236615417,11.000275262922047
1740007294710964000,7.8849638671875,-0.543559801233746,2.7192975376307964,10.04490112223625
1740007294720946200,7.8949462890625,-0.44201428393721576,3.1319033562541008,8.580087513116002
1740007294730929000,7.904928955078125,-0.4796715221583843,3.2516514331847426,6.946603098464012
1740007294740911000,7.9149111328125,-0.11308737693242728,3.4698514087781307,5.412450580179691
1740007294750892800,7.924892822265625,-0.24480251664109526,3.7248622348964213,3.7410388781934976
1740007294760875000,7.934875,-0.041375966483354565,3.5858202594310042,2.6967472676485778
1740007294770857200,7.944857177734375,0.22846162269301712,3.910687588846683,2.0679548590809107
1740007294780839000,7.9548388671875,-0.644969709451869,4.2626995302975175,1.460775147384405
1740007294790821000,7.964821044921875,-1.0656173802334814,4.275460812193155,1.1320277616649865
1740007294800803000,7.974802978515625,-1.4837971265316008,4.290099578398466,1.103406647336483
1740007294810785000,7.984784912109375,-1.6940063956320284,4.529281259483099,1.0411311006873845
1740007294820767000,7.99476708984375,-1.7116905208826063,4.949395846301317,1.0357119982481002
1740007294830749000,8.0047490234375,-1.7936767301738261,5.408715485304594,0.926301775458455
1740007294840732200,8.014732177734375,-1.840980917662382,5.8262605138957495,0.7393897953152656
1740007294850713900,8.0247138671875,-1.7966764965116977,6.352721259757876,0.6082669224113225
1740007294860696000,8.034696044921875,-1.7375053456187248,6.924276700365543,0.5206020829617977
1740007294870678000,8.044677978515624,-1.7627730578660963,7.461233705800772,0.33336920030117034
1740007294880660000,8.054659912109376,-1.7987457040011883,8.008942991396784,0.11527356186509131
1740007294890642000,8.064641845703125,-1.8716461050391195,8.529775960505008,-0.08203706269562244
1740007294900624100,8.0746240234375,-1.8393512706339359,9.069453330814838,-0.17082710678279397
1740007294910605800,8.084605712890625,-1.7461786275483666,9.680311438763141,-0.2668260593354702
1740007294920588000,8.094588134765624,-1.6971160520851611,10.20579661759138,-0.31689795797169207
1740007294930570000,8.104570068359376,-1.7205929353930056,10.462434460389613,-0.45381870349943637
1740007294940552000,8.114552001953125,-1.6862743400752545,10.51906294106245,-0.6396160003989935
1740007294950534100,8.1245341796875,-1.637900769789517,10.522781669324635,-0.7348293555319309
1740007294960516000,8.13451611328125,-1.6660896301805972,10.571856958138943,-0.639984249189496
1740007294970499000,8.1444990234375,-1.6802620940484105,10.731474688643216,-0.40495851874053473
1740007294980481000,8.15448095703125,-1.6484814927756786,10.981277132463454,-0.05909983922243118
1740007294990463000,8.164462890625,-1.577886446070671,11.252888087987898,0.40387539967894553
1740007295000445000,8.17444482421875,-1.514969532778114,11.58030919353962,0.9110808254510163
1740007295010427000,8.184427001953125,-1.5316006418444215,11.93361292836666,1.2107219436734915
1740007295020409000,8.1944091796875,-1.603417339298874,12.162241651254892,1.3177566695034504
1740007295030391000,8.20439111328125,-1.694696277592331,12.48750236390233,1.3064075924932956
1740007295040373000,8.214373046875,-1.7239304092526435,12.923294996845721,1.3028057686090468
1740007295050355000,8.22435498046875,-1.7188906615197657,13.327171565568447,1.1170149014502764
1740007295060337200,8.234337158203125,-1.645629025954008,13.511396498584746,0.4736678978294134
1740007295070318800,8.24431884765625,-1.5636543609701097,13.460693900829552,-0.4056149368226528
1740007295080302000,8.254302001953125,-1.5229916573226452,13.243869012981653,-1.3416899182766675
1740007295090284000,8.264283935546874,-1.4348819967150688,12.800872732269763,-2.341428685867786
1740007295100265000,8.274264892578126,-1.2381200920782982,12.052476623678206,-3.246934341534972
1740007295110248200,8.284248291015626,-0.8097251681707799,11.197249787396192,-3.882839212456345
1740007295120230000,8.29422998046875,0.148836808770895,10.401478179645538,-4.268806030479073
1740007295130212000,8.304212158203125,1.4210066160976886,9.704374451395868,-4.456640386164188
1740007295140194000,8.314194091796875,2.8676433480143544,9.456909510612487,-3.939129254955053
1740007295150176000,8.324176025390624,4.133391597861051,9.742216983056068,-2.703154212081432
1740007295160158000,8.334157958984376,4.762421322315931,10.244099167978764,-1.0427934809416533
1740007295170140000,8.344139892578125,4.774916646751761,10.63047982749939,0.5041600667268038
1740007295180121900,8.354121826171875,4.530607539650798,10.700063651335238,1.8945704690307377
1740007295190104000,8.36410400390625,3.975843659368157,10.455144303381443,3.433916464304924
1740007295200085800,8.374085693359374,2.9917168869286774,10.09619057996869,5.009791570553183
1740007295210068000,8.38406787109375,1.5764087747335433,9.320519510960578,6.307678587460518
1740007295220050200,8.39405029296875,0.28090675326660275,8.357959258162975,6.977538919475674
1740007295230033000,8.404032958984375,-0.7555225994706154,7.478761179184914,6.973796810337901
1740007295240015000,8.41401513671875,-1.7539514535069465,6.641039604455233,6.589095482206345
1740007295249996800,8.423996826171875,-2.486137016531825,5.732807738694548,5.98553220744133
1740007295259979000,8.43397900390625,-2.8065011893093583,4.801675474339723,5.284617396470904
1740007295269961000,8.4439609375,-2.8449346726000306,3.790689921069145,4.597293303957581
1740007295279943000,8.45394287109375,-2.691787599414587,2.8415929609566923,4.010898606136441
1740007295289925000,8.463925048828125,-2.304173598706722,2.073340643772483,3.422233625295758
1740007295299907000,8.473906982421875,-1.9378408709585666,1.3210799687072634,2.9777403840243815
1740007295309889000,8.483888916015625,-1.8266683146715164,0.6027005204558372,2.664348972868919
1740007295319871000,8.49387109375,-1.9490847340285777,-0.12488748564571142,2.455356678342819
1740007295329853200,8.503853271484376,-2.3750340183496474,-0.8921230270028114,2.5008558622360226
1740007295339835000,8.5138349609375,-2.8511832116007803,-2.0670812911167737,2.748039063468575
1740007295349818000,8.523818115234375,-2.951135285693407,-1.9032041496023535,3.7256449097067117
1740007295359800000,8.533800048828125,-3.2563106571674343,-2.7325162079051135,4.098388673540949
1740007295369782000,8.543781982421875,-3.4492157402455805,-3.553522502416372,4.117010956424474
1740007295379764000,8.553763916015624,-3.3495874912798405,-3.9377550439924,4.3423470675081015
1740007295389746000,8.563745849609376,-3.0774469589233395,-4.105913808348775,4.616221876311302
1740007295399728000,8.57372802734375,-2.696800459140539,-4.26191159479022,4.781594224819541
1740007295409709800,8.583709716796875,-2.0802058533668517,-4.652784889554977,4.838070729801059
1740007295419692000,8.593692138671875,-1.365436120045185,-4.901095048990846,4.933910107877851
1740007295429674000,8.603674072265624,-0.6230360369980334,-4.715729129245877,5.298551229277253
1740007295439656000,8.613656005859376,0.0028324469469487665,-4.713469952142239,5.589874016487598
1740007295449638000,8.623637939453126,0.3685235157907009,-4.8109039059340954,5.6427802617669105
1740007295459620900,8.633620849609375,0.4152396742582321,-5.144814373505115,5.527760382401943
1740007295469603000,8.64360302734375,0.5302114766977727,-5.421399025788903,5.346144755101204
1740007295479585000,8.6535849609375,0.47711124321632087,-5.4491228990167375,5.606941471144557
1740007295489567000,8.66356689453125,0.3461093663435429,-5.568768100094795,5.885553829863667
1740007295499549000,8.673548828125,0.40199090110659597,-5.756964274829626,6.324705710107088
1740007295509531100,8.68353125,0.4755820608876645,-6.068382340085506,6.901448782485723
1740007295519512800,8.693512939453125,0.21106968532204626,-6.311881299847364,7.638930698353052
1740007295529495000,8.7034951171875,-0.3432967200756073,-6.362595588040351,8.366688508063554
1740007295539477000,8.71347705078125,-1.0149430587247013,-6.041648062416911,9.242997879862784
1740007295549459000,8.723458984375,-1.7871276007913053,-5.329751254183054,10.546438439244032
1740007295559441200,8.733441162109376,-2.5857307787060737,-4.521911022976041,12.18453063995242
1740007295569422800,8.7434228515625,-3.578148409628868,-4.306792354524135,14.10712834907174
1740007295579406000,8.753406005859375,-4.824221360407769,-5.0342625794649125,15.58555605752468
1740007295589387800,8.7633876953125,-5.841275712198018,-6.227158359068632,15.830876387494802
1740007295599370000,8.773369873046875,-6.556846240508556,-7.561085242128372,15.254249050450325
1740007295609352000,8.78335205078125,-6.747414405071735,-8.606804255127907,14.359563479483127
1740007295619334000,8.793333984375,-6.331490840202569,-8.949506516441703,13.702114300751685
1740007295629316000,8.803316162109375,-5.659678789597749,-8.37053758470714,13.349427821040154
1740007295639298000,8.813298095703125,-4.789392331349849,-7.204236966562271,13.042142325544356
1740007295649280000,8.823280029296875,-3.994935605590045,-5.736960182198882,12.539327243685722
1740007295659262000,8.833261962890624,-3.393909448087215,-4.3001089312374585,11.9370452409029
1740007295669244200,8.843244140625,-2.955060934704542,-2.9896885959714647,11.428007339006662
1740007295679225900,8.853225830078125,-2.510859369856119,-1.6710142271012067,11.073829159432648
1740007295689208000,8.8632080078125,-1.9877999568700788,-0.24446458992362022,10.702518643271922
1740007295699191000,8.87319091796875,-1.4844671347476541,1.0153285509109498,10.087914919054507
1740007295709173000,8.883173095703125,-1.1115035906828938,1.9636060113340614,9.024300183880328
1740007295719155200,8.8931552734375,-0.8478045773267745,2.544900171145797,7.583395858135819
1740007295729137000,8.903136962890626,-0.7212018121957778,2.7893396266281605,5.9768315991133445
1740007295739119000,8.913119140625,-0.673487290340662,2.782531115657091,4.358014007717371
1740007295749100800,8.923100830078125,-0.6834289117056876,2.5822876525148746,2.879261305093765
1740007295759083000,8.9330830078125,-0.5576117439944297,2.370200899104774,1.6545669501692055
1740007295769065000,8.94306494140625,-0.4504406784337014,2.3950141455829144,0.8722674029320477
1740007295779047000,8.953046875,-0.47157465187720954,2.5365625509113072,0.5904495261698961
1740007295789028900,8.96302880859375,-0.3033609424632042,2.7085528562545775,0.3706313017249107
1740007295799011000,8.973010986328125,-0.10636318324394524,2.9440447429105636,0.2816097869694233
1740007295808994000,8.982994140625,-0.060341509846597904,3.055228989635408,0.1731540884256363
1740007295818976000,8.99297607421875,-0.02335625260286033,3.0532138504207134,0.018382628908753394
1740007295828958000,9.0029580078125,0.06891293883696198,3.254668150657415,-0.11268763702511787
1740007295838940000,9.01293994140625,0.22540566918849944,3.693974344679713,-0.08329904545545577
1740007295848922000,9.022922119140626,0.2374631867289543,4.111836184135079,0.05300619852244853
1740007295858903800,9.03290380859375,0.04368716603517532,4.446893775914609,0.04333586837947368
1740007295868886000,9.042885986328125,-0.20199439846277237,4.982295660862326,-0.18918518577218055
1740007295878868200,9.0528681640625,-0.42147652282118797,5.705951880472898,-0.32016251272559165
1740007295888850000,9.062849853515624,-0.5507997258920222,6.412638260582089,-0.31092472878098487
1740007295898832100,9.07283203125,-0.7054243973493576,7.082246079140901,-0.31658933041393755
1740007295908814000,9.08281396484375,-0.8542483466386794,7.594689405566453,-0.40962008081078527
1740007295918796000,9.092796142578125,-0.7513071006674319,8.207472928619385,-0.4907271691799164
1740007295928779000,9.102779052734375,-0.7802547435365617,8.95849763214886,-0.34484278047382827
1740007295938761000,9.112760986328125,-0.9508324786681681,9.37367008638978,-0.35837855387330053
1740007295948743200,9.1227431640625,-0.9487924242079258,9.557899695581197,-0.49264966167509555
1740007295958724900,9.132724853515626,-0.823056066647917,9.90562592253685,-0.3332353447884321
1740007295968707000,9.14270703125,-0.6746292999826371,10.48659158104658,0.06534837822318076
1740007295978689000,9.15268896484375,-0.5083972659051418,10.979855575227736,0.44554947232604025
1740007295988671000,9.1626708984375,-0.4797815584041178,11.344745702952146,0.7903606886178255
1740007295998653000,9.17265283203125,-0.49442602369785305,11.65893440196514,1.0723743802130221
1740007296008635100,9.18263525390625,-0.4997697228133678,11.996772856634854,1.3242442779570818
1740007296018616800,9.192616943359376,-0.4341315678633749,12.093423551094531,1.3428560394465923
1740007296028599000,9.20259912109375,-0.5435444210015237,11.99534545418024,1.2662035923987627
1740007296038582000,9.21258203125,-0.5452429685477167,11.993870120930671,1.318100368374586
1740007296048564000,9.22256396484375,-0.28976262522153556,12.30551381163597,1.600509196767211
1740007296058546200,9.232546142578125,0.05411963965706527,12.642563161754607,1.5703402684748171
1740007296068527900,9.24252783203125,0.4329951111793518,12.847211289596556,0.9828343945413828
1740007296078510000,9.252510009765626,0.7539525736749172,12.770779207301139,0.04428396288454532
1740007296088492000,9.262491943359375,1.0291817196965216,12.596147447538375,-0.9718412913620471
1740007296098474000,9.272473876953125,1.204685586118698,12.321038713026047,-2.1218109524309634
1740007296108456000,9.2824560546875,1.2335159592837095,11.898864271068572,-3.229097071549296
1740007296118438000,9.29243798828125,1.101526824939251,11.415647039127348,-4.058497977179289
1740007296128419800,9.302419921875,0.8491396253228187,10.94993623778224,-4.206538082614541
1740007296138402000,9.312402099609375,0.6487298657029866,10.505340705180167,-3.780771753644943
1740007296148385000,9.322385009765625,0.6082043785691261,10.18928971942663,-2.69983821940124
1740007296158367000,9.332366943359375,0.6729904467344283,10.019877740138769,-1.2069856797546148
1740007296168349000,9.342348876953125,0.795249629703164,9.898582433766126,0.2876397147834301
1740007296178331000,9.352330810546874,0.9768325237780808,9.75193232138455,1.474136148738861
1740007296188313000,9.36231298828125,1.1217431720811872,9.560256487840414,2.1668337509840727
1740007296198294800,9.372294677734375,1.1747855378955603,9.197107066303492,2.5440701500624416
1740007296208277000,9.382277099609375,1.0927022979706524,8.544389007747172,2.8004478806197644
1740007296218259200,9.39225927734375,1.0626830072820186,7.696239562505483,2.8525498237788676
1740007296228241000,9.402240966796874,1.0443518162995575,6.916127296179533,2.7232430603861806
1740007296238223000,9.41222314453125,0.875609114575386,6.131053023532033,2.627828629723191
1740007296248204800,9.422204833984376,0.6814929021418095,5.278403928783535,2.6440181325018406
1740007296258186500,9.4321865234375,0.5923083057790994,4.4868458470746875,2.6150825453966853
1740007296268169700,9.442169677734375,0.5698474676460027,3.8075834804639217,2.49506149674356
1740007296278151700,9.452151611328125,0.5345365002900362,3.151317081776261,2.1927590503573415
1740007296288133600,9.462133544921874,0.39766017842590806,2.477054130887985,1.6729127541989086
1740007296298115800,9.47211572265625,0.17039397606253623,1.7961767302960157,1.2350012294054031
1740007296308097500,9.48209765625,-0.1039022730231285,1.0894510410897433,1.299676238411665
1740007296318079700,9.492079833984375,-0.416724359858036,0.3646102878697216,1.4878969630658625
1740007296328061700,9.502061767578125,-0.6814578308284283,-0.3760074418053031,1.5977181047439575
1740007296338043600,9.512043701171875,-0.7969348063111305,-1.0503908042028545,1.7656284472972155
1740007296348025600,9.522025634765624,-0.8000351104140281,-1.6122703617095946,2.2063836710840463
1740007296358007600,9.532007568359376,-0.7060463286399841,-2.161305635212362,2.6087621102035046
1740007296367989500,9.541989501953125,-0.6479273902136832,-2.720208514995873,2.9640386064082382
1740007296377972500,9.551972412109375,-0.5050199714917689,-3.131919722867012,3.3077760559886693
1740007296387954700,9.56195458984375,-0.3196200033467263,-3.3056194624766704,3.700733171290159
1740007296397936600,9.5719365234375,-0.19530279186964034,-3.4679216097593306,4.037607749363779
1740007296407918600,9.581918701171874,-0.04471475551724434,-3.768852767792344,4.212296207749843
1740007296417900500,9.591900634765626,0.087202555700019,-4.128439528411627,4.343572225388884
1740007296427882800,9.6018828125,0.27369879464916885,-4.604874552866816,4.461786516880989
1740007296437864400,9.611864501953125,0.8272082909565418,-5.073620776385068,4.900618663650751
1740007296447846700,9.6218466796875,0.3752863609891385,-5.136051221334934,5.4940200253635645
1740007296457828900,9.631828857421874,0.9081506172180175,-5.635366770640015,5.907016304609179
1740007296467810600,9.641810546875,1.0561036288917065,-5.851776647946238,7.013556573796272
1740007296477792800,9.651792724609376,1.2854209185659884,-6.041279813626408,8.028218769752979
1740007296487775500,9.661775390625,1.5849508314989507,-6.154733174327015,8.903464896234869
1740007296497757700,9.6717578125,1.3506921398997307,-6.324778775343298,9.694460960146785
1740007296507739600,9.68173974609375,1.2954153660967944,-6.688143300935626,10.206631314849853
1740007296517721600,9.6917216796875,1.3717489564538001,-7.061711240634322,10.276565851819514
1740007296527703800,9.701703857421874,1.221978081703186,-7.412301624849438,10.276584556519985
1740007296537685800,9.711685791015626,0.947204862755537,-7.602367100587487,10.552326912760734
1740007296547667700,9.721667724609375,0.706677758411318,-7.524085591033101,11.26769285840988
1740007296557649700,9.731649658203125,0.6642856736879795,-7.132519053307175,12.256755333685874
1740007296567631600,9.741631591796875,0.6538765809416771,-6.803515062478184,12.93911215918064
1740007296577613600,9.751613525390624,0.4151565990846604,-6.820946674272418,13.189188159245251
1740007296587595800,9.761595703125,0.12791428612098096,-7.196212650060653,13.099217380940914
1740007296597578800,9.771578857421876,0.0905084653776139,-7.750617633903026,12.68629358240962
1740007296607560700,9.781560791015625,0.05595028915032744,-8.715250601321458,11.636547213590145
1740007296617542700,9.791542724609375,0.15769100022539495,-9.677722591313719,10.281768096637725
1740007296627524600,9.801524658203125,0.18305720441117881,-10.095449406212568,9.355815280747413
1740007296637506800,9.8115068359375,0.2223519807063043,-9.851812499284744,9.075351741203665
1740007296647488500,9.821488525390626,0.12880275939330457,-9.008699879166484,9.122093618634343
1740007296657470700,9.831470703125,-0.14246683534756302,-7.77696261999309,9.448750754076242
1740007296667452700,9.84145263671875,-0.6323533159196376,-6.4923465880692,9.910145445787906
1740007296677434600,9.8514345703125,-1.2352467285990714,-5.219112950903177,10.371704972672461
1740007296687416600,9.86141650390625,-1.5484161675669252,-3.913394509717822,10.562523312604426
1740007296697398800,9.871398681640626,-1.653434877399355,-2.4633272188305853,10.434809955883026
1740007296707381800,9.8813818359375,-1.6774635493710637,-0.997850761887431,9.904902284437417
1740007296717363700,9.89136376953125,-1.6718927635014056,0.19113748888373375,8.852171931371092
1740007296727345700,9.901345703125,-1.4940601618707179,0.935858123832941,7.318331547775864
1740007296737327600,9.91132763671875,-1.3542318583332,1.324379887035489,5.587463448214531
1740007296747309600,9.9213095703125,-1.2748270438373088,1.5350737247824668,4.333326725706458
1740007296757291500,9.93129150390625,-0.8257143260717391,1.6857371644586323,3.486300731536746
1740007296767273700,9.941273681640626,-0.9662579382717609,1.5926277958676218,2.6876012536406515
1740007296777255700,9.951255615234375,-1.0954641638994216,1.595219565926492,2.3258348108947278
1740007296787237600,9.961237548828125,-1.698827386047691,2.0601398014158008,2.370363103929162
1740007296797219800,9.9712197265625,-2.2189969228111206,2.404818623499572,2.279065460935235
1740007296807201500,9.981201416015624,-2.1915970208406446,2.6307658522188664,1.90493579570055
1740007296817184800,9.991184814453124,-2.2009727519512174,2.8679978605404495,1.6704864038348197
1740007296827166500,10.00116650390625,-2.1764954594291743,3.137360744877159,1.581855349701643
1740007296837148700,10.011148681640625,-1.9916133776783942,3.4921257844284175,1.569027432310581
1740007296847131000,10.021130859375,-1.700632681903988,4.007865522050857,1.464040871182084
1740007296857112600,10.031112548828125,-1.5498400628902018,4.619911963000893,1.4533902978301048
1740007296867094800,10.0410947265625,-1.6432430076003073,5.056480256491899,1.3273445820599794
1740007296877076700,10.05107666015625,-1.7923602407477794,5.492994189447164,0.975821300908923
1740007296887058700,10.06105859375,-1.8848633140087128,6.023001229614019,0.6500508851736784
1740007296897040600,10.07104052734375,-2.0209986082471905,6.478790940925479,0.47560675693750376
1740007296907022600,10.081022705078125,-2.132277547518164,6.936713572612405,0.26456629770994183
1740007296917004500,10.091004638671874,-2.121398426107317,7.414699333640932,0.14163842169940472
1740007296926987800,10.10098779296875,-2.0435877489350736,7.981227301475405,-0.018953706794977185
1740007296936969700,10.1109697265625,-1.9633682570554314,8.440754445749521,-0.2250193002194166
1740007296946951700,10.12095166015625,-1.881435531517118,8.86327083301246,-0.32353461950719353
1740007296956933600,10.13093359375,-1.7937291910134254,9.352975673407316,-0.331724940225482
1740007296966915600,10.14091552734375,-1.6867219377122817,9.805906488156317,-0.31209611064791676
1740007296976897800,10.150897705078124,-1.5695910575427114,10.201445436644553,-0.17992343643009662
1740007296986879500,10.16087939453125,-1.4472422965943812,10.646835919016599,-0.0356231020450592
1740007296996861700,10.17086181640625,-1.3501494113251566,11.085243702894449,0.08854922106862068
1740007297006843600,10.18084375,-1.2550002074696123,11.408564971911906,0.1606488271176815
1740007297016825600,10.19082568359375,-1.250121787778288,11.6150356390059,0.16974106511175632
1740007297026807600,10.2008076171875,-1.2938579075217247,11.696475904852152,0.12070669282972812
1740007297036790500,10.21079052734375,-1.3605696830525993,11.773813996076584,0.20686521936953067
1740007297046772700,10.220772705078126,-1.4561659000232814,11.92995849751234,0.40189679308235643
1740007297056754700,10.230754638671876,-1.5187445212721824,12.145156076419353,0.5213742363780737
1740007297066736600,10.240736572265625,-1.520736864133179,12.290989611721038,0.4807604864388704
1740007297076718600,10.250718505859375,-1.4392602117992936,12.37494916691184,0.27206805164217945
1740007297086700800,10.26070068359375,-1.319505705127865,12.31202304739952,-0.1399491534382105
1740007297096682500,10.2706826171875,-1.2756256468690932,12.176148596054315,-0.6201426536440849
1740007297106664700,10.280664794921876,-1.316425420899689,11.853874790263175,-1.2666618575602768
1740007297116646700,10.290646728515625,-1.3956312056921423,11.313255170667171,-1.901192517518997
1740007297126628600,10.300628662109375,-1.5013935734987258,10.693901621574163,-2.2087270193397996
1740007297136610800,10.31061083984375,-1.5448445926904677,10.040324315840005,-2.288117366918921
1740007297146593500,10.320593505859375,-1.4406759238161146,9.489662610179185,-1.90120596152246
1740007297156575700,10.33057568359375,-1.157677020575851,9.0183111725986,-0.8658581204116343
1740007297166557400,10.340557373046876,-0.8072457724452018,8.619522866925596,0.30506957301199433
1740007297176539600,10.35053955078125,-0.3212052997767925,8.247108188915252,1.5119289960384368
1740007297186521900,10.36052197265625,0.42009464000873264,7.9248191855549805,2.63435832375288
1740007297196503600,10.370503662109375,1.3556184903860091,7.698685786613821,3.3709003284215924
1740007297206485800,10.38048583984375,2.154617974141985,7.510476167875528,3.53220908075273
1740007297216467700,10.3904677734375,2.6164135017395016,7.199606384152173,3.1851059541314837
1740007297226449700,10.40044970703125,2.704820099467039,6.719179659712315,2.588396783044934
1740007297236431600,10.410431640625,2.301863714329153,6.130359196048975,1.984741153821349
1740007297246413800,10.420413818359375,1.5343337200701235,5.50960045633316,1.6225246292203663
1740007297256396800,10.430396728515625,0.8761748586993664,4.777537935166061,1.5379881509244442
1740007297266378800,10.440378662109374,0.5445792439419775,3.9024583974227305,1.4499182378053663
1740007297276360700,10.450360595703126,0.4365023155827075,2.954508853779733,1.5362246483832598
1740007297286343000,10.460343017578126,0.44213476851172745,2.069782074508071,1.6055676492005586
1740007297296324900,10.470324951171875,0.28965397721529007,1.3389523100063203,1.2371581151783466
1740007297306306800,10.480306884765625,0.06137125475313514,0.690226682087034,0.628501316666603
1740007297316289000,10.4902890625,-0.12054240564610809,0.05513999568074941,-0.02761106050312519
1740007297326270700,10.500270751953124,-0.15227730461359024,-0.5800654947996139,-0.5272708932012319
1740007297336253000,10.5102529296875,0.06486088696718216,-1.0621965389393269,-0.7784732669472694
1740007297346235000,10.52023486328125,0.35444709617588666,-1.3643949404291809,-0.6871101575016975
1740007297356216800,10.530216796875,0.5616367251941934,-1.683444085085392,-0.4890554365754127
1740007297366200000,10.540199951171875,0.6535480796396732,-2.082836201870441,-0.2415986790984869
1740007297376181800,10.550181640625,0.5126350496053695,-2.267032493314147,0.18664076198637483
1740007297386164000,10.5601640625,0.2699661109268665,-2.3858327680006624,0.38590076704919335
1740007297396146000,10.57014599609375,-0.21181202812194824,-2.35885971314013,0.6231400818943977
1740007297406127900,10.5801279296875,-0.7769793020624667,-2.406350070850551,0.685658205127716
1740007297416109800,10.59010986328125,-1.182884161742404,-2.5832714028552175,0.7680091560781002
1740007297426092000,10.600092041015625,-1.6433318549275397,-2.844971205218136,1.0588654948204754
1740007297436073700,10.61007373046875,-1.891925507479906,-2.104952172088623,2.067715205106139
1740007297446056000,10.620055908203126,-2.5885902597904202,-2.0695012117400764,2.5878292122900484
1740007297456037600,10.63003759765625,-2.6952573213517663,-2.6634049700170754,2.8221172761142252
1740007297466019800,10.640019775390625,-1.6570190194964407,-3.056440411251783,3.095570644634962
1740007297476002800,10.6500029296875,-0.31321020936965943,-3.2940263475775717,3.9614246733933687
1740007297485984800,10.65998486328125,1.2386907315731048,-3.4634681374818084,5.641468594646454
1740007297495967000,10.669967041015624,2.8519980351150034,-3.80338164485991,7.1457976370751854
1740007297505948700,10.67994873046875,3.7237107267737386,-4.451836785274744,7.97922297591567
1740007297515931000,10.689930908203126,4.0006057601809495,-5.117443551498651,8.583307059684396
1740007297525912800,10.699912841796875,3.9760622705549,-5.649753023388982,8.921359449365735
1740007297535894800,10.709894775390625,3.523248360183835,-6.113436118298768,9.275238353732227
1740007297545877000,10.719876953125,2.976349806448817,-6.646107409238815,9.941855758303403
1740007297555859000,10.72985888671875,2.8363375246465203,-6.763546040183305,10.955690271264315
1740007297565841000,10.7398408203125,2.769934668934345,-6.552323794648051,12.073337040877341
1740007297575824000,10.749823974609376,2.6708891882926222,-6.500604713326692,13.100650628614424
1740007297585805800,10.759805908203125,2.410865794709325,-6.767991329154372,13.606313501119613
1740007297595787800,10.769787841796875,2.063866128462553,-7.256867902031541,13.395139770901203
1740007297605770000,10.77977001953125,1.6903689159125088,-7.936546448227762,12.641338003873825
1740007297615752000,10.789751953125,1.4198434175372123,-8.650311972942948,11.73127950720787
1740007297625734000,10.79973388671875,1.284457626491785,-9.144732151421904,10.872506961143015
1740007297635715800,10.8097158203125,1.2739116825580596,-9.185158854356407,10.289422995305062
1740007297645697800,10.81969775390625,1.3433926305413246,-8.662228036186098,9.997283631014824
1740007297655680000,10.829679931640625,1.112936692225933,-7.700201451873779,9.776084765866399
1740007297665661700,10.83966162109375,0.7992623724758624,-6.618500440388917,9.494377363741398
1740007297675644000,10.849643798828126,0.3727496090531349,-5.4878872216969725,9.138077369707823
1740007297685627000,10.859626953125,-0.09333411725759505,-4.400228763112426,8.78628637753129
1740007297695608800,10.86960888671875,-0.6131785867851227,-3.355580009692907,8.469872403684258
1740007297705591000,10.879591064453125,-1.1169195513170211,-2.327693005982041,8.074362681290507
1740007297715572700,10.88957275390625,-1.4822855529248713,-1.4058920490741729,7.650772527316212
1740007297725555000,10.899554931640624,-1.7313105826318262,-0.5683171893388033,7.0731602708876125
1740007297735537000,10.909536865234376,-1.9146622399449347,0.04422141904234886,6.208654149606824
1740007297745518800,10.919518798828125,-1.9482289939820765,0.4722340656340122,5.137780821606516
1740007297755500800,10.929500732421875,-1.8646973088145256,0.7198696868091822,4.017761477643251
1740007297765483000,10.93948291015625,-1.7446831282936035,0.8388613924145698,2.9917519582420584
1740007297775464700,10.949464599609374,-2.0836077707648277,0.9037988517493009,2.333610705593228
1740007297785447000,10.959447021484374,-2.6109832933843133,1.042495082516968,1.95769649502933
1740007297795430000,10.969429931640626,-2.9884476559996602,1.1953639232829212,1.6574650096982717
1740007297805411800,10.979411865234376,-3.2121655182316897,1.3337620478868484,1.3413076409608125
1740007297815394000,10.98939404296875,-3.2367069620311257,1.4619769243896006,1.163978312677145
1740007297825375700,10.999375732421875,-2.8485645535349846,1.7610034178450702,1.102625141569972
1740007297835358000,11.00935791015625,-2.2382488819003106,2.127932942442596,1.148047168573737
1740007297845339600,11.019339599609374,-1.7655811010241507,2.5066584110349415,1.2301795083373783
1740007297855321900,11.02932177734375,-1.4388529461726545,2.9258073676913976,1.2599229046940803
1740007297865303800,11.0393037109375,-1.2287176190912723,3.3245386824801564,1.1302496460765599
1740007297875285800,11.04928564453125,-1.1691164062179624,3.7229923493713137,0.9158750739902257
1740007297885268000,11.05926806640625,-1.1643236189834774,4.139612079811096,0.8006810071021317
1740007297895250700,11.069250732421875,-1.275397244940698,4.619238593783974,0.7828168491095304
1740007297905233000,11.07923291015625,-1.3914146109104155,5.163330857926606,0.785173056846857
1740007297915214800,11.08921484375,-1.5295347953557967,5.686753259006142,0.6728916625350714
1740007297925196800,11.09919677734375,-1.6846093294724822,6.1496238684892655,0.487283166205883
1740007297935178800,11.1091787109375,-1.800853489935398,6.735303696039319,0.36925825980603694
1740007297945161000,11.119160888671875,-1.9403116449862718,7.349989253321289,0.2764092957168817
1740007297955143000,11.129142822265624,-2.0520210846289992,7.895791243991256,0.07822130379974841
1740007297965124900,11.139124755859376,-2.109897811797261,8.382889116758108,-0.2102455094575882
1740007297975107000,11.149107177734376,-2.100871332515776,8.784731549304723,-0.5379612140417098
1740007297985088800,11.1590888671875,-2.0371561084523795,9.22036402325034,-0.7489630948245525
1740007297995072000,11.169072021484375,-1.9670152352556585,9.631683309194445,-0.9431213928341865
1740007298005053700,11.1790537109375,-1.8766668558105826,9.989004462969303,-1.1025193431079388
1740007298015036000,11.189035888671874,-1.7607701936110853,10.31794298734665,-1.1503279729872942
1740007298025017900,11.199017822265626,-1.6441218362614511,10.592550202077627,-1.2676526221632958
1740007298034999800,11.208999755859375,-1.5408715974062681,10.682449668711424,-1.4241583581268786
1740007298044982000,11.21898193359375,-1.4891048775509,10.687886891329288,-1.4850813211232423
1740007298054963700,11.228963623046875,-1.4781164505466817,10.63670498562455,-1.3490028716385363
1740007298064946000,11.23894580078125,-1.4669038593977688,10.797195991832018,-0.7545476169586182
1740007298074927900,11.248927978515624,-1.4605615046337246,11.106535497248172,-0.02894435493350029
1740007298084909800,11.258909912109376,-1.4719012292936444,11.326065552401541,0.44366789636313914
1740007298094891800,11.268891845703125,-1.4189967375800012,11.331970392531156,0.5946107375025749
1740007298104874800,11.278874755859375,-1.3266726741477846,11.015354758632183,0.1225245559066534
1740007298114857000,11.28885693359375,-1.3516677069336176,10.444344676947592,-0.7143272502511739
1740007298124839000,11.2988388671875,-1.3418544611886143,10.083353310227393,-1.390813137885928
1740007298134820900,11.30882080078125,-1.382336693702638,9.864581964486836,-1.9170856676995753
1740007298144802800,11.318802734375,-1.6674901446282862,9.45759515478909,-2.472466218575835
1740007298154785000,11.328784912109375,-2.066821617267281,8.911245467108488,-2.9110867684215305
1740007298164766700,11.3387666015625,-2.4566096010133625,8.450503101825714,-2.877337059032917
1740007298174749000,11.3487490234375,-2.6720073786675926,8.23206142643094,-2.3790321480751038
1740007298184731000,11.35873095703125,-2.507987029290199,8.387259586927295,-1.443158242151141
1740007298194712800,11.368712890625,-2.0330068798184393,8.683168532884121,-0.33824703547060486
1740007298204696000,11.378696044921876,-1.6482302944935858,8.858716238448023,0.8360872515261173
1740007298214677800,11.388677734375,-1.3169080898500978,8.866001719281076,1.9930232444763183
1740007298224660000,11.398659912109375,-1.013039563190937,8.633293618124723,2.9587907688826323
1740007298234641700,11.4086416015625,-0.693761724345386,8.204660209286212,3.6521617403447624
1740007298244624000,11.418623779296874,-0.42214273164495825,7.400640413150191,3.976495401275158
1740007298254606000,11.428606201171876,0.010836889704316854,6.126396722158789,3.900532690057158
1740007298264587800,11.438587890625,0.7999776811383664,4.723897238132357,3.5383605891197916
1740007298274570000,11.448570068359375,1.8230724821366369,3.515139288008213,3.124740625017881
1740007298284552200,11.45855224609375,2.6953075902342793,2.5712340513199567,2.706313552895188
1740007298294534000,11.468533935546875,3.1378619723975656,1.7376079292103648,2.385097731724381
1740007298304516000,11.47851611328125,3.1554712788462638,1.0028457936957478,2.2297370741426943
1740007298314498800,11.488498779296876,2.752566185504198,0.3512824581325054,2.3180396269738672
1740007298324481000,11.49848095703125,2.347798805421591,-0.3023445319622755,2.5182646776765583
1740007298334463000,11.508462890625,2.266213578146696,-0.9906243177652359,2.4785247879624364
1740007298344445000,11.51844482421875,2.3065222076594827,-1.7399428018987178,2.2891858729332686
1740007298354427100,11.52842724609375,2.3223417080819604,-2.51874632371366,1.7284674681603907
1740007298364409000,11.5384091796875,2.228262909936905,-3.0062244279697534,1.1361965717822313
1740007298374391000,11.54839111328125,2.0784744995296,-3.083015114444494,0.7815104426860809
1740007298384373000,11.558373046875,1.828634646308422,-2.976401828896999,0.6787602623075246
1740007298394355000,11.56835498046875,1.3308873692333698,-2.8845611650675536,0.6733826609224081
1740007298404337000,11.5783369140625,0.5469616090338677,-2.8292247700318693,0.7079653140038251
1740007298414319900,11.58831982421875,-0.26046653424091637,-2.8643013441100713,0.8207745315819979
1740007298424302000,11.598302001953124,-1.0135949320513755,-2.8561422953128814,1.1029799463570118
1740007298434284000,11.608283935546876,-1.650287957675755,-2.72475463399291,1.5501099658727644
1740007298444266000,11.618265869140625,-2.1270332171238957,-2.5502286726921795,2.063101573830843
1740007298454248000,11.628248046875,-2.569463534516096,-2.5206851828217505,2.687247617897391
1740007298464230100,11.638230224609375,-2.983945668405294,-2.567259302470088,3.4023464370429513
1740007298474211800,11.6482119140625,-3.164371209138632,-2.6404835286349058,4.036453318631649
1740007298484194000,11.658194091796876,-3.1641511366471646,-2.5944272953808305,4.646452179402113
1740007298494176000,11.668176025390625,-3.0633178958058354,-2.405326280760765,5.312299184122681
1740007298504158000,11.678157958984375,-2.998655454020202,-2.1957991487056017,6.030546822687983
1740007298514141200,11.68814111328125,-3.0289421634733675,-2.1695085231512783,6.829824977254868
1740007298524123000,11.698122802734375,-3.1714941928863523,-2.340677575239539,7.866200992369651
1740007298534105000,11.70810498046875,-3.3758094355121253,-2.7410803303718567,8.975696604230999
1740007298544087000,11.718087158203126,-3.399949020512402,-3.4106185908257958,9.563167406851052
1740007298554069000,11.728069091796876,-3.4557729068040848,-4.154874530872703,9.99022026849985
1740007298564051000,11.738051025390625,-3.4655905364632607,-4.574675813958049,10.80877069429159
1740007298574033000,11.748032958984375,-3.459392266345024,-4.4805379791021345,11.67752921231985
1740007298584014800,11.758014892578124,-3.442502798603475,-4.565582991442084,11.949095744180678
1740007298593997000,11.7679970703125,-3.4741078971788286,-4.710943648535013,11.661535524374246
1740007298603978800,11.777978759765626,-3.739637779223919,-5.21671933376491,10.952877551931142
1740007298613961000,11.7879609375,-4.076179472081363,-5.761857307568192,10.20208490359187
1740007298623944000,11.79794384765625,-4.401594790768623,-6.102679161962866,9.505345332479477
1740007298633926000,11.80792578125,-4.710985734111071,-6.540577827274799,8.788399424162506
1740007298643908000,11.817908203125,-4.883068101651967,-7.355923904067278,7.9599594725191585
1740007298653889800,11.827889892578124,-4.828226504395902,-7.665351672288775,7.554397142666578
1740007298663872000,11.8378720703125,-4.489986483187973,-7.4440668824225655,7.757972672840952
1740007298673854000,11.84785400390625,-3.9684333831116554,-6.697962684160471,8.093183701616525
1740007298683836000,11.8578359375,-3.4558009638547897,-5.752929904747009,8.153742507475615
1740007298693818000,11.867818115234375,-3.283980462120473,-4.912606623086333,7.9254037074446675
1740007298703800000,11.877800048828124,-3.175428025203943,-4.109194145193696,7.676442390623688
1740007298713782000,11.887781982421876,-2.992396393625438,-3.2252333818584678,7.594022466090321
1740007298723764000,11.897763916015625,-2.8754394087180493,-2.332583700633049,7.552164853569865
1740007298733747000,11.907746826171875,-2.80001738024801,-1.599903047567606,7.395880651402473
1740007298743729000,11.91772900390625,-2.6423358785033226,-1.1578922707617283,6.9893637973040335
1740007298753711000,11.927711181640625,-2.509655839285254,-0.8949731557369232,6.3837862601071595
1740007298763693000,11.937693115234374,-2.2460991570092737,-0.7818313452035188,5.730943113866448
1740007298773675000,11.947675048828126,-1.9631142822943626,-0.7110013206988572,5.208582204538583
1740007298783657000,11.957656982421875,-1.613944432401657,-0.5368877395913004,4.736436401709914
1740007298793639000,11.967638916015625,-1.1717384252846241,-0.33451895485818384,4.457463977506756
1740007298803622000,11.977621826171875,-0.7670610615730286,-0.1812862492159009,4.290288963490724
1740007298813603800,11.987603759765625,-0.2901134114205837,0.005977613104879855,4.190046382018924
1740007298823586000,11.9975859375,0.13730886806249618,0.3561827973946929,4.0859161454588175
1740007298833568000,12.007568115234376,0.3570342996574938,0.7359516375601292,3.879162569770217
1740007298843550000,12.017550048828125,0.6980221582688391,1.286286887745559,3.8133074110686778
1740007298853532200,12.0275322265625,1.1865547400139271,2.0176012208938596,3.6732033593297
1740007298863513900,12.037513916015625,1.5090180770277977,2.8097534691035744,3.3002421533524986
1740007298873496000,12.04749609375,1.6384943517684936,3.6781092515498397,2.806531584447622
1740007298883478000,12.05747802734375,1.5704033968389033,4.5902021766528485,2.387649754294753
1740007298893460000,12.0674599609375,1.4130699778795242,5.51155860466361,2.1293021849691867
1740007298903443200,12.077443115234376,1.382926184028387,6.377265918427705,1.888864950865507
1740007298913425000,12.0874248046875,1.3793722909390926,6.977582758617401,1.420560041373968
1740007298923407000,12.097406982421875,1.4410463645637035,7.413645440673828,0.8148562474489212
1740007298933389000,12.10738916015625,1.5965069753885268,7.8157351259797805,0.4340566029310226
1740007298943371000,12.11737109375,1.6481788565672932,8.406954467478394,0.341254985114932
1740007298953353000,12.12735302734375,1.558441740888357,9.119722213327885,0.20055589009225366
1740007298963335000,12.1373349609375,1.5300573579251766,9.708370827555656,-0.39883156029284
1740007298973316900,12.14731689453125,1.4745955829441546,10.038438648223876,-1.237690614619851
1740007298983299000,12.157299072265625,1.1964822597883642,10.187527970451116,-2.021153360417485
1740007298993280800,12.16728076171875,0.8181234325513244,10.240055445545911,-2.6240035184770822
1740007299003264000,12.177263916015624,0.573332679413259,10.2428728410542,-3.0024253279477358
1740007299013246000,12.187245849609376,0.4847942719995975,10.272243896967172,-3.2712323319673535
1740007299023228000,12.197227783203125,0.5100758666418492,10.439899972498417,-3.274901960390806
1740007299033210000,12.207210205078125,0.4976104989528656,10.80300964654684,-3.126995125946402
1740007299043191800,12.21719189453125,0.34062998508438463,11.089276903933285,-2.884593898293376
1740007299053174000,12.227174072265624,0.07588949985131621,11.30657759259939,-2.571937815675139
1740007299063156000,12.237156005859376,-0.2039071002162993,11.537445034325122,-2.1091268274247645
1740007299073138000,12.247137939453125,-0.47010158364996313,11.928515897488593,-1.2174597274959087
1740007299083120000,12.2571201171875,-0.6851379806458949,12.45443596060276,-0.20450433545708654
1740007299093102000,12.26710205078125,-0.930549349900335,12.737856596386433,0.6006652152359485
1740007299103084000,12.277083984375,-1.2711363726258278,12.510551231056452,1.0288462041318416
1740007299113066000,12.28706591796875,-1.7031703836880623,12.047070965242385,1.2044412559688091
1740007299123048200,12.297048095703126,-2.073349411600828,11.672962927317618,1.5779232709497213
1740007299133030000,12.30702978515625,-2.430035043951124,11.36821659491062,1.9999702871352434
1740007299143012000,12.31701220703125,-2.6549323252260684,10.970652862596511,2.354039161115885
1740007299152993800,12.326993896484375,-2.552232998251915,10.646586912691593,2.5705758796721696
1740007299162976000,12.33697607421875,-2.2523766298435626,10.331077194207905,2.8313410315334795
1740007299172959000,12.346958984375,-1.8231296191513537,9.974066421556472,2.8764906713366507
1740007299182941000,12.35694091796875,-1.2712263889968394,9.456123913192748,2.7323370519459247
1740007299192923100,12.366923095703125,-0.6207412040591239,8.843264986816049,2.5421733765304086
1740007299202904800,12.37690478515625,-0.14460019411444663,8.50578835119605,2.4881851812332867
1740007299212887000,12.386886962890625,0.1316612175643444,8.233077909997105,2.675487037476897
1740007299222869000,12.396868896484374,0.28369769915938375,7.863104195398092,3.1627117514938115
1740007299232851000,12.406850830078126,0.23055289588384328,7.342611418029666,3.790205352422595
1740007299242833000,12.4168330078125,0.16077734886817632,6.728212276473641,4.261000909686088
1740007299252814300,12.426814453125,0.03210428026914596,5.974966974285245,4.212642829230427
1740007299262796300,12.43679638671875,-0.19245259007029233,5.186265158790349,3.7885868113100525
1740007299272778200,12.4467783203125,-0.3469347843170166,4.440004308661818,3.1452228565543887
1740007299282761200,12.45676123046875,-0.4087690169394016,3.733170921297371,2.30052209046185
1740007299292743400,12.466743408203126,-0.3647627384850755,3.1405683087468144,1.4436270287066697
1740007299302725400,12.476725341796875,-0.2675672696242109,2.6432380880400537,0.7231395022600888
1740007299312707300,12.486707275390625,-0.17565357709117232,2.225778107383847,0.23079086935818194
1740007299322689300,12.496689208984375,-0.024582652592658995,1.8162021579757333,-0.20311317335963247
1740007299332671500,12.50667138671875,0.04420384685304016,1.3705680761061607,-0.47499768512845036
1740007299342653200,12.516653076171876,0.0463759301951155,0.9492730473317206,-0.4545733212590217
1740007299352635400,12.526635498046875,0.030459417405258864,0.4697140456371009,-0.3814285900712013
1740007299362617300,12.536617431640625,-0.027197803527116773,-0.03416793480068445,-0.3125052759706974
1740007299372599300,12.546599365234375,-0.07232172436714172,-0.5120953897707164,-0.15024959817826747
1740007299382582500,12.55658251953125,-0.06835634613381698,-1.0141497163899242,0.0972533365279436
1740007299392564200,12.566564208984374,-0.041807343637943264,-1.4867238276332615,0.3497346441686153
1740007299402546400,12.57654638671875,0.025667506953608244,-1.8667104022026062,0.7563087814122438
1740007299412528400,12.5865283203125,0.14644381268713622,-2.119471111306548,1.2325374696403741
1740007299422510300,12.59651025390625,0.3058019789397716,-2.28505184186846,1.5056804570376872
1740007299432492300,12.6064921875,0.3913993644654751,-2.4495222731009125,1.7171113768875599
1740007299442474200,12.61647412109375,0.45454760229587554,-2.6286557281970975,2.193922248917818
1740007299452456400,12.62645654296875,0.5657856250345706,-2.6563872002094984,2.8300369631975886
1740007299462438400,12.6364384765625,0.5107469708364457,-2.6247657350212332,3.496142326593399
1740007299472420400,12.64642041015625,0.27432189498357473,-2.5840634300157426,3.988975528141856
1740007299482403300,12.6564033203125,-0.11083594474382698,-2.7078049604967234,4.4074026002645486
1740007299492385300,12.66638525390625,-0.6405612453598529,-3.0753415110766884,4.90308242341578
1740007299502367200,12.6763671875,-1.0179087035972625,-3.6659441819816827,5.147624754750728
1740007299512349400,12.686349365234374,-1.1264649399060755,-4.247258800059557,5.414076720076799
1740007299522331400,12.696331298828126,-1.0713690756279974,-4.767745147687196,5.779848891332745
1740007299532313300,12.706313232421875,-0.8346412174362688,-4.985028300696611,6.320601781919598
1740007299542295600,12.716295654296875,-0.7096691953122616,-5.085832023182511,7.254557871523499
1740007299552277200,12.72627734375,-0.643752515681833,-5.347884292244911,8.379766016301513
