time,seconds_elapsed,z,y,x
1740006935749753300,0.03775341796875,0.6891518924623727,-3.3742852946847677,0.8734984060317278
1740006935759735000,0.047735107421875,0.0662444502800703,-4.564404595312476,1.0239717299632727
1740006935769717200,0.05771728515625,-0.0026665888607501982,-3.9332814057096837,2.477852880050242
1740006935779698200,0.0676982421875,-0.5129267260283231,-2.118926629166305,2.9808494559556244
1740006935789680000,0.07768017578125,-0.6119231068313121,-1.4341685877487063,2.0574464706785975
1740006935799662000,0.087662109375,-0.8163678210556506,-1.9783948535345495,0.9070543464139104
1740006935809644300,0.097644287109375,-1.001230467453599,-2.119032719889283,-0.39163025061190126
1740006935819625200,0.107625244140625,-1.2171972771674393,-1.7130553794950245,-1.0511654418371617
1740006935829607200,0.117607177734375,-1.3448738090097903,-1.5123139037027955,-1.309073158440739
1740006935839589000,0.127589111328125,-1.803589636901021,-2.077045197378844,-0.8701388664707541
1740006935849571300,0.1375712890625,-2.286053420126438,-2.5594006979241968,-0.4373478995613754
1740006935859553000,0.147552978515625,-2.313330718630552,-2.59870862596184,1.105959546689689
1740006935869534200,0.1575341796875,-2.6346283728659152,-2.746204541517794,3.5728619936585426
1740006935879516200,0.16751611328125,-3.125250912627578,-1.402673087027669,2.8532401441305875
1740006935889498000,0.177498046875,-2.8722178163230416,-0.9887062822494656,2.1210063580498097
1740006935899480800,0.187480712890625,-3.269140912646055,-0.9864874371562152,1.6035460802450776
1740006935909461800,0.197461669921875,-3.297123729071021,-0.8731754576876759,0.9624126610204576
1740006935919444000,0.20744384765625,-3.418179381468892,-0.6492012826070189,0.8677636617720127
1740006935929425700,0.21742578125,-3.55058001922369,-0.31724187603853643,0.982231460212171
1740006935939408000,0.227407958984375,-3.773320853117108,0.02783215590789914,1.4630831320658326
1740006935949388800,0.237388916015625,-3.8980274292379615,0.23853425002656875,1.7367489742934703
1740006935959370800,0.247370849609375,-3.8047546867787836,0.37703616379853333,1.742210162308812
1740006935969352700,0.257352783203125,-3.482065285924077,0.6201792593274266,1.6317691351667045
1740006935979335000,0.2673349609375,-2.9251579638719556,0.8631737766984849,1.3623670878633856
1740006935989315800,0.27731591796875,-2.4944220297962425,0.7544489788897335,0.5852285766512155
1740006935999297800,0.2872978515625,-1.5287795930743218,1.0044731026366351,-0.1356713299885392
1740006936009279700,0.29727978515625,-0.6729694039463997,1.4057375891648232,-0.7158876314356922
1740006936019262000,0.307261962890625,0.16790449733436108,2.098549027048051,-1.5456287288054822
1740006936029243000,0.317242919921875,1.0308137048125265,2.2112466009452936,-1.3749629500642417
1740006936039224800,0.327224853515625,1.9723662408947944,1.6706266890883446,-0.7723597525030375
1740006936049206800,0.337206787109375,2.161484206649661,1.7359606003947554,-0.21072861679941415
1740006936059188700,0.347188720703125,2.115907281345129,1.4219859825238585,0.9215493202343582
1740006936069169700,0.357169677734375,2.164102280193567,1.093805583037436,0.791389154882729
1740006936079151900,0.36715185546875,2.3763170438975094,1.0541419734299182,0.16067337703704834
1740006936089133800,0.3771337890625,2.526473703095317,1.2923928034052252,-0.3596305997610092
1740006936099115800,0.38711572265625,2.756538596266508,1.6062740439042449,-0.5208297542378306
1740006936109097700,0.39709765625,2.989502133488655,1.9023288280725479,-0.22728666062951086
1740006936119079000,0.407078857421875,4.0135640259534116,2.8121573153749106,0.6769687027156353
1740006936129060900,0.417060791015625,6.017775603920221,4.20336822040677,2.080262551990151
1740006936139042800,0.427042724609375,7.120601821020245,4.174122544439137,2.5691116523385045
1740006936149024800,0.437024658203125,6.691062403252721,2.983623304583132,1.18734662104398
1740006936159006000,0.447005859375,3.6349352957338095,0.9279276230946183,-1.357631291513145
1740006936168987600,0.456987548828125,2.959602085265517,0.7199293080419301,-2.284289917585254
1740006936178969900,0.466969970703125,4.55904452958405,1.754657263688743,-1.8652736473977565
1740006936188951800,0.476951904296875,3.9853544150352476,1.4275547225669025,-2.424984628693759
1740006936198933000,0.48693310546875,3.1676503769397732,0.4366010267168283,-3.768759536550939
1740006936208914700,0.496914794921875,2.057961288332939,-0.7770087473526597,-5.169774042716622
1740006936218897000,0.50689697265625,1.8682424340754746,-0.7972934104904532,-5.560548553282022
1740006936228878800,0.51687890625,2.3735832350194452,0.5463271835878492,-4.604856432688236
1740006936238859800,0.52685986328125,2.5123680208534003,1.888717651349306,-2.423623277212679
1740006936248841700,0.536841796875,2.5443074659496543,2.461365855629742,-0.7842232087761163
1740006936258824000,0.546823974609375,2.8069933567404743,2.531655489647388,0.39123336024880406
1740006936268805600,0.5568056640625,3.390502854514122,2.466597326542437,1.1975596797615289
1740006936278786800,0.566786865234375,3.6397517561048267,2.1892755921557545,1.2799722977712749
1740006936288768800,0.576768798828125,3.9745395910322663,1.823906741003692,0.7852478756487369
1740006936298751000,0.5867509765625,4.197887743169069,1.3175854045897721,0.6319879897385835
1740006936308732700,0.596732666015625,4.32287839692831,1.0090861493900418,0.49443537604808807
1740006936318715000,0.60671484375,4.659901443561911,1.2553493131682276,0.0978022025823593
1740006936328695800,0.61669580078125,4.851195584312081,2.0363640812918544,-0.05114449630379676
1740006936338677800,0.626677734375,4.215506986489892,2.862211678354442,-0.4610270274430513
1740006936348659700,0.63665966796875,3.216450940465927,3.3803841960817573,-1.0185416677385568
1740006936358642000,0.646641845703125,2.5242268009513613,3.576799917629361,-0.8688514570087194
1740006936368622800,0.656622802734375,2.5368530582904816,3.878099032191932,0.2780833664089441
1740006936378604800,0.666604736328125,2.4464491492658853,4.548840238694846,1.670940577343106
1740006936388586800,0.676586669921875,1.958565679079294,5.28481204226017,2.721713366600871
1740006936398569000,0.68656884765625,1.6248878512203693,5.891425936767458,3.3005601332604884
1740006936408550000,0.6965498046875,2.013933930557966,6.408838283777237,3.152057671010494
1740006936418531800,0.70653173828125,2.8840613988518715,6.6302756338566535,2.5181448506891724
1740006936428513800,0.716513671875,3.250437381219864,6.611340047240257,1.8672984312236307
1740006936438496000,0.72649609375,2.8151567894518372,6.708386463019251,1.8445038310915232
1740006936448476700,0.7364765625,1.8824299493819474,7.079224100971222,2.6166812127649783
1740006936458459000,0.746458984375,0.8896838171571493,7.554703432136773,4.05625808929801
1740006936468440800,0.75644091796875,-0.13644260662198066,7.862746468001603,5.716445217436552
1740006936478422800,0.7664228515625,-0.8061623611226677,7.888543757081031,6.709523942616581
1740006936488404700,0.77640478515625,-1.0768126549214123,7.974220053061843,7.3434215653687716
1740006936498386000,0.786385986328125,-1.3551277842596172,8.056461698418856,7.929746705085039
1740006936508368000,0.796367919921875,-1.7173288190305231,7.966471046370267,8.367400455725193
1740006936518349800,0.806349853515625,-2.2178242257699368,7.465631648498773,8.672232712849974
1740006936528331800,0.816331787109375,-2.7741581318482753,6.798411601859331,9.035626464536785
1740006936538313000,0.82631298828125,-3.415983917251229,5.99771013649106,9.331533072406053
1740006936548294700,0.836294677734375,-4.0959260828197,5.2939381825238465,9.50299029378593
1740006936558276900,0.84627685546875,-4.634786876049637,4.677003677271307,9.50852863869071
1740006936568258800,0.8562587890625,-5.048726573625206,3.917502529558539,9.528449729213119
1740006936578240000,0.866239990234375,-5.618133896288275,3.1335373871967196,9.477162609568238
1740006936588221700,0.8762216796875,-6.188745334044098,2.3457456722840666,9.130254713258147
1740006936598204000,0.886203857421875,-6.500498914864659,1.4374600305095313,8.564558520072698
1740006936608185900,0.896185791015625,-6.70025693257749,0.6662563161738216,8.28385298846662
1740006936618167000,0.9061669921875,-6.888203516465425,-0.09243176159039139,8.34592161436677
1740006936628148700,0.916148681640625,-7.204271453353762,-0.931260859170556,8.587311619150638
1740006936638131000,0.926130859375,-7.536835182490944,-1.6038181751847267,8.888444437235593
1740006936648113000,0.93611279296875,-7.711299184471368,-2.4345877388194204,8.639215409389138
1740006936658094800,0.9460947265625,-7.599615171530842,-3.4118519320130347,7.522696767023206
1740006936668075800,0.95607568359375,-7.317564070534706,-3.814546889735758,6.3767468629896635
1740006936678058000,0.96605810546875,-6.817032715699076,-4.088739678446948,5.304024107730388
1740006936688039700,0.976039794921875,-6.18187953992784,-4.493911839938163,4.173226180121302
1740006936698022000,0.98602197265625,-5.466045392245054,-4.8270980848878615,2.991052285540104
1740006936708002800,0.9960029296875,-4.722020338344573,-5.14508559166193,1.8727894298553465
1740006936717985000,1.005985107421875,-4.026213664168119,-5.457122081077099,0.9541741172462701
1740006936727966700,1.015966796875,-3.455774075847864,-5.894640222638845,0.22603169213235377
1740006936737949000,1.025948974609375,-2.969678658121824,-6.3234846438795325,-0.014915245059132574
1740006936747929900,1.035929931640625,-2.618988320663571,-6.722313866084813,0.0861211171388626
1740006936757911800,1.045911865234375,-2.309707267436385,-7.006704223683476,0.35603520561754703
1740006936767893800,1.055893798828125,-2.0345821663111447,-7.192974398791789,0.3777642223447561
1740006936777876000,1.0658759765625,-1.7786492569118737,-7.4900336838275186,-0.05225567241609096
1740006936787857000,1.07585693359375,-1.373802381852269,-7.7942282275706525,-0.7531827583462
1740006936797838800,1.0858388671875,-0.9156699068069457,-7.920803520172834,-1.2912538625031709
1740006936807820800,1.09582080078125,-0.5797264721035957,-7.903475953274965,-1.631785209518671
1740006936817803000,1.105802978515625,-0.5343319176286458,-7.918819068357348,-1.7678262496024368
1740006936827784700,1.11578466796875,-0.6700218061871827,-8.025433522948623,-1.7856395541906356
1740006936837766000,1.125765869140625,-0.7712428773023188,-7.824418783172964,-1.9525392583966255
1740006936847747800,1.135747802734375,-0.8401134383022785,-8.18215377844572,-1.5002268678069113
1740006936857729800,1.145729736328125,-0.8693348566114902,-8.807990259817242,-1.3077560844928025
1740006936867711700,1.155711669921875,-0.8446167410708963,-8.832713782185316,-1.3152689443409442
1740006936877693000,1.16569287109375,-0.6915666985191404,-8.367323883357644,-1.9260919809758663
1740006936887675000,1.1756748046875,-0.7694393350116908,-8.77761265721023,-1.0987409936130046
1740006936897656800,1.18565673828125,-0.9055945029944181,-9.399925056108831,0.1434732359111309
1740006936907639000,1.19563916015625,-0.671805036342144,-9.54709480845034,0.7006149512410164
1740006936917620000,1.205619873046875,-0.4057264343731105,-9.40505657377839,1.565375924065709
1740006936927602200,1.215602294921875,-0.16664456040114164,-9.417257299181818,1.694938123524189
1740006936937583900,1.225583984375,0.0786924284428358,-9.468006074166297,1.547664326286316
1740006936947566000,1.235566162109375,0.4203919424548745,-9.246144945716857,1.8273194720566273
1740006936957547000,1.245547119140625,0.7237428749807179,-8.90676452230215,2.339681549939513
1740006936967529000,1.255529052734375,0.8775726697333156,-8.61140385787785,2.9745155767589804
1740006936977511000,1.265510986328125,1.084096382188797,-8.290756191983819,3.565110064357519
1740006936987493000,1.2754931640625,1.4178800085097552,-7.92649793242216,3.908652868148684
1740006936997474800,1.285474853515625,1.550122240832448,-7.556765040841698,4.052119674319028
1740006937007456000,1.2954560546875,1.1138123060166836,-7.126995321449637,4.412185742887854
1740006937017438000,1.30543798828125,0.9165323688551783,-6.840190888446569,4.480352685663104
1740006937027420200,1.315420166015625,1.2385273577049374,-6.664089640653133,4.111412990286946
1740006937037401900,1.32540185546875,0.8319348080217838,-6.42723844834268,4.5207641910284755
1740006937047383000,1.335383056640625,0.4446244664356112,-6.044062722343206,4.800149287685752
1740006937057365000,1.345364990234375,0.17593904296904803,-5.714701588639617,4.99243419303894
1740006937067347000,1.355346923828125,-0.2306689965441823,-5.4543070236563675,5.047277543860673
1740006937077329000,1.365328857421875,-0.4432999398335814,-5.076190919134021,5.198912458917499
1740006937087309800,1.375309814453125,-0.7535968921050429,-4.519440833470225,5.405661358430981
1740006937097292000,1.3852919921875,-1.4698391821973025,-3.984872768998146,5.6577253174424165
1740006937107274000,1.39527392578125,-1.569109119244665,-3.7917344616860147,6.1986126480638974
1740006937117256000,1.405255859375,-1.4556148420117794,-3.7234383395731445,6.781907041782141
1740006937127238100,1.415238037109375,-1.428844470116496,-2.8623130929023026,7.478560103654861
1740006937137219000,1.425218994140625,-1.5863817410849035,-1.2988877183824776,8.609255739933252
1740006937147201000,1.435200927734375,-1.6140180821597576,0.1873053633749485,10.192322218990325
1740006937157183000,1.445182861328125,-1.8545535159409046,0.7779413520276546,11.10377889201641
1740006937167165000,1.4551650390625,-2.2891011172592637,0.2026218827113509,11.291211681163311
1740006937177145900,1.465145751953125,-2.7393250111371277,-0.8538283676609396,11.222380721521377
1740006937187128000,1.475128173828125,-3.3426597378432747,-1.5370795116469262,12.298882995319365
1740006937197110000,1.485110107421875,-3.8722266330271955,-2.0787164915919303,13.061094863295555
1740006937207092000,1.495092041015625,-4.177241845503449,-2.545177819043398,12.78334993506074
1740006937217073000,1.505072998046875,-4.319040426200628,-1.7265470214918255,13.05572895234823
1740006937227055000,1.51505517578125,-3.9268881975412366,0.4448968536362052,14.067121332854033
1740006937237037000,1.525037109375,-3.2528374280989167,2.6119527229383586,14.438351184993982
1740006937247019000,1.53501904296875,-2.571156894430518,3.9971173335433003,13.085301083791256
1740006937257001000,1.5450009765625,-1.9405787714898586,4.834018239539861,10.58228482865095
1740006937266982000,1.55498193359375,-1.5469599774092435,5.4558185972630975,8.197105263862014
1740006937276963800,1.5649638671875,-0.7966308549284935,5.044366624850034,5.41819759939909
1740006937286946000,1.574946044921875,-0.287259154500626,3.9771336991786956,3.459496311241388
1740006937296928000,1.584927978515625,0.11945347789824008,3.1492426135897635,2.9199305846124886
1740006937306909000,1.594908935546875,0.5473369451522827,2.926346589134633,3.0409038194239137
1740006937316891000,1.604890869140625,0.5232604885160923,2.8573507943198084,3.449914243903756
1740006937326873000,1.614873046875,0.14704820832107215,2.8689933013185858,3.699312198576331
1740006937336855000,1.62485498046875,-0.39491120851133016,3.140182816560566,3.621003801015019
1740006937346836000,1.6348359375,-1.0925579210639,3.551915067219734,3.188226131978631
1740006937356818000,1.64481787109375,-1.732618742620945,3.924414500904083,2.5268641637176272
1740006937366800100,1.654800048828125,-2.2530478071033953,4.397504598845541,1.817582506418228
1740006937376781800,1.66478173828125,-2.7868554085969923,4.836382338322699,1.0503519334971905
1740006937386764000,1.674763916015625,-3.379181834554672,5.250854827600717,0.32156828787028785
1740006937396745000,1.684744873046875,-4.061071042537689,5.448195262777805,0.22934359315931796
1740006937406727000,1.694726806640625,-4.5170203283250325,5.48867457268238,0.241729027479887
1740006937416708900,1.704708984375,-4.256771309292316,6.108315706545114,0.01094751047194004
1740006937426691000,1.714691162109375,-3.6315608508646484,7.304754857844114,-0.576389436635375
1740006937436672000,1.724672119140625,-2.7803718917965887,8.832019370180367,-2.0361358254939317
1740006937446654000,1.734654052734375,-1.7086361017480491,10.682610996752977,-4.498439546495676
1740006937456636000,1.744635986328125,-0.36838681073375046,11.8768441624403,-7.546231371867656
1740006937466618000,1.7546181640625,0.9660404961287975,11.608104378437995,-10.710383969819546
1740006937476599000,1.76459912109375,1.3999194044053553,10.803930853044987,-12.263539294737576
1740006937486580700,1.774580810546875,0.8647836961131542,10.350437728238106,-11.577822637420892
1740006937496563000,1.78456298828125,-0.08095503961257636,10.312689304602145,-9.22252850780785
1740006937506545200,1.794545166015625,-0.8682979147791862,10.485237828350067,-6.66780661534965
1740006937516526800,1.80452685546875,-1.3881249217152594,10.618253967654704,-4.42633058809638
1740006937526507800,1.8145078125,-1.7305273232996463,10.798360359436273,-2.67210616286695
1740006937536490000,1.824489990234375,-1.8460487224459647,11.157945366489887,-1.6075263820528982
1740006937546472200,1.83447216796875,-2.1253356194257735,11.544931590688227,-0.8124222983002662
1740006937556454000,1.844453857421875,-2.435984453874826,11.667060425275563,-0.43292146142125126
1740006937566434800,1.854434814453125,-2.4936370168983935,11.79135082181096,-0.1486275499343872
1740006937576417000,1.8644169921875,-2.4870810193836688,12.193430570244788,0.3533949202418327
1740006937586398700,1.874398681640625,-2.584247262150049,12.634397390955685,0.937570188447833
1740006937596381000,1.884380859375,-2.7647674954295156,12.910958077841997,1.641550232207775
1740006937606363100,1.894363037109375,-2.817907257203758,13.236251523715257,2.2412603386759757
1740006937616344000,1.904343994140625,-2.92144771117717,13.469453545868395,2.7469682193666696
1740006937626325800,1.91432568359375,-3.206210116958618,13.410435539710521,2.9686738649934528
1740006937636308000,1.924307861328125,-3.440937741243839,12.938453987532853,2.6957196781665087
1740006937646290200,1.934290283203125,-3.617288872145116,12.325872709053755,2.05700793313086
1740006937656271000,1.94427099609375,-3.607446984827518,11.711707376253605,1.5232611219137906
1740006937666252800,1.954252685546875,-3.1056793661952016,11.370783815050125,1.3757389028728007
1740006937676235000,1.964235107421875,-2.178927801142633,11.340493890726565,1.3883394412487744
1740006937686217000,1.974217041015625,-1.317942255203426,11.229718809324503,1.4415174892067908
1740006937696198000,1.984197998046875,-0.7108572360530495,10.885671563142537,1.7114251479446887
1740006937706179800,1.994179931640625,-0.4287224022962153,10.293597650641201,2.5062556754529473
1740006937716162000,2.004162109375,-0.20840411937460301,9.947248557257652,3.2581068929344412
1740006937726143700,2.014143798828125,-0.15899579921364784,9.68040788487494,3.8706776500195264
1740006937736126000,2.0241259765625,-0.2682534617900848,9.344197323668002,4.831336453109979
1740006937746107000,2.03410693359375,-0.13482581907510757,9.216868582350015,5.706703575623035
1740006937756089000,2.044089111328125,-0.19379465232901275,8.740383873534203,5.9381309893190855
1740006937766070800,2.05407080078125,-0.5101906886605545,7.6405410561591385,6.0396560118168585
1740006937776053000,2.064052978515625,-1.094710130661726,6.245284382867813,6.714541478517651
1740006937786034000,2.074033935546875,-1.866387746119499,4.833768648692965,8.213255603674053
1740006937796015900,2.084015869140625,-2.563363464075327,3.3984102666378018,9.89197382928133
1740006937805997800,2.093997802734375,-3.442694814044237,1.6544668507955966,10.535464625287055
1740006937815980000,2.10397998046875,-3.99597985394597,0.0877116012006998,10.521462987941502
1740006937825961000,2.1139609375,-3.9812884807705875,-1.153265780004859,10.184662644147872
1740006937835943000,2.12394287109375,-3.9204584567546843,-2.5103636952936648,9.070379213488101
1740006937845924900,2.1339248046875,-3.637864334923029,-3.469240875664353,7.518467166629433
1740006937855907000,2.143906982421875,-3.277983559793234,-4.083906559202075,6.198024619042873
1740006937865889000,2.153888916015625,-2.8284125768661497,-4.408281136664748,5.098077172249555
1740006937875870000,2.163869873046875,-2.45153156709671,-4.591292017716169,4.410418733215332
1740006937885852000,2.173851806640625,-2.428758594274521,-4.710004906380176,4.512183994209766
1740006937895833300,2.183833251953125,-2.380902618122101,-5.0347617611587046,4.677888935673237
1740006937905815300,2.193815185546875,-2.070069074755907,-5.35023523928523,4.967370478931069
1740006937915796200,2.203796142578125,-1.5662988841295242,-5.715720410293341,5.3165428130418055
1740006937925778400,2.2137783203125,-0.9238193109929561,-6.094517482817173,5.385086772435903
1740006937935760400,2.223760498046875,-0.2953811226904392,-6.478441396835446,5.050145208251476
1740006937945742300,2.233742431640625,0.3579442541092634,-6.684092564240098,4.53235642914474
1740006937955724300,2.243724365234375,0.9983511126250028,-6.858136294981837,4.0436207260429855
1740006937965705500,2.25370556640625,1.6392735194474457,-7.112735325428843,3.56589157012403
1740006937975687200,2.263687255859375,2.2579133673131464,-7.3385139195829625,3.3400767356127496
1740006937985669400,2.27366943359375,2.7038135527729987,-7.64633775973916,3.3063042298704386
1740006937995651300,2.2836513671875,2.9713953989118336,-8.063357303151488,2.992311930212378
1740006938005632500,2.293632568359375,2.967670825430751,-8.045727538436651,3.0452649372428655
1740006938015614200,2.3036142578125,2.6940304099053143,-8.050122558525205,3.3068834910631177
1740006938025596400,2.313596435546875,2.5683997046768665,-8.22120802398324,3.6558138331115244
1740006938035578400,2.323578369140625,2.5516245109647513,-8.17376062863171,4.149360735887289
1740006938045559300,2.333559326171875,2.478715926620364,-7.778748918887972,4.783187631490827
1740006938055541200,2.343541259765625,2.4091250885218383,-7.406080558377504,5.171481431156397
1740006938065523500,2.3535234375,2.238839249008894,-7.288302320215106,5.504090168479085
1740006938075505200,2.363505126953125,1.7813374730825424,-7.412835293334722,6.27671470939815
1740006938085487400,2.3734873046875,1.6868348965674638,-7.579432215201854,7.312786188608407
1740006938095468300,2.38346826171875,1.552203723281622,-7.791191051831841,8.323975155496596
1740006938105450500,2.393450439453125,1.374914142486453,-8.354106674388051,8.997268969091772
1740006938115432200,2.40343212890625,1.3644208055227993,-9.077761724954843,9.434126016396284
1740006938125414400,2.413414306640625,1.3859849870771168,-9.494059383833408,9.800201554512977
1740006938135395300,2.423395263671875,1.3148808218061923,-9.462532026669383,11.101854645955562
1740006938145377300,2.433377197265625,1.0940858612835407,-9.15760975317359,12.87596509039402
1740006938155359200,2.443359130859375,0.8349030101776123,-8.560728732651471,14.101070364207029
1740006938165341400,2.453341552734375,0.3031224575322121,-7.84022425507009,14.563264681863783
1740006938175323100,2.4633232421875,-0.6316343539953232,-7.360218970912695,14.153544063287972
1740006938185304300,2.47330419921875,-1.507709917038679,-7.10850747860074,13.061518057143687
1740006938195286300,2.483286376953125,-2.2329544287540015,-7.068717904525995,11.511216368091105
1740006938205268500,2.4932685546875,-2.978386865234375,-7.19198480323255,10.155975478845834
1740006938215250200,2.503250244140625,-3.5511516816318034,-7.204342765024304,9.452851175132393
1740006938225231400,2.5132314453125,-3.607527648848295,-6.897783245715498,9.445663893976807
1740006938235213300,2.52321337890625,-3.3553052844047544,-6.43613604054749,10.099190346306562
1740006938245195300,2.5331953125,-3.109164285701513,-5.815820368424058,10.969892984139918
1740006938255177200,2.54317724609375,-2.9858266598463055,-4.943587452283501,11.87643382807374
1740006938265159400,2.553159423828125,-2.640458394193649,-3.841363877251744,12.667428722941874
1740006938275140400,2.563140380859375,-1.8091805887758732,-2.041965262299776,13.726923747837542
1740006938285122300,2.573122314453125,-0.6099065063118935,0.2382832709401846,14.33810918804407
1740006938295104300,2.583104248046875,0.9148714499056338,1.5580115327775477,13.735145632737874
1740006938305086500,2.59308642578125,2.4366566540479657,2.381592353951931,11.881405771267413
1740006938315067400,2.6030673828125,3.2831261833786964,3.340104208141565,9.747727855432032
1740006938325049300,2.61304931640625,3.886066357809305,4.177377162320911,7.8867884378463025
1740006938335031300,2.62303125,4.2540415920674794,4.733008473087847,6.355825655514002
1740006938345013500,2.633013427734375,4.078458230668306,5.1006233496010305,5.203714306241274
1740006938354995200,2.6429951171875,3.3258804524779317,5.241362192112207,4.8847167456418275
1740006938364976400,2.652976318359375,2.1206033302068708,5.270943091383576,5.18637621794939
1740006938374958300,2.662958251953125,1.186058042538166,5.237998268637061,5.663363031068444
1740006938384940300,2.672940185546875,0.7297837625801563,5.528839409810304,5.933593345889449
1740006938394922200,2.682922119140625,0.5163233096640557,6.223094762891531,6.042583881962299
1740006938404903400,2.6929033203125,0.05257065664939582,6.975334102907777,5.823626658260822
1740006938414885400,2.702885498046875,-0.4818412674129009,7.585337639853358,5.260293687075376
1740006938424867300,2.712867431640625,-0.9354688322544097,8.115825157013536,4.613794356903433
1740006938434849300,2.722849365234375,-1.2171838331639766,8.624825649508834,4.018755164855718
1740006938444831500,2.73283154296875,-1.4863666847586632,9.001654636830091,3.4975095232933757
1740006938454812400,2.7428125,-1.7226701800584792,9.356523721277712,3.1407886734992263
1740006938464794400,2.75279443359375,-1.8302187006294726,9.81107015452981,2.9389187781989574
1740006938474776300,2.7627763671875,-1.8172808931231497,10.34703581084013,2.8955905086040494
1740006938484758300,2.77275830078125,-1.6985680044591427,10.877502285212278,2.7853198695927857
1740006938494739200,2.7827392578125,-1.578233067551255,11.345597935867309,2.4891782839238643
1740006938504721400,2.792721435546875,-1.389310332107544,11.616062059444188,1.9655290883511303
1740006938514703400,2.802703369140625,-1.1387637919217348,11.845635369706153,1.4864876807898282
1740006938524685300,2.812685302734375,-0.8790648079872131,12.159525962555408,1.2262877615958452
1740006938534666200,2.822666259765625,-0.6440718107640743,12.421439699929952,0.9243500568687916
1740006938544648400,2.8326484375,-0.4307148912876844,12.541684035944938,0.546416907697916
1740006938554630400,2.84263037109375,-0.19428977890219537,12.572794629001617,0.17953122224211693
1740006938564612400,2.8526123046875,0.11314539072997867,12.585216888201236,-0.09872516264617442
1740006938574594300,2.86259423828125,0.35243860589768733,12.592516397559642,-0.46664311375916
1740006938584575500,2.872575439453125,0.6718465373963117,12.812439251422882,-1.0211199937939643
1740006938594557200,2.88255712890625,1.0415940420240164,13.396537947261333,-2.1041507925778626
1740006938604539400,2.892539306640625,1.5690660107553005,14.110963981711864,-3.7060564121395347
1740006938614521300,2.902521240234375,2.3109593133240938,14.60849849281907,-5.227314377537369
1740006938624503300,2.91250341796875,2.953839283955097,14.80365281612873,-5.948397531789541
1740006938634484200,2.922484130859375,3.2630303208112714,14.85203018580675,-5.958350770527124
1740006938644466400,2.932466552734375,3.191012547826767,14.881562569761275,-5.48086126858294
1740006938654448400,2.942448486328125,2.864268318623304,14.862163457286357,-4.8450674568206065
1740006938664430300,2.952430419921875,2.499277653133869,14.703098684489726,-4.277546970817446
1740006938674411300,2.962411376953125,1.7983363925479352,14.500187755703925,-3.584793254470825
1740006938684393500,2.9723935546875,0.6126115274868905,14.348429506528376,-2.5838866121441124
1740006938694375200,2.982375244140625,-0.7755132480978966,14.289652323389053,-1.589725352424383
1740006938704357400,2.992357421875,-2.0102686860486862,14.314766890901327,-0.6826724673151969
1740006938714339300,3.00233935546875,-2.9519451407715676,14.305577037751673,0.2404997779458761
1740006938724320500,3.012320556640625,-3.634422670036554,14.29652045559287,0.8639052327781915
1740006938734302200,3.02230224609375,-3.9938571627035735,14.305767591887712,1.1532084968596696
1740006938744284400,3.032284423828125,-4.063229681876302,14.41927472860217,1.6135831978738306
1740006938754266400,3.042266357421875,-3.747554543697834,14.49743816473484,2.1509201425373554
1740006938764247300,3.052247314453125,-3.204941704457998,14.398544075262546,3.0480022532522675
1740006938774229200,3.062229248046875,-2.651904501837492,14.097522316336631,4.15646501493454
1740006938784211500,3.07221142578125,-2.1208499984443185,13.626933095300197,5.474174338164925
1740006938794193200,3.082193115234375,-1.5004133302897213,13.211335693645477,7.327316818264126
1740006938804175400,3.09217529296875,-0.8713961730554699,12.822896348029374,8.976004647266864
1740006938814156300,3.10215625,-0.3696725396953523,11.999482700115442,10.270265874892473
1740006938824138500,3.112138427734375,-0.01776347409710288,10.962592305737733,11.016330910187959
1740006938834120200,3.1221201171875,-0.03813289290890098,9.86551018524766,11.268331156313419
1740006938844102400,3.132102294921875,-0.5335981965266168,8.723258551210165,11.360614303213357
1740006938854083300,3.142083251953125,-1.0844143620967865,7.496303265616297,11.25417169805765
1740006938864065500,3.1520654296875,-1.4459657007873057,6.214381879603862,11.111845294094085
1740006938874047200,3.162047119140625,-1.4918249501645564,4.92003414273858,10.937517485713958
1740006938884029400,3.172029541015625,-1.1353928541839122,3.635545828847587,10.496303996765613
1740006938894011100,3.18201123046875,-0.5645172125339508,2.5466329862877726,9.842910230904817
1740006938903992300,3.191992431640625,-0.01245484629496932,1.720706771031022,9.221064280474186
1740006938913974500,3.201974609375,0.2659001766622066,0.9711115157827734,8.81099704041779
1740006938923956500,3.21195654296875,0.3652444210547954,0.24167408242225646,8.383529752749205
1740006938933938400,3.2219384765625,0.5251555815476924,-0.45657706229686734,8.02743317233324
1740006938943919400,3.23191943359375,0.7634147409599273,-1.141797460529208,7.818565380969643
1740006938953901600,3.241901611328125,1.0863492026168853,-1.9455559753805398,7.602126277568936
1740006938963883500,3.251883544921875,1.5369909565806388,-2.6440561264246702,7.474346869874
1740006938973865500,3.261865478515625,2.0873592322528363,-3.1178064418405294,7.536237801119685
1740006938983847400,3.271847412109375,2.6208102753937244,-3.532162903523445,7.614320573231577
1740006938993828600,3.28182861328125,2.9248803159743546,-4.097448177820444,7.463359027391672
1740006939003810300,3.291810302734375,3.1653491142600774,-4.72609328687191,7.264439214068651
1740006939013792500,3.30179248046875,3.466346323266625,-5.222817066118121,7.238185997915267
1740006939023774500,3.3117744140625,3.777970140227675,-5.608622556099295,7.325385557940602
1740006939033755600,3.321755615234375,4.05845822969079,-5.916418339204788,7.324228789120912
1740006939043737300,3.3317373046875,4.361156981918215,-6.219587631553411,7.269096684485674
1740006939053719600,3.341719482421875,4.707358191263675,-6.513420355758071,7.0223033593535416
1740006939063701500,3.351701416015625,4.943351305440068,-6.794150437283515,6.797535988068581
1740006939073683500,3.361683349609375,5.177417835468053,-6.9242012970417735,6.770469117444753
1740006939083664400,3.371664306640625,5.417492666000127,-6.825131266480684,6.736504304000735
1740006939093646600,3.381646484375,5.426165801799297,-6.747548260584473,6.700246995705366
1740006939103628300,3.391628173828125,5.283061983722448,-6.747068952634931,6.699580640751123
1740006939113610500,3.401610595703125,5.151971844044327,-6.778347887995839,6.7840417157232755
1740006939123591400,3.41159130859375,4.898223292946815,-6.887974383884668,6.978160850766301
1740006939133573600,3.42157373046875,4.577524773648381,-7.0619655076563355,7.282823596543073
1740006939143555300,3.431555419921875,4.2266807069331405,-7.232364159893989,7.888611561620235
1740006939153537500,3.44153759765625,3.9181092632800336,-7.440799989581108,8.57406635313034
1740006939163519500,3.45151953125,3.6844133201301097,-7.642689758625626,9.219685977858305
1740006939173500400,3.46150048828125,3.2612194719970224,-7.615884753808379,10.360904177194833
1740006939183482400,3.471482421875,2.957693036773801,-7.6373320309847585,11.434002195507288
1740006939193464600,3.481464599609375,2.8835440969794988,-7.496393866509199,12.496569467455148
1740006939203446300,3.4914462890625,2.5653800645947453,-7.165345802631974,13.439540053641796
1740006939213428500,3.501428466796875,2.060295868760347,-7.389099028438329,13.670295267164706
1740006939223409400,3.511409423828125,1.6415730285614727,-7.749467879346013,13.567012587344646
1740006939233391600,3.5213916015625,1.3859119218409062,-8.006403243786096,13.300614398032426
1740006939243373300,3.531373291015625,1.0319979461610316,-8.133062123018503,13.010496310436725
1740006939253355500,3.54135546875,0.7030570836961268,-8.36811649504006,12.44628304928541
1740006939263336400,3.55133642578125,0.49606853020787234,-8.562984987145661,11.629196266305446
1740006939273318700,3.561318603515625,0.4398924694776535,-8.405091011694074,11.106715529990195
1740006939283300400,3.57130029296875,0.573161122238636,-7.765083966150879,11.027681156241893
1740006939293282600,3.581282470703125,0.9529869532883166,-6.846540549734234,10.879376262390613
1740006939303264300,3.59126416015625,1.4254022207081316,-5.911380929559469,10.574693058347702
1740006939313245400,3.601245361328125,1.7653145590424537,-4.931068162450194,10.455565159142017
1740006939323227400,3.611227294921875,2.016496474522352,-3.594341419538855,10.682367835646867
1740006939333209600,3.621209716796875,2.196246307951212,-2.0483166771531103,10.997433317494393
1740006939343191300,3.63119140625,2.158114437955618,-0.4756763150423765,11.160416725039482
1740006939353172500,3.64117236328125,1.969815387368202,1.0807213527977466,11.143313614547251
1740006939363154400,3.651154541015625,1.6151333499252796,2.405710311642289,10.859497841966151
1740006939373136600,3.66113671875,1.205271277052164,3.465770569205284,10.289422995305062
1740006939383118300,3.671118408203125,0.6270376007895916,4.332052467986941,9.532090716063976
1740006939393100500,3.6811005859375,-0.2543793963469565,4.730011921620369,8.414045887044072
1740006939403081500,3.69108154296875,-0.9835141934990882,4.818596214002371,7.220045361068844
1740006939413063400,3.7010634765625,-1.1729223743721842,4.716402498462796,6.0555024002462625
1740006939423045400,3.71104541015625,-1.227268150935322,4.786506254519522,4.971629889941215
1740006939433027600,3.721027587890625,-1.4469034200288355,4.991210204201937,4.494896174800395
1740006939443009300,3.73100927734375,-1.794197977568954,5.071765503907203,4.601325335952639
1740006939452990500,3.740990478515625,-2.082429082374275,4.9772056442469355,4.188257160514593
1740006939462972400,3.750972412109375,-2.022980137453228,4.875798695170879,3.698394499209523
1740006939472954600,3.76095458984375,-1.7224938005782662,4.923904262170195,3.493593811154365
1740006939482936300,3.770936279296875,-1.323807347844541,5.196388493397832,3.4546868651330467
1740006939492917500,3.78091748046875,-1.1691663828395307,5.570902774035931,3.433237249869108
1740006939502899500,3.7908994140625,-1.242246962749958,5.903431431859731,3.270606893545389
1740006939512881400,3.80088134765625,-1.3175474106669425,6.190218329206108,2.9908582242727277
1740006939522863400,3.81086328125,-1.4508544957421718,6.517479860281944,2.648446470338106
1740006939532845600,3.820845458984375,-1.5826796716965734,6.952959189492463,2.341159221276641
1740006939542826500,3.830826416015625,-1.7537515470206737,7.4993743436247104,2.2070652236074206
1740006939552808400,3.840808349609375,-1.8687692344285547,8.099598829355836,2.104447145175934
1740006939562790400,3.850790283203125,-2.003247701370716,8.711770357990265,2.0617536663532254
1740006939572772600,3.860772705078125,-2.111200857219845,9.31937852423191,1.9688620321661232
1740006939582753500,3.87075341796875,-2.2659623798646034,9.792796246692538,1.7284382420659063
1740006939592735500,3.880735595703125,-2.354721736552566,10.144758503782748,1.491851838171482
1740006939602717400,3.890717529296875,-2.374527968523651,10.497693989819288,1.2216454887479542
1740006939612699400,3.900699462890625,-2.357043749759346,10.834428867161273,1.0065993010103702
1740006939622681300,3.910681396484375,-2.285806898019463,11.13505665833354,0.8011462865263224
1740006939632663600,3.92066357421875,-2.219787342536449,11.409745706129073,0.6520534571677445
1740006939642645200,3.930645263671875,-2.1131581287674606,11.831043365252018,0.7502367680221795
1740006939652626400,3.94062646484375,-2.012877991764247,12.38487201051116,0.9550479774713516
1740006939662608400,3.9506083984375,-1.947773066908121,12.841347365999221,1.0501713162332773
1740006939672590600,3.960590576171875,-1.9493455769218504,13.125988483488559,0.9915940395802259
1740006939682572300,3.970572265625,-1.9512863357260821,13.311501702749728,0.9018792818635701
1740006939692554500,3.980554443359375,-2.0044240516737104,13.536236340808868,0.7854974664956331
1740006939702535400,3.990535400390625,-2.0674086233749986,13.757688303935527,0.7433698048621415
1740006939712517400,4.000517333984375,-2.1007567662253974,13.999552940493821,0.7395195591747761
1740006939722499300,4.010499267578125,-2.1819731601879,14.083541721779108,0.4887549923241138
1740006939732481500,4.0204814453125,-2.3309449935153124,13.87208157583475,-0.018014380118250847
1740006939742463200,4.030463134765625,-2.5380107038930055,13.503393224871157,-0.644905923500657
1740006939752444400,4.0404443359375,-2.720833368895948,13.161480652630328,-1.2649790190398693
1740006939762426400,4.05042626953125,-2.839335829679668,12.9328858320117,-1.8706465726077555
1740006939772408600,4.06040869140625,-2.7971839103877545,12.789717716526985,-2.310508646947145
1740006939782390300,4.070390380859375,-2.679769829362631,12.68716919620037,-2.599282918718457
1740006939792371500,4.080371337890625,-2.595959619514644,12.407777085280417,-2.804825365051627
1740006939802353400,4.090353515625,-2.3883377365589142,11.966975099742411,-2.991158668524027
1740006939812335600,4.100335693359375,-2.127192060947418,11.514702456641196,-2.874467056554556
1740006939822317300,4.1103173828125,-1.7121730437025426,11.082037015807629,-2.4699790779352186
1740006939832299500,4.120299560546875,-1.2023521747350692,10.630136128628253,-1.888482673549652
1740006939842280400,4.130280517578125,-0.6500985237076878,10.177288315987587,-1.0482271964281797
1740006939852262400,4.140262451171875,-0.10202259675636886,9.816505039060115,0.1109913545012474
1740006939862244400,4.150244384765625,0.35913477906808255,9.441703173652291,1.3571739031344652
1740006939872226600,4.1602265625,0.6804743727490306,9.063414050650596,2.51939923466444
1740006939882208300,4.170208251953125,0.9181095550440251,8.589985806795955,3.587859071782231
1740006939892189400,4.180189453125,1.111254438227415,8.219329370629787,4.591870694386959
1740006939902172000,4.190171875,1.2058780107736586,7.966414932268857,5.401648615658283
1740006939912153900,4.20015380859375,1.157917843594402,7.577599154555797,5.8973711089074605
1740006939922135800,4.2101357421875,0.9518024196788668,7.08152127199769,6.165489546141028
1740006939932117000,4.220116943359375,0.5770819489441812,6.410842024815082,6.007589725470543
1740006939942099000,4.230098876953125,0.1766132889688015,5.548319186305999,5.69705311922431
1740006939952081000,4.240080810546875,-0.2522127198323607,4.709044536915421,5.470091452765464
1740006939962062800,4.250062744140625,-0.7547589216217399,4.003765393255651,5.437025633987784
1740006939972045000,4.260045166015625,-1.260958677482605,3.2691005806356666,5.579077312663197
1740006939982026000,4.27002587890625,-1.572212053696066,2.4174276374429464,5.771114965257048
1740006939992008000,4.280008056640625,-1.6086881193086504,1.5143322577878833,6.027897769483924
1740006940001988900,4.28998876953125,-1.3660992601290345,0.5913683945804834,6.257441269129514
1740006940011970800,4.299970703125,-0.7654778840348124,-0.3644476446539163,6.343596873059869
1740006940021952800,4.309952880859375,-0.024759178203344345,-1.2233604759722947,6.300260420158505
1740006940031935000,4.31993505859375,0.7111597261309623,-2.0411758654877543,6.244502292579412
1740006940041917000,4.3299169921875,1.4228032902561127,-2.732931510707736,6.122593238222598
1740006940051897900,4.33989794921875,2.051090818041563,-3.369175988847017,5.88991377863884
1740006940061879800,4.3498798828125,2.605731948727369,-3.949040408116579,5.638628987306356
1740006940071862000,4.359862060546875,3.1472271821141242,-4.371144122925401,5.5123740126997225
1740006940081844000,4.369843994140625,3.7954257174193855,-4.626962466034293,5.562161833697557
1740006940091826000,4.379825927734375,4.181465016156435,-4.7268718700289725,5.679052767631411
1740006940101806800,4.389806884765625,3.9977579695343968,-5.086660875222087,5.7098325212985275
1740006940111789000,4.3997890625,4.646134199494123,-5.633982038283348,5.603790898159146
1740006940121770800,4.409770751953125,4.864770520678162,-5.598518510714173,5.794618005919456
1740006940131753000,4.4197529296875,5.097515446713566,-5.540537446388602,5.914701598414778
1740006940141734000,4.42973388671875,5.539732559746503,-5.6633601084589955,6.150923260650038
1740006940151715800,4.4397158203125,5.9116615000665185,-5.541099756446481,6.28702801361978
1740006940161697800,4.44969775390625,6.383976814243197,-5.560716311064362,6.139796886479854
1740006940171680000,4.459679931640625,6.777559367966652,-5.70699232943654,5.755238181689381
1740006940181662000,4.469661865234375,7.072227373951673,-5.692862097275257,5.237661584028602
1740006940191643000,4.479642822265625,7.12838765259087,-5.553452457541227,4.980738494548201
1740006940201624800,4.489624755859375,6.9343556113094085,-5.42062219619751,5.037017431131005
1740006940211607000,4.49960693359375,6.490645044848322,-5.416030776754021,5.413045623463392
1740006940221588700,4.509588623046875,5.863983218568563,-5.474607468885183,6.216776081264019
1740006940231571000,4.519571044921875,5.062451732116937,-5.588466487777233,7.248845339095592
1740006940241552000,4.5295517578125,4.285789898505807,-5.6905427144169805,8.382156126308441
1740006940251534000,4.5395341796875,3.6868168741405007,-5.6264002048522235,9.455185171037911
1740006940261515800,4.549515869140625,3.077026687684655,-5.382499094030261,10.38080948562622
1740006940271498000,4.559498046875,2.4586440294504164,-5.181722839185595,11.040101077353954
1740006940281480000,4.56947998046875,1.8989952997356652,-5.165742010721564,11.194688412475585
1740006940291460900,4.5794609375,1.4121967021763324,-5.341005638647079,10.973016669118405
1740006940301442800,4.58944287109375,1.0703776534378528,-5.622261205351353,10.37564348116517
1740006940311425000,4.599425048828125,0.7891337771713733,-6.070756668001413,9.291526056188344
1740006940321406700,4.60940673828125,0.48693365864846855,-6.652919427341223,8.02651839557588
1740006940331387600,4.6193876953125,0.18392211414482443,-7.087029806286096,7.003904363831877
1740006940341369900,4.629369873046875,0.0978933514645323,-7.163704465165734,6.4859010651916265
1740006940351352000,4.63935205078125,0.104686737931706,-6.86370620406866,6.339720908409356
1740006940361333800,4.649333740234375,0.19604276004936544,-6.295500073888897,6.367030355617404
1740006940371316000,4.65931591796875,0.3315209420859814,-5.596642195448279,6.501451101022958
1740006940381297000,4.669296875,0.5020073456723243,-4.755904487767816,6.7362780940294265
1740006940391279000,4.679279052734375,0.7422562906622886,-3.8041613970607515,7.023230995592474
1740006940401260800,4.6892607421875,0.9903507615208625,-2.7641052321285007,7.237166007217764
1740006940411243000,4.699242919921875,1.1440086337726563,-1.8436673802673815,7.149867078471184
1740006940421225000,4.709224853515625,1.2484043163359164,-1.1960872691214084,6.7717123955041165
1740006940431206000,4.719205810546875,1.3496236338853835,-0.7530471492677927,6.384787546104192
1740006940441187800,4.729187744140625,1.387008484905958,-0.4070961152911186,5.924385372561216
1740006940451170000,4.739170166015625,1.3097931432783603,-0.08521335464417934,5.474869334691762
1740006940461151700,4.74915185546875,1.1502771195828914,0.25445348449647426,5.087967866167426
1740006940471134000,4.759134033203125,0.9580793079912662,0.5741571475386619,4.82406207819283
1740006940481115000,4.769114990234375,0.6046082537733019,0.8703393574789166,4.558230290591717
1740006940491097000,4.77909716796875,0.1266493807516992,1.1467264413639902,4.311775403633713
1740006940501078800,4.789078857421875,-0.34133754883185025,1.3737418838366866,4.118556432300806
1740006940511061000,4.79906103515625,-0.6495161937750875,1.632894924326241,3.869857565808296
1740006940521042000,4.8090419921875,-0.8407847616925835,2.025618230871856,3.641673664078116
1740006940531024000,4.81902392578125,-0.9709658237017691,2.440309623597562,3.282539323401451
1740006940541005800,4.829005859375,-1.0321779789030552,2.80144390591979,2.775824896016717
1740006940550988000,4.838988037109375,-1.088307277882099,3.191125360551476,2.336464341458678
1740006940560969700,4.8489697265625,-1.1957985153079032,3.6718133662760257,2.0675784269839523
1740006940570951000,4.858950927734375,-1.442193050380796,4.129181286689639,1.8592805444628
1740006940580932900,4.868932861328125,-1.6066962148390709,4.517518925496936,1.5951573143452404
1740006940590915000,4.8789150390625,-1.763578382899612,4.888885848020017,1.2908213163048028
1740006940600896800,4.888896728515625,-1.7290812161445617,5.253315664756298,1.0200012188971042
1740006940610879000,4.89887890625,-1.573472136759758,5.6405544024109835,0.9326105202138424
1740006940620860000,4.90885986328125,-1.36507736973539,6.055056994566321,0.9221434867352246
1740006940630841900,4.918841796875,-1.0837655427992343,6.4325254488348955,0.7172294014334678
1740006940640823800,4.92882373046875,-0.819549812092632,6.830516466650367,0.5064227509617805
1740006940650806000,4.938805908203125,-0.6645837067864835,7.235425885552168,0.3499760517090559
1740006940660787700,4.94878759765625,-0.4986462717413902,7.5348735270291565,0.08595745100975036
1740006940670769000,4.958768798828125,-0.40325120336599646,7.729508210378885,-0.29431787737309933
1740006940680750800,4.968750732421875,-0.3080326606012881,7.927923581311107,-0.6362228508293628
1740006940690733000,4.978733154296875,-0.23132570688724516,8.159671897524595,-0.8578548466980457
1740006940700714800,4.98871484375,-0.146717186268419,8.309861289948225,-0.9610399113625288
1740006940710697000,4.998697021484375,0.07310849083065986,8.393845979580282,-1.042336969345808
1740006940720678000,5.008677978515625,0.3202981218039989,8.610618844980001,-1.144457035127282
1740006940730659800,5.018659912109375,0.47115372305139896,8.887118741589784,-1.1131523808032273
1740006940740641800,5.028641845703125,0.5815829136252403,9.09949424881339,-1.0349790077984333
1740006940750624000,5.0386240234375,0.657278498339653,9.189552120879291,-0.9991998384088278
1740006940760605000,5.04860498046875,0.6960860756397247,9.207868114292621,-1.0415537100136278
1740006940770587000,5.0585869140625,0.6443569843810051,9.135428316503763,-1.049639985835552
1740006940780568800,5.06856884765625,0.6043675038199872,9.172870450669526,-0.8021434808701277
1740006940790551000,5.078551025390625,0.702355657428503,9.398364382663368,-0.4345142835706472
1740006940800532700,5.08853271484375,0.884706613266468,9.691121002069115,-0.16602642850279806
1740006940810514000,5.098513916015625,0.9702958154857159,9.895371070504188,-0.1152221239387989
1740006940820496000,5.108495849609375,0.9002291765689849,9.804842073795198,-0.22283786452710627
1740006940830478000,5.11847802734375,0.7651251250743866,9.402496952423453,-0.5831318966329098
1740006940840459800,5.128459716796875,0.6589619213819503,8.825275156617163,-1.2842980520159006
1740006940850442000,5.13844189453125,0.5156038362830877,8.117447789779305,-1.9506103361606597
1740006940860423000,5.1484228515625,0.3031921069686301,7.505074016571045,-2.303227842289209
1740006940870404900,5.15840478515625,0.06578910772800445,7.081978368115425,-2.2386235604315994
1740006940880386800,5.16838671875,-0.022040548628102986,6.813094791728258,-1.8184248024612664
1740006940890369000,5.178369140625,-0.08312719601988793,6.653082508948445,-1.0945564014047384
1740006940900350200,5.18835009765625,-0.06630756951100193,6.650156976890564,-0.20420272216200827
1740006940910331100,5.1983310546875,-0.08876257155835628,6.869993321514129,0.6447305669337511
1740006940920313300,5.208313232421875,-0.14375264650755562,7.101821717226505,1.2375047366589307
1740006940930295300,5.21829541015625,-0.30150219938661904,7.2801897409081455,1.5501526359707116
1740006940940277200,5.22827734375,-0.4923626979598775,7.299298930525779,1.8501304388016462
1740006940950259500,5.238259521484375,-0.6183423262238502,7.126290388050675,2.0602397546589373
1740006940960240400,5.248240478515625,-0.5807293655358254,6.971272260296344,2.0498644911170003
1740006940970222300,5.258222412109375,-0.4951742117166519,6.758776341563463,1.9653081390768288
1740006940980204300,5.268204345703125,-0.4063445662714541,6.352144921174645,1.6132535275280475
1740006940990186200,5.278186279296875,-0.2977778085686266,5.908252568405866,1.0254097999423741
1740006941000168400,5.28816845703125,-0.24656010089814662,5.376811111521721,0.3640612756848335
1740006941010149000,5.298149169921875,-0.23051555954813957,4.862717095279693,-0.25761633244156834
1740006941020131300,5.30813134765625,-0.17008417946100235,4.2978842409253115,-0.8592109374821185
1740006941030113300,5.31811328125,-0.13559534214287997,3.8485079037874934,-1.260883858680725
1740006941040095200,5.32809521484375,-0.1310354868814349,3.3601620767861604,-1.5353016883194446
1740006941050076200,5.338076171875,-0.08420914603769779,2.8862185768857596,-1.6300485949844121
1740006941060058400,5.348058349609375,-0.0821630271628499,2.485691610851884,-1.6399562410145998
1740006941070040300,5.358040283203125,-0.1220735972687602,2.1778641174338755,-1.4458265845775604
1740006941080022300,5.368022216796875,-0.2980091331064701,2.0405168170571324,-0.9923264455080032
1740006941090004500,5.37800439453125,-0.4917819389298558,1.9431483297169208,-0.5935387243568897
1740006941099985400,5.3879853515625,-0.5609963449314236,1.7745672482952475,-0.434283397424221
1740006941109967000,5.397967041015625,-0.5398341683067381,1.517878259831667,-0.20066694925129414
1740006941119949300,5.40794921875,-0.4317217302426696,1.2141682847350834,0.05717968481481075
1740006941129931500,5.417931640625,-0.19912585728913546,0.8136590004883706,0.3391074516922235
1740006941139913200,5.427913330078125,0.23982231707572935,0.43679508798420424,0.5768570541471243
1740006941149894100,5.43789404296875,0.6156991182386875,0.05812485671043396,0.7846680299341678
1740006941159876400,5.44787646484375,0.7854536273539066,-0.21193653128445147,1.1351631370812654
1740006941169858300,5.4578583984375,0.9161585671067237,-0.502490379948914,1.5069897860705852
1740006941179840300,5.46784033203125,1.0942318456254898,-0.7285176881670952,1.8818629631489514
1740006941189822500,5.477822509765625,1.1527588533960282,-0.8710504283577203,2.4508961918026206
1740006941199803400,5.487803466796875,1.0085935435675084,-1.0103718052864075,3.1839380793958902
1740006941209785300,5.497785400390625,0.7629518726885318,-1.1148393109768628,3.9140199481397864
1740006941219767300,5.507767333984375,0.4838286418378353,-1.233354631242156,4.68789770399034
1740006941229749500,5.51774951171875,0.18804434517398474,-1.4126491221189499,5.503852852591872
1740006941239731200,5.527731201171875,-0.02924465305432677,-1.6432658039540051,6.254384219646454
1740006941249712000,5.537712158203125,0.014388298575580119,-1.8945617012023925,7.14767219877541
1740006941259694300,5.5476943359375,-0.00935585736632347,-2.1077076082766055,8.196752797162532
1740006941269676500,5.557676513671875,0.32731706065535543,-2.3473779496610163,9.222874544766544
1740006941279658200,5.567658203125,0.7108076978228985,-2.8296780667573214,10.265001670753955
1740006941289640400,5.577640380859375,0.9694960434101522,-3.5893092705905434,11.253746166121958
1740006941299621400,5.587621337890625,1.1684943287968634,-4.016200804197788,12.48973757560849
1740006941309603300,5.597603271484375,1.5243347424946725,-4.339519735127687,14.040234494972228
1740006941319585300,5.607585205078125,1.9301099844455718,-4.7280701399028295,15.451007301825284
1740006941329567500,5.6175673828125,2.207233858172595,-5.510692343223095,16.13750137325525
1740006941339549200,5.627549072265625,2.299355969291925,-6.659173227038979,15.965703375613689
1740006941349530000,5.637530029296875,2.2743898703396317,-7.895037795275449,15.0278076084733
1740006941359512300,5.64751220703125,2.2094214313447473,-9.005381548398733,13.574492129445074
1740006941369494500,5.65749462890625,2.1306161901772023,-9.994541054308414,11.836191834056377
1740006941379476200,5.667476318359375,2.2484476198315617,-10.706044479310512,10.216473494428396
1740006941389458400,5.67745849609375,2.2720447685182092,-10.929741006493568,8.868192507323622
1740006941399439400,5.687439453125,2.4392718049824236,-10.58704166778922,7.863875179770589
1740006941409421600,5.697421630859375,2.7242648046493527,-9.687697457361221,7.37081985990405
1740006941419403300,5.7074033203125,2.8514532607138157,-8.666920577916503,7.065023141661286
1740006941429385500,5.717385498046875,2.953397385406494,-7.690358103251457,6.834722101646661
1740006941439366400,5.727366455078125,2.888066542840004,-6.7200687175065275,6.671097473588586
1740006941449348400,5.737348388671875,2.898653403306007,-5.773008231657743,6.5185308306396
1740006941459330300,5.747330322265625,2.920293572705984,-4.842231356611848,6.2707584313422435
1740006941469312500,5.7573125,2.7529531389951702,-4.018347753098607,5.956179856228828
1740006941479294200,5.767294189453125,2.441816813290119,-3.419585741135478,5.504963444182277
1740006941489275100,5.777275146484375,2.0130197383224964,-3.0104110660046337,4.968626616472005
1740006941499257300,5.78725732421875,1.5410744265019893,-2.739005862185359,4.630922017315029
1740006941509239600,5.797239501953125,1.1050256268404424,-2.5169740533441303,4.534857598310709
1740006941519221200,5.80722119140625,0.6527483806293457,-2.3191309293419122,4.673526064288616
1740006941529203500,5.817203369140625,0.3449966558612883,-2.1466841124027964,4.679775187811255
1740006941539184400,5.827184326171875,0.03837868436351418,-1.9774469051599501,4.562373381745815
1740006941549166300,5.837166259765625,-0.25215002985969187,-1.765500437003374,4.513245485961437
1740006941559148300,5.847148193359375,-0.4321298726521432,-1.5198834621742368,4.373549430501461
1740006941569130500,5.857130615234375,-0.6655880615234374,-1.1671215791389344,4.193548252660036
1740006941579112200,5.8671123046875,-0.907284355777502,-0.6634998570725321,4.0802041975528
1740006941589094400,5.877094482421875,-1.054981346863508,-0.16315174984931946,3.8620156201362605
1740006941599075300,5.887075439453125,-0.9106513479925692,0.32708558998703957,3.6285394572168586
1740006941609057500,5.8970576171875,-1.0023545030474663,0.8359580721884965,3.404392263656854
1740006941619039200,5.907039306640625,-0.9102434978440404,1.3809151364669203,3.161645583567023
1740006941629021400,5.917021484375,-0.8401030630387365,2.1149109637841583,3.03471899330914
1740006941639002400,5.92700244140625,-0.8337935876309871,2.7909657665252685,2.9216280361801386
1740006941648984300,5.936984375,-0.9795300922989845,3.4611984389841552,2.7832588454097507
1740006941658966300,5.94696630859375,-1.3977391377568245,4.21562155278027,2.7523370529234406
1740006941668948500,5.956948486328125,-1.8225168940804897,5.002679108199477,2.8914333889245984
1740006941678930200,5.96693017578125,-2.082550955188274,5.813907228279113,3.2055104442566633
1740006941688911400,5.976911376953125,-1.9507693261146544,6.659166797298193,3.297911664578318
1740006941698893300,5.986893310546875,-1.633189231097698,7.437759306710958,3.070075553372502
1740006941708875500,5.99687548828125,-1.3577309524953365,7.950317199426889,2.7625784609526396
1740006941718857200,6.006857177734375,-1.0184417144954203,7.9844906871855255,2.3025410290688275
1740006941728839400,6.01683935546875,-0.4658119601646438,7.738484128516912,1.8012416124701498
1740006941738820400,6.0268203125,0.09330956733822822,7.872642423593997,1.6142489683061838
1740006941748802300,6.03680224609375,0.6910837373077869,8.394931436729431,1.6341005007237195
1740006941758784300,6.0467841796875,1.5085731097392736,8.888472494286297,1.7567957370221614
1740006941768766500,6.056766357421875,2.3635209829494355,9.331990753045677,1.3916887516766785
1740006941778748200,6.066748046875,2.8769065586611626,9.65140683131814,0.8528098382681608
1740006941788729300,6.076729248046875,2.913281063595414,9.704273329108952,0.06631693099439144
1740006941798711300,6.086711181640625,2.6043527693286537,9.443338081377744,-0.6780787097841501
1740006941808693500,6.096693603515625,2.3222709809333084,9.126845197075605,-1.1036848797559737
1740006941818675200,6.10667529296875,2.1467244444131848,8.813832556104659,-0.7294248661398888
1740006941828657400,6.116657470703125,2.016595258721709,8.532145612245797,0.2220394076257944
1740006941838639400,6.126639404296875,2.04809338979125,8.494656716328858,1.154392153686285
1740006941848620300,6.136620361328125,2.105212868851423,8.505822253465652,1.6231950758278368
1740006941858602200,6.146602294921875,2.1797300574362275,8.154604677262903,1.4194120403826236
1740006941868584400,6.15658447265625,2.2964438812375065,7.42762837331891,0.6238473533809185
1740006941878566100,6.166566162109375,2.222891738292575,6.556265810272097,-0.25975626707971095
1740006941888548400,6.17654833984375,1.9470862536877394,5.670156928992271,-1.0676035125494003
1740006941898529500,6.186529541015625,1.3040554764091967,4.788828267726302,-1.3512836760520934
1740006941908511700,6.19651171875,0.6241407833695412,4.190706599493325,-1.0601631334155797
1740006941918493400,6.206493408203125,0.3109434334814548,3.8600244463190436,-0.369435369938612
1740006941928475600,6.2164755859375,0.3350432709932327,3.73435720847249,0.5266191512942314
1740006941938457600,6.22645751953125,0.2528460492998361,3.126596482017636,0.5806880106121302
1740006941948438500,6.2364384765625,0.6122364105641842,2.7348268229350445,0.6902420257866382
1740006941958420500,6.24642041015625,1.1534265235245227,2.762777198395133,1.01695059915483
1740006941968402700,6.256402587890625,1.5423147819519043,2.79619460708946,1.1476251437693834
1740006941978384600,6.266384521484375,1.7503519677102566,2.5261697517126795,0.9513689966976642
1740006941988366600,6.27636669921875,1.7883815463751553,2.2180603726133703,0.8257926520049571
1740006941998347500,6.286347412109375,1.6538655239015816,2.008249162919819,0.9910194545626639
1740006942008329700,6.296329833984375,1.6199287675082683,1.946920541732013,0.9772995567679404
1740006942018311700,6.306311767578125,1.6678198149740695,1.8456866111353039,0.6606576193839311
1740006942028293600,6.316293701171875,1.5729641872376203,1.6167974837452173,0.25060966854989525
1740006942038275800,6.32627587890625,1.4712182154655455,1.4612927415177226,0.13883914636969566
1740006942048256500,6.336256591796875,1.4300164365053176,1.37788468272984,0.1305798520684242
1740006942058238500,6.346238525390625,1.5694740070343016,1.3777870675742625,-0.22004092728495597
1740006942068220700,6.356220703125,1.8638462449431419,1.3220493982613086,-0.8980261135667562
1740006942078202600,6.36620263671875,2.2429893544256685,1.097738538572192,-1.628666785237193
1740006942088184600,6.3761845703125,2.502407183331251,0.7336787241920828,-2.0764573144882914
1740006942098165500,6.38616552734375,2.581875272321701,0.33046237294375896,-2.170930080386996
1740006942108147700,6.396147705078125,2.645041045808792,0.04914689274579286,-2.278695458579063
1740006942118129700,6.406129638671875,2.628923439222574,-0.12677578361034392,-2.3190748152405023
1740006942128111600,6.416111572265625,2.4518425327420235,-0.23522505241334438,-2.2967577694922685
1740006942138092500,6.426092529296875,2.1819068169534206,-0.3672632865965366,-2.1286334919273853
1740006942148074800,6.43607470703125,1.9333762927651403,-0.5454710051499306,-1.903050128084421
1740006942158056700,6.446056640625,1.7971148879289627,-0.7816925212547182,-1.6897849785447119
1740006942168038700,6.45603857421875,1.6422838071793318,-1.0702537347972392,-1.5109703801393508
1740006942178020600,6.4660205078125,1.5075930126607417,-1.2219710674405098,-1.3592021940916776
1740006942188001500,6.47600146484375,1.479790813499689,-1.3449515504211187,-1.314892512243986
1740006942197983500,6.4859833984375,1.3917875358760357,-1.614263289092481,-1.328950848212838
1740006942207965700,6.495965576171875,1.1531938838124274,-1.9476890418864785,-1.2892512905091047
1740006942217947600,6.50594775390625,1.0099562102228403,-2.0195735438801345,-1.1208850208818912
1740006942227929600,6.5159296875,0.9153016580164433,-1.8625467066518961,-1.085409218353033
1740006942237911800,6.525911865234375,0.7709925558030605,-1.6506633668594062,-1.0631599771440028
1740006942247892700,6.535892822265625,0.48467561405599113,-1.5212506588742136,-0.8845300876557827
1740006942257874700,6.545874755859375,0.33539223056137557,-1.337765876700729,-0.6267138487279414
1740006942267856600,6.555856689453125,0.2902951977282762,-1.0930896898530422,-0.26306232288777825
1740006942277838600,6.565838623046875,0.15876958924233914,-0.9049095894701779,0.2093769099295139
1740006942287820500,6.575820556640625,0.15080021779835223,-0.7188429741099477,0.5006944364428519
1740006942297801700,6.5858017578125,0.3358236077159643,-0.49506768260225653,0.521881016856432
1740006942307783700,6.59578369140625,0.5267793102920055,-0.413001832203567,0.47801381807923315
1740006942317765600,6.605765625,0.7373685186207294,-0.35073140012100334,0.5262117395371199
1740006942327747600,6.61574755859375,0.6714063924133777,-0.08533727328479289,0.8349076863527297
1740006942337729800,6.625729736328125,0.31498715591430665,0.4250356766074896,1.551041693764925
1740006942347710700,6.635710693359375,-0.09815934545695781,1.180870264636725,2.467984689247608
1740006942357692700,6.645692626953125,-0.4612187506228685,2.0405399056717752,2.8770138184279204
1740006942367674600,6.655674560546875,-0.820106423062086,2.6654806072473525,2.580045718806982
1740006942377656600,6.665656494140625,-1.5103496178925035,2.9195693500846622,1.7789309964627027
1740006942387638500,6.675638427734375,-2.400177227434516,2.774472604624927,0.8838117102533578
1740006942397619700,6.68561962890625,-3.0061762049138543,2.569341953963041,0.25506840152442456
1740006942407601700,6.6956015625,-3.541715744766593,2.457336161722243,0.07911269968152046
1740006942417583600,6.70558349609375,-3.9193320830732583,2.401709843829274,-0.019613047486543654
1740006942427565600,6.715565673828125,-3.760346805253625,2.3198440460473297,-0.020714871248602867
1740006942437547800,6.7255478515625,-3.0953841821521517,2.1843526026703417,-0.051034021666646
1740006942447528700,6.73552880859375,-2.101686448290944,2.0393672086305914,-0.13866203623712062
1740006942457510700,6.7455107421875,-1.0041343722015619,1.988954095341265,-0.4404629628419876
1740006942467492600,6.75549267578125,-0.1432546247243881,2.046431594058871,-0.8927256690710782
1740006942477474800,6.765474853515625,0.2867991723060608,2.120051833803952,-1.3930243841946124
1740006942487456500,6.77545654296875,0.39587563309669493,2.2162011546127496,-1.7911656241357325
1740006942497437700,6.785437744140625,0.33011107528805733,2.392538110858202,-2.041293646648526
1740006942507419600,6.795419677734375,0.3567418925821781,2.5462673678457737,-2.379326162585616
1740006942517401600,6.805401611328125,0.657698185056448,2.403343290250003,-2.9779122334599495
1740006942527383600,6.815383544921875,0.9580009820580482,2.288644313402474,-3.341947205659747
1740006942537365800,6.82536572265625,1.113441719138622,2.4384597579471765,-3.4116444267421957
1740006942547346700,6.8353466796875,0.9953402403712273,2.6573066531419753,-3.0596365769445892
1740006942557328600,6.84532861328125,0.6167991884350776,2.907427076870203,-2.4287843132376667
1740006942567310600,6.855310546875,-0.07368307584822177,3.084233258062601,-1.5664578740835189
1740006942577292800,6.865292724609375,-0.8748521587282418,2.9672800725474953,-0.38647242945730687
1740006942587274500,6.8752744140625,-1.2583283289790153,2.6714111663401123,0.6400538072943687
1740006942597256700,6.885256591796875,-1.1162561920374632,2.191823523072898,1.194625964397192
1740006942607237600,6.895237548828125,-0.630631314432621,1.452845231167972,1.6334686325609682
1740006942617219600,6.905219482421875,-0.07653789902376011,0.6203320387363433,1.7323025162786245
1740006942627201500,6.915201416015625,0.30440263353586194,-0.6720943746775389,1.3784569296598435
1740006942637183700,6.925183837890625,0.6965770740270614,-1.86117351860255,0.9642647186279296
1740006942647165400,6.93516552734375,0.8480044838130474,-2.752097983470559,0.8358622105985879
1740006942657146600,6.945146728515625,0.9269418269276618,-3.375086674195528,0.9518418749064207
1740006942667128600,6.955128662109375,1.1911854685544967,-3.727375094500184,0.9470569787174463
1740006942677110800,6.96511083984375,1.6164847645342348,-3.8242455691903827,0.7381640529125928
1740006942687092500,6.975092529296875,2.09788880957365,-3.6587586543917654,0.7205149989753961
1740006942697074700,6.98507470703125,2.7097207309901714,-3.1921547035992144,0.7927174808770417
1740006942707055600,6.9950556640625,3.2650317237615583,-2.6228683769673107,0.7515460970550775
1740006942717037600,7.00503759765625,3.649960430908203,-2.3098463836461303,0.4120622132658958
1740006942727019500,7.01501953125,3.984890889176726,-2.0372773967444897,-0.05103577523231506
1740006942737001700,7.025001708984375,4.2210254576504225,-1.752523466530442,-0.49298809984922404
1740006942746983400,7.0349833984375,4.3906238994210955,-1.477321793037653,-0.7886971393197775
1740006942756964600,7.044964599609375,4.451381442722678,-1.1564034935086964,-0.8379629822701216
1740006942766946600,7.054946533203125,4.356555625602603,-0.7900164052248001,-0.6274655438780784
1740006942776928800,7.0649287109375,4.190139905521273,-0.3509510342210531,-0.03068623016476631
1740006942786910500,7.074910400390625,3.925605756515264,0.2792965415909886,0.9679583124488591
1740006942796892700,7.084892578125,3.5885248422145843,0.9993003761738538,2.079808378481865
1740006942806873600,7.09487353515625,2.992325374215841,1.5487576744809746,2.725124051827192
1740006942816855600,7.10485546875,2.545986797338724,2.3947335750758647,3.5559348242551088
1740006942826837500,7.11483740234375,2.0228607488572594,3.133894237810373,4.411797035831213
1740006942836819700,7.12481982421875,1.3230524378240107,3.4075770311728117,4.70779775172472
1740006942846801400,7.134801513671875,0.47161666438803074,3.401147582647204,4.577417806142568
1740006942856782600,7.144782470703125,-0.1861293053328991,3.7460666432276364,4.8115088860899204
1740006942866764500,7.1547646484375,-0.5058113410651683,4.599901732890308,5.629267869243026
1740006942876746800,7.164746826171875,-0.6456079342901706,5.739587608093023,6.279889247781038
1740006942886728400,7.174728515625,-0.9731962131023406,6.39519788095951,5.990973521712422
1740006942896710700,7.184710693359375,-1.6155355009853838,5.9894677933245895,4.85947767496705
1740006942906692900,7.19469287109375,-2.3776000694453714,5.074554842364788,3.2870237753391263
1740006942916673800,7.204673828125,-3.140531776128709,4.153599980892241,1.8708178375214337
1740006942926656000,7.214656005859375,-3.8812814616203304,2.951704025492072,0.5325456187337637
1740006942936638000,7.224637939453125,-4.386060537028312,1.6955425191581248,-0.4650590594381094
1740006942946620000,7.234619873046875,-4.663613742083311,0.9687497550874948,-0.6372820044934749
1740006942956602000,7.24460205078125,-4.816282676362991,0.5793354269593953,-0.03850830209255218
1740006942966583000,7.2545830078125,-4.675049328333139,0.4282639910042286,0.8683750716686248
1740006942976565000,7.26456494140625,-4.2170849033311,0.12082827338278293,1.7194880428910255
1740006942986547000,7.274546875,-3.6513948476254936,-0.15147007988393305,2.3072131125330926
1740006942996529200,7.284529052734375,-2.9152573321044444,-0.254758020401001,2.8436662600994107
1740006943006510800,7.2945107421875,-2.1758418178260324,-0.1824509090811014,3.2933401188790796
1740006943016491800,7.30449169921875,-1.587748499393463,-0.23711072002947328,3.3680671508222817
1740006943026474000,7.314473876953125,-1.1058511178791521,-0.49792555625140666,3.02679346100688
1740006943036456200,7.324456298828125,-0.765700221548602,-0.8965198006570338,2.3829285709917545
1740006943046438000,7.33443798828125,-0.5145546925563365,-1.3441776434391737,1.5429349596768616
1740006943056420000,7.344420166015625,-0.37276831375360486,-1.8879799847245216,0.528749733582139
1740006943066401000,7.354401123046875,-0.15734744748473167,-2.398895955452323,-0.4549906698882579
1740006943076383200,7.36438330078125,0.2135561683755368,-2.828292749878764,-1.3608727576524018
1740006943086365000,7.374364990234375,0.7674316484510898,-2.9958927113085982,-2.110134543162584
1740006943096347100,7.38434716796875,1.4238590829193591,-2.9919425123780963,-2.62275790233016
1740006943106329000,7.3943291015625,1.7590379629909991,-3.0662457659512756,-3.0974808621704577
1740006943116311000,7.40431103515625,1.7785376132309436,-3.30928529150784,-3.6044290983110665
1740006943126292000,7.4142919921875,1.6136434036284684,-3.7123657414168116,-3.999783337882161
1740006943136274200,7.424274169921875,1.3967080411434172,-4.109808477699756,-4.0848119836092
1740006943146256000,7.434255859375,1.2507973489522932,-4.444865777218341,-3.8232548045873638
1740006943156238000,7.444238037109375,1.2028987027019262,-4.7353299017727375,-3.353995370849967
1740006943166220000,7.454219970703125,1.2498305497467517,-4.9650978578239675,-2.8482167630106208
1740006943176201200,7.464201171875,1.3189350656330585,-5.161803502228856,-2.1766198164612054
1740006943186183000,7.474182861328125,1.4025123435080051,-5.462020374512672,-1.6048048481345176
1740006943196165000,7.4841650390625,1.5974340271055698,-5.616291483291984,-1.0732061548620462
1740006943206147000,7.49414697265625,1.8406569464050233,-5.639187790232897,-0.5940180323064327
1740006943216129000,7.50412890625,2.1247668796271086,-5.6654842610061165,-0.18573066140413283
1740006943226110000,7.51410986328125,2.4585452452510594,-5.7037926566123955,0.11912030042111874
1740006943236092200,7.524092041015625,2.7674235628962514,-5.661279795053601,0.3594172492712736
1740006943246073900,7.534073974609375,3.083725893062353,-5.505380208289623,0.5156348159432411
1740006943256056000,7.54405615234375,3.32745106279552,-5.172290409451723,0.6293447817534208
1740006943266038000,7.5540380859375,3.395976317489147,-4.906088034972548,0.7233253802210092
1740006943276019200,7.564019287109375,3.373231401717663,-4.668474041596054,0.8297440199792384
1740006943286001000,7.5740009765625,3.3678216516286135,-4.39658310008645,0.9983020127862692
1740006943295983000,7.583983154296875,3.352339420336485,-4.007120841163396,1.4096335736900567
1740006943305965000,7.593965087890625,3.290210004159808,-3.5108336997687815,2.023452869531512
1740006943315947000,7.603947021484375,3.2199241695344445,-2.958983661106229,2.820660647565126
1740006943325928000,7.613927978515625,3.112655634948611,-2.419319150277972,3.7059412613272666
1740006943335910100,7.62391015625,2.942655042117834,-1.905605657786131,4.3692508565247055
1740006943345891800,7.633891845703125,2.6344302199453113,-1.5245874020814896,4.947054836133122
1740006943355874000,7.6438740234375,2.0998826137393714,-1.2869389219135046,5.337811226519942
1740006943365856000,7.65385595703125,1.3696060992062091,-1.1711959889709949,5.551306677684187
1740006943375838000,7.663837890625,0.6261082840502262,-1.0337252083450554,5.8938055253803725
1740006943385819000,7.67381884765625,0.021361936980485916,-0.6393243239760399,6.654515756621956
1740006943395801000,7.683801025390625,-0.39163668035268784,-0.11257657786607742,7.448237446105479
1740006943405783000,7.693782958984375,-0.8796517410296947,0.09380407285690306,7.684877041491865
1740006943415765000,7.703764892578125,-1.4309692071855067,-0.15673428402245043,7.347350721511244
1740006943425747000,7.713746826171875,-1.878584233739227,-0.45653263863325116,6.872010506555438
1740006943435728100,7.72372802734375,-2.4676561879456043,-0.6730716952770948,6.427161291453242
1740006943445709800,7.733709716796875,-2.7531729192256926,-1.0044558592408894,5.81661882532537
1740006943455692000,7.743692138671875,-3.1166984805986284,-1.4177075745522976,5.228503879582882
1740006943465674000,7.753674072265625,-3.2322727789759633,-1.6913754626065491,5.090547945788503
1740006943475656000,7.763656005859375,-2.858578582549095,-1.504444193241,5.493757575035095
1740006943485636900,7.773636962890625,-2.4092684425152835,-0.7313070266246795,6.41981677390933
1740006943495619000,7.783619140625,-1.9692682748794554,0.3164928843021393,7.196337737745046
1740006943505601000,7.79360107421875,-1.5381763669729231,1.1494918144240975,7.425921569401026
1740006943515583000,7.8035830078125,-1.2526548133872448,1.6668369414165616,7.216133156061172
1740006943525565000,7.81356494140625,-1.0688605268731712,1.9765990561589597,6.820075152134895
1740006943535547100,7.823547119140625,-0.9785540868736803,2.3544728763580323,6.543438477402925
1740006943545527800,7.83352783203125,-0.7588742479860782,2.8155700464278457,6.307883754643798
1740006943555510000,7.843510009765625,-0.5558638043485582,3.071867989747226,5.793011739766597
1740006943565492000,7.853491943359375,-0.5848597433388233,3.0443226879566905,5.023818342339992
1740006943575474000,7.863473876953125,-0.6145780052542686,2.894291408704221,4.136768380817771
1740006943585455900,7.873455810546875,-0.5489595779180526,2.71046891900897,3.249453630879521
1740006943595437000,7.88343701171875,-0.4084266332425177,2.457614686402678,2.3032798647373913
1740006943605419000,7.8934189453125,-0.41925884677171704,2.0940262889266013,1.3654875579714774
1740006943615401000,7.90340087890625,-0.5915478428006172,1.7859153023920953,0.6852694980710744
1740006943625383000,7.9133828125,-0.7822070466481149,1.5585511926122009,0.21235563347935676
1740006943635365000,7.923365234375,-0.8759528134465218,1.71501747334823,0.066480012601614
1740006943645346800,7.933346923828125,-1.259081339303404,1.9603028781354426,0.1769306843549013
1740006943655329000,7.9433291015625,-1.7536112617671489,2.040548965761065,0.08392916005253791
1740006943665311000,7.95331103515625,-2.1703357677556574,2.2454412776224313,-0.22831483463346958
1740006943675292000,7.9632919921875,-2.4529487404182553,2.665257612146437,-0.45927930699288844
1740006943685273900,7.97327392578125,-2.4804770910739897,3.149993139696121,-0.7169798105865717
1740006943695256000,7.983256103515625,-2.3871700079537925,3.7004374032139777,-0.9669891751557588
1740006943705238000,7.993238037109375,-2.2333776226021347,4.34587407259047,-1.2292039413034914
1740006943715220000,8.003219970703125,-2.0246448557950556,5.079947641319036,-1.4577525846928356
1740006943725201000,8.013200927734376,-1.8038380587041376,5.788114615374803,-1.7781027289450169
1740006943735183000,8.02318310546875,-1.591887937285751,6.46722442177236,-2.202038335356116
1740006943745165000,8.0331650390625,-1.2671265524625777,7.058617366272211,-2.7760294786781072
1740006943755147000,8.04314697265625,-1.0175530950926244,7.589070981162786,-3.382321886146068
1740006943765129200,8.053129150390625,-0.8891524867594242,8.068532075440883,-3.932447000712156
1740006943775111000,8.06311083984375,-0.818802939248085,8.541333127307892,-4.197894172909856
1740006943785092000,8.073092041015625,-0.9020375411652028,9.030877224183081,-4.29316773379743
1740006943795074000,8.083073974609375,-1.0550982512414455,9.431571655738352,-4.3897184750139715
1740006943805056000,8.093055908203125,-1.2170502699121832,9.67074632256031,-4.5398821484744545
1740006943815038000,8.103037841796874,-1.3805815205983816,9.84290672377348,-4.570834336099028
1740006943825020200,8.113020263671874,-1.6018597345933316,10.045230792582034,-4.380373723563552
1740006943835001000,8.1230009765625,-1.8465549184024332,10.181319178938866,-4.13242362961173
1740006943844983000,8.132983154296875,-2.0806685024425384,10.179002134168147,-3.8445091895401475
1740006943854965000,8.142965087890625,-2.228275477157533,10.143486584150791,-3.5537224089026447
1740006943864947200,8.152947265625,-2.3246914860785006,10.095459927606582,-3.1815298492103814
1740006943874929000,8.162928955078126,-2.4043223644152283,10.04964276380539,-2.771589450404048
1740006943884910000,8.17291015625,-2.4409359388023613,10.075140777677298,-2.3006927708536384
1740006943894892000,8.18289208984375,-2.32863671657294,10.317459003221988,-1.5456974101275205
1740006943904873500,8.19287353515625,-2.1224498348563907,10.822263797593116,-0.5349842440575361
1740006943914855200,8.202855224609374,-1.9704370263978839,11.126325070345402,0.14751695834398268
1740006943924837400,8.21283740234375,-1.9491955009266733,10.977786367738247,0.1303542266190052
1740006943934819300,8.2228193359375,-2.0289228253751994,10.505871451056002,-0.3330921369254589
1740006943944800300,8.23280029296875,-2.147050899888575,10.004820456260441,-0.5488754067659378
1740006943954782200,8.2427822265625,-2.1304197908222675,9.560390343353152,-0.3128606652796268
1740006943964764400,8.252764404296874,-2.0127064345896244,9.32728710539937,0.1863549307823181
1740006943974746000,8.26274609375,-1.8317802508577703,9.148584150674939,0.888453398579359
1740006943984728300,8.272728271484375,-1.5449065520107745,8.836687361991405,1.5680477736234664
1740006943994709200,8.282709228515625,-1.2332850731372833,8.562478206667304,2.480340312951803
1740006944004691500,8.29269140625,-0.8792835653044283,8.372285305157304,3.7201767074286938
1740006944014673200,8.302673095703126,-0.4720753679409623,8.204879989516735,5.103654095599055
1740006944024655400,8.3126552734375,0.0046682840719819065,7.850974197143316,6.2633572151750325
1740006944034637300,8.32263720703125,0.45564738023132084,7.256471596190333,7.081504320862889
1740006944044619300,8.332619384765625,0.7099034424595534,6.4685571316808455,7.52953333504498
1740006944054600200,8.34260009765625,0.7017559379696846,5.512783762544394,7.598099506270885
1740006944064582400,8.35258251953125,0.5752466963410378,4.5686347802281375,7.328059161064028
1740006944074564000,8.362564208984375,0.3776898419342935,3.7331045780628918,6.911296222761273
1740006944084546300,8.37254638671875,0.006294131708145141,2.926065434105694,6.3803492713958025
1740006944094528500,8.382528564453125,-0.37674320873394607,2.0408307053118944,5.772753964635729
1740006944104509400,8.392509521484374,-0.682827073355019,1.1903706450402736,5.134322790107131
1740006944114491100,8.4024912109375,-1.0642866430863738,0.3838324363425374,4.595993327274918
1740006944124473300,8.412473388671875,-1.5186124193251131,-0.47501054461002346,4.211104367616772
1740006944134455600,8.42245556640625,-1.8222127965673802,-1.357670454479754,3.909479966622591
1740006944144437200,8.432437255859375,-2.0087635421827432,-2.2678698209211228,3.846996330180764
1740006944154418200,8.442418212890624,-2.137729821574688,-3.1075428219795227,3.928963250249624
1740006944164400400,8.452400390625,-2.078577521512657,-3.7767315383434292,4.065319347631931
1740006944174382300,8.46238232421875,-1.8296134282127021,-4.3582115761160845,4.164865763533115
1740006944184364300,8.4723642578125,-1.4835051578477023,-4.8582384885609144,4.179672872042656
1740006944194346500,8.482346435546875,-1.1221394048571587,-5.237261186534166,4.194782178369164
1740006944204328200,8.492328125,-0.6840286311645061,-5.543249043434858,4.239292935746908
1740006944214309000,8.50230908203125,-0.13495675197839735,-5.799807975777983,4.211508272242546
1740006944224291300,8.512291259765625,0.5241758497953415,-6.017701369640231,4.0422172889858485
1740006944234273500,8.5222734375,1.1990157237887382,-6.210485456687212,3.7857115481346844
1740006944244255200,8.532255126953125,1.9907588066756725,-6.481057716813683,3.4073160421490667
1740006944254237400,8.542237548828124,2.7463468725979325,-6.481617104262114,3.153950352889299
1740006944264218400,8.55221826171875,3.3000720574826,-6.360839099761844,3.035494653856754
1740006944274200300,8.562200439453125,3.735578859221935,-6.35331104234457,2.9903438450098037
1740006944284182300,8.572182373046875,4.084689234012365,-6.3018929897964,2.9837755725353956
1740006944294164500,8.58216455078125,4.300091980102658,-6.125622815176844,3.0089158590108154
1740006944304146200,8.592146240234374,4.3141725279033185,-5.916791264170408,3.164053813752532
1740006944314128400,8.60212841796875,4.101379672050476,-5.7660465759515755,3.4298891084849834
1740006944324109300,8.612109375,3.801265091097355,-5.630468477204442,3.73055314001441
1740006944334091500,8.622091552734375,3.444216909044981,-5.532498516839742,4.08859734736681
1740006944344073200,8.6320732421875,3.1474639134794473,-5.4358524985551835,4.5071728880494835
1740006944354055400,8.642055419921874,2.7236966493725774,-5.37613949587047,5.219843603265285
1740006944364037400,8.652037353515626,2.437346389877796,-5.215466118833422,5.9551680488377805
1740006944374018300,8.662018310546875,2.0961983722686766,-4.895518710163236,6.681413700419664
1740006944384000300,8.672000244140625,1.6521499521553515,-4.734932426887751,7.419201321235299
1740006944393982500,8.681982421875,1.4476011930346488,-4.596092695996165,8.211095795291662
1740006944403964200,8.691964111328126,1.4515385324835777,-4.302243020656705,9.249233559381961
1740006944413946400,8.7019462890625,1.5571943711757659,-3.8119659333318467,10.398819774091242
1740006944423927300,8.71192724609375,1.4381564883410929,-3.333309725695848,11.236256102138757
1740006944433909500,8.721909423828125,1.083137766289711,-3.389747652232647,11.620119810402393
1740006944443891200,8.73189111328125,0.6764414639711379,-3.9564802027285095,11.554760910785198
1740006944453873400,8.741873291015626,0.28913258368968964,-4.865661332038044,11.046993759477138
1740006944463855400,8.75185546875,0.07899711047783493,-5.920204287484288,10.433841987633704
1740006944473837300,8.76183740234375,0.09604629882574081,-6.833705033558607,9.95810429779291
1740006944483818200,8.771818359375,0.21131511145047843,-7.355083361589908,9.667808515542745
1740006944493800400,8.781800537109374,0.4945018654130399,-7.219870004501939,9.699521166145802
1740006944503782400,8.791782470703126,0.6907564050495624,-6.4587184592336415,9.955408482837676
1740006944513764400,8.801764404296875,0.876373669207096,-5.268409773513675,10.254183339619637
1740006944523746300,8.811746337890625,1.2111163498185575,-3.8140579371750354,10.427447318160533
1740006944533727500,8.8217275390625,1.67376790972352,-2.442060558918118,10.11694929035902
1740006944543709200,8.831709228515624,1.8966401149116456,-0.9745604871928691,9.741290515860914
1740006944553691400,8.84169140625,2.05864985511899,0.4008095823675394,9.108548492884635
1740006944563673300,8.85167333984375,2.260631247969717,1.451334534344077,7.933357296797633
1740006944573655300,8.8616552734375,2.150938993368298,2.283554004526138,6.442088811472058
1740006944583637200,8.87163720703125,1.9065631046414375,2.8660335747301575,4.955926124852896
1740006944593618400,8.881618408203124,1.6955226454138754,3.1814272656187415,3.6992630987375974
1740006944603600400,8.891600341796876,1.3331857093036175,3.3171392198786136,2.666701088953018
1740006944613582300,8.901582275390625,0.7331622991025447,3.369522902588546,1.8506839810311793
1740006944623564300,8.911564208984375,-0.034062720860540865,3.284495718166232,1.3793500791072844
1740006944633546200,8.921546142578125,-0.5452618924438953,3.088839582814276,1.217481354805827
1740006944643527200,8.931527099609376,-0.9016238457977771,2.8775524553492664,1.072902788001299
1740006944653509400,8.94150927734375,-1.2357388960301876,2.663738147494197,1.0406874485731124
1740006944663491300,8.9514912109375,-1.3841326372087002,2.6627204948842524,1.1933061139702796
1740006944673473300,8.961473388671875,-1.2491798307530582,2.991193155315518,1.5077683692276478
1740006944683455200,8.971455322265625,-1.1712544411599635,3.455908515882492,1.7150141123473643
1740006944693437400,8.9814375,-1.1176397553503512,3.706511462430656,1.552871247279644
1740006944703418400,8.99141845703125,-0.8377401332996786,4.024562682090699,1.169705458152294
1740006944713400300,9.001400390625,-1.008095750113204,4.476072231864929,1.1124018546968697
1740006944723382300,9.01138232421875,-1.2474433623492718,4.855035893127322,1.115368887808919
1740006944733364200,9.0213642578125,-1.208967793482542,5.445211278530955,0.8832435549765825
1740006944743346200,9.03134619140625,-1.0706884729526935,6.09165098747015,0.6010743805587291
1740006944753328400,9.041328369140626,-0.8949263939857482,6.695829763785004,0.36612113082408904
1740006944763309300,9.051309326171875,-0.8241957382023334,7.282578097349405,0.037625089517235755
1740006944773291300,9.061291259765625,-0.8214286115765571,7.805864304828643,-0.33457156182825565
1740006944783273200,9.071273193359374,-0.5796434699952602,8.2650717156291,-0.7744353897333145
1740006944793255400,9.08125537109375,-0.17910685935020446,8.665817000588774,-1.3095330310374498
1740006944803237400,9.0912373046875,0.22541092988550662,8.953179067474602,-1.8682278210282324
1740006944813218300,9.10121826171875,0.6214560743302107,9.241632436728477,-2.3014380362629887
1740006944823200300,9.1112001953125,1.028813470906019,9.575496142548323,-2.5661066253036258
1740006944833182200,9.12118212890625,1.3224679159343242,9.89182302263379,-2.8280793993890283
1740006944843164400,9.131164306640626,1.524789646655321,10.08117888879776,-3.111227063450217
1740006944853146400,9.141146484375,1.7062737565308808,10.215504357135295,-3.3102970988988876
1740006944863128300,9.15112841796875,1.869446549168229,10.4298578864336,-3.2973107760757205
1740006944873109200,9.161109130859375,1.9480483767181633,10.705922898757457,-3.1850340579390526
1740006944883091500,9.171091552734374,1.9376549929976463,10.94083289387226,-3.099727179792523
1740006944893073400,9.181073486328126,1.831626229339838,11.14072535161972,-2.9750632737696168
1740006944903055400,9.191055419921875,1.598237744703889,11.360517272579669,-2.6771330511182545
1740006944913037600,9.20103759765625,1.217237024655938,11.656299377286434,-2.186799265170097
1740006944923018500,9.2110185546875,0.7581587931931019,11.951291208398342,-1.6354402248948812
1740006944933000400,9.22100048828125,0.31345351660624143,12.151124044913052,-1.2454238392204044
1740006944942982400,9.230982421875,-0.10675298627912998,12.193656195694208,-0.9921031581461429
1740006944952964600,9.240964599609375,-0.5062924025803804,12.04493629130125,-0.9253858296573162
1740006944962946300,9.2509462890625,-0.805899034011364,11.793407169818877,-1.0785521920651198
1740006944972928500,9.260928466796875,-0.9837257904231548,11.495289315640926,-1.2597943098783493
1740006944982909400,9.270909423828124,-1.1733598890066146,11.030302152395247,-1.4541297180205583
1740006944992891600,9.2808916015625,-1.1347282527953386,10.523827963507175,-1.5050608638346195
1740006945002873300,9.290873291015625,-0.9106593851685524,10.120291586524248,-1.2047902155369519
1740006945012855600,9.30085546875,-0.5983914250850677,9.727159699177742,-0.6809095492959022
1740006945022837500,9.31083740234375,-0.32631869726777074,9.358099592292309,0.09774258134961128
1740006945032818400,9.320818359375,0.028058219748735427,9.035125529277325,1.171736671718955
1740006945042800400,9.33080029296875,0.5699462518453597,8.78671600112021,2.486986911359429
1740006945052782600,9.340782470703125,1.2705495126485824,8.548322840064763,3.887024973708391
1740006945062764300,9.350764404296875,2.0993033525466918,8.248599888777733,5.129388256314397
1740006945072746500,9.36074658203125,2.6722318350732324,7.7589301196962595,5.798000049573183
1740006945082728400,9.370728515625,2.828807713663578,6.966948551878333,5.861629348918795
1740006945092709600,9.380709716796876,2.686452083605528,6.044229895603657,5.424082565784454
1740006945102691300,9.39069140625,2.269356990738958,5.0691965302020305,4.908168348377942
1740006945112673500,9.400673583984375,1.8232709273181855,4.075282523241639,4.600421665111184
1740006945122655500,9.410655517578125,1.5602664720974861,3.163854199527204,4.302183983945846
1740006945132637400,9.420637451171874,1.3699661646902561,2.3477122961819172,4.056408895945549
1740006945142618400,9.430618408203125,1.1192565428972243,1.57610263139382,3.825042857047915
1740006945152600600,9.4406005859375,0.7802583967983723,0.8550441731914877,3.564677518159151
1740006945162582300,9.450582275390625,0.38021176162734627,0.1490340849086642,3.2016789032697677
1740006945172564500,9.460564453125,-0.09141089411005378,-0.5737275239497422,2.889651766204834
1740006945182546400,9.47054638671875,-0.45395372805595396,-1.1947884614825248,2.6878549361407753
1740006945192528400,9.4805283203125,-0.5853776297330856,-1.727855181480944,2.4840678090423345
1740006945202509300,9.49050927734375,-0.5030571469862014,-2.0848516333460805,2.4701193631887435
1740006945212491500,9.500491455078125,-0.387723963888362,-2.6020053294196726,2.616840202718973
1740006945222473500,9.510473388671874,-0.24457681812644003,-3.2824194964140654,2.806090270420909
1740006945232455400,9.520455322265626,0.014953238981962203,-3.9165883373230694,3.1102047346651553
1740006945242437400,9.530437255859376,0.19641798656992612,-4.304927729696035,3.550245672702789
1740006945252418600,9.54041845703125,0.1039933853726834,-4.595740229296684,3.9929339103788135
1740006945262400500,9.550400390625,-0.09621113399863243,-4.776089782184362,4.3033243861526245
1740006945272382500,9.560382568359374,-0.10125555790662764,-4.9773137807965275,4.707039042311907
1740006945282364400,9.570364501953126,-0.13537877678275106,-5.057596693301201,5.021174549832939
1740006945292346400,9.580346435546875,0.14465521223731337,-5.373061403599381,5.236216645917296
1740006945302328300,9.590328369140625,0.44610937123112376,-5.827431311240792,5.525746704491973
1740006945312309500,9.6003095703125,0.4294751203596592,-5.949681141859292,5.684141615203022
1740006945322291500,9.61029150390625,0.38474162360932673,-6.052251874017715,5.581622320970893
1740006945332273400,9.6202734375,0.3781143509566784,-6.248229788669944,5.533433167341351
1740006945342255400,9.63025537109375,0.3022468802740797,-6.483411001941561,5.620808083933592
1740006945352237600,9.640237548828125,0.12048979867603629,-6.601032588237524,5.9207689356297255
1740006945362218500,9.650218505859375,-0.12127543262839316,-6.686926326361299,6.287054901626706
1740006945372200400,9.660200439453124,-0.7897463561117649,-6.735979987865686,6.464178478205204
1740006945382182400,9.670182373046876,-1.3147779459536075,-6.748035751840471,6.752686792516708
1740006945392164400,9.680164306640625,-1.7229565957844257,-7.03442926595509,7.159246316713094
1740006945402146300,9.690146240234375,-2.0395582011580466,-7.098706800076365,7.124205982992053
1740006945412128500,9.70012841796875,-2.436926703161001,-7.004575394961238,7.189170914855599
1740006945422109400,9.710109375,-2.7999638964951035,-6.769577721562981,7.353678170967101
1740006945432091400,9.72009130859375,-3.1329215933859347,-6.421876629048586,7.715832151725888
1740006945442073300,9.7300732421875,-3.542907584899664,-5.832223806214333,8.675255275541543
1740006945452055600,9.7400556640625,-4.035757737582922,-5.034059750369191,9.372845326003432
1740006945462037500,9.75003759765625,-4.431037158352137,-4.499918971398473,9.845060102415085
1740006945472019500,9.76001953125,-4.805760113304853,-4.24456766127944,9.797161456164718
1740006945482000400,9.77000048828125,-5.116204365092516,-4.213685031759739,9.448394780245422
1740006945491982300,9.779982421875,-5.336777207297087,-4.277916388651728,8.883348575401305
1740006945501964500,9.789964599609375,-5.407177023690939,-4.3866228470861905,7.992343154251575
1740006945511946500,9.799946533203125,-5.391708236402273,-4.581625779226422,6.952539502775669
1740006945521928400,9.809928466796874,-5.4069853005111215,-4.628092931368947,6.077148414865135
1740006945531910400,9.819910400390626,-5.485872374743223,-4.461750861045718,5.699293007105589
1740006945541891600,9.8298916015625,-5.378600917547941,-3.9127310773730275,5.858371808427572
1740006945551873500,9.83987353515625,-5.154798591902852,-3.052608285742998,6.419881071317196
1740006945561855500,9.84985546875,-5.130747854229807,-2.070994372907281,7.083474159631133
1740006945571837400,9.85983740234375,-5.241048888379335,-1.2017974634617565,7.48604081479907
1740006945581819600,9.869819580078126,-5.1882554558247325,-0.5684019450128078,7.639624525836109
1740006945591800600,9.879800537109375,-4.907052496090531,0.016598668101429938,7.721234303030371
1740006945601782500,9.889782470703125,-4.509727248707414,0.7883008334785699,7.504899244526028
1740006945611764500,9.899764404296874,-3.55522404563725,1.5987264050036667,7.492700857210159
1740006945621746400,9.909746337890626,-2.3278064032286405,2.5090569966092704,7.022938150125742
1740006945631728400,9.919728271484376,-1.5242688376516103,2.989035685020685,5.938754674175382
1740006945641710600,9.929710693359375,-1.0115104539275168,3.0480215424746273,4.567012731984257
1740006945651691500,9.93969140625,-0.8595550747446715,3.0516970161169765,3.0389065081268547
1740006945661673500,9.949673583984374,-0.7855024349316955,3.0977102870121596,1.9866034405618904
1740006945671655400,9.959655517578126,-0.5709162659212946,3.3553283730193972,1.3101648992002008
1740006945681637600,9.9696376953125,-0.41678456561267374,3.61046428682208,0.9752110600560903
1740006945691619300,9.979619384765625,-0.3837751531973481,3.932973362673819,0.8289432249903679
1740006945701600500,9.9896005859375,-0.21774258721470832,4.191494242739677,0.753302000811696
1740006945711582500,9.99958251953125,0.3967994699433446,4.342827252240479,0.39551732117831706
1740006945721564400,10.009564453125,1.0575707788348196,4.805715689641237,0.1354600253254175
1740006945731546400,10.01954638671875,1.4161094917058943,5.524413994583488,0.030087679749727248
1740006945741528600,10.029528564453125,1.4964607932716607,5.896306110024452,-0.27425357898771763
1740006945751510300,10.03951025390625,1.6541247593596577,6.001814064678549,-0.8024532774716615
1740006945761491500,10.049491455078124,2.047223328958452,6.104553139141202,-1.2789046685397625
1740006945771473400,10.059473388671876,2.5096646071135997,6.317405031704903,-1.5876801103323697
1740006945781455600,10.06945556640625,2.984078939396143,6.679330464404821,-1.7854945927619934
1740006945791437300,10.079437255859375,3.3992668834671376,7.090224802935123,-1.9575708228230475
1740006945801419500,10.08941943359375,3.672251173171401,7.448239784193039,-2.032888221874833
1740006945811401500,10.0994013671875,3.762930976527929,7.71146343512237,-2.0655285087168216
1740006945821382400,10.10938232421875,3.8196041731253265,7.945257577949762,-2.0914503009587526
1740006945831364400,10.1193642578125,3.8685789241746065,8.209268579864501,-2.2556664651691913
1740006945841346600,10.1293466796875,3.842509247894585,8.408278994080424,-2.3998703534424304
1740006945851328300,10.139328369140625,3.7760900255694985,8.553007198488713,-2.437147067913413
1740006945861310500,10.149310546875,3.737093063177168,8.657455414956807,-2.5580712028861043
1740006945871292400,10.15929248046875,3.7713454613909123,8.841140249747037,-2.5875264299511906
1740006945881273600,10.169273681640625,3.8290050386771557,9.070364015918969,-2.4629566319525242
1740006945891255300,10.17925537109375,3.896264218957722,9.308105435067414,-2.0883336302429436
1740006945901237500,10.189237548828125,3.907163214112818,9.555517184358834,-1.6513795523047445
1740006945911219500,10.199219482421874,3.9611397189721465,9.899772520333528,-1.1593804634928702
1740006945921201400,10.209201416015626,3.862876620879769,10.184715251117945,-0.7974088535636663
1740006945931182300,10.219182373046875,3.4785464641481636,10.209094490092992,-0.7510884164154529
1740006945941164500,10.22916455078125,3.0807308028995988,10.04072529785633,-0.8030553350180387
1740006945951146200,10.239146240234374,2.7428561078727243,10.009813442242145,-0.6127846920967102
1740006945961128400,10.24912841796875,2.453066521579027,10.137262595069409,-0.0881739580154419
1740006945971110400,10.2591103515625,2.352678978678584,10.399892956280707,0.5505576607644558
1740006945981092400,10.26909228515625,2.415687808038294,10.807461365258693,1.214969079723954
1740006945991073300,10.2790732421875,2.439457098421454,11.159743355822563,1.6516799965560436
1740006946001055500,10.289055419921874,2.3376395227178928,11.178037721925973,1.5461895775586365
1740006946011037400,10.299037353515626,1.8889777635902165,10.662997949266433,0.9858803381085395
1740006946021019400,10.309019287109376,1.2912579541563987,9.942799176633358,0.32199615789353847
1740006946031001600,10.319001708984375,0.8141597896173596,9.519151739513873,0.1066255605071783
1740006946040983600,10.328983642578125,0.4948733290739357,9.340217314121126,0.3521054649531841
1740006946050964500,10.338964599609374,0.3105509270325303,9.084710521179437,0.7869833211392164
1740006946060946400,10.348946533203126,0.13443477393090725,8.579297824043035,1.3320067286521196
1740006946070928600,10.3589287109375,-0.01669745230078697,8.129967664134503,2.1573200727075337
1740006946080910300,10.368910400390625,0.05526259914711117,7.827239685812592,3.2333418695122003
1740006946090892500,10.378892578125,0.3375269775677472,7.5986606472849845,4.367027335256338
1740006946100873500,10.38887353515625,0.7027046900618821,7.219365562111139,5.482354722011089
1740006946110855400,10.39885546875,0.9316296924829482,6.609834903374314,6.214290694189072
1740006946120837400,10.40883740234375,1.0130442393660544,5.768669910192489,6.714433926489948
1740006946130819600,10.418819580078125,1.1000655202150345,4.972234870097041,7.221559857285023
1740006946140801500,10.428801513671875,1.2344856810986995,4.190124707952141,7.337949271437525
1740006946150783500,10.438783447265624,1.476081437587738,3.3693373168885707,6.789151606082916
1740006946160764400,10.448764404296876,1.5778560509324073,2.5003973048135637,5.847081768128276
1740006946170746600,10.45874658203125,1.422214238321781,1.691246429399401,4.702607781866193
1740006946180728300,10.468728271484375,0.9629214142601936,1.0661163427315652,3.713661041924357
1740006946190710500,10.47871044921875,0.22495792542099952,0.542302750377357,3.183790779879689
1740006946200692500,10.4886923828125,-0.5771721845109016,0.018477029193937778,2.945920765915513
1740006946210674400,10.49867431640625,-1.5084136813938618,-0.5401891192242503,2.776246336299181
1740006946220655400,10.5086552734375,-2.2409528801620007,-1.1196315136894583,2.6613217340022324
1740006946230637600,10.518637451171875,-2.8945161573708056,-1.7638748816281555,2.704365341436863
1740006946240619500,10.52861962890625,-3.498423131006956,-2.7469027529150245,2.8873090024709698
1740006946250601500,10.5386015625,-3.8173078788816928,-3.6163261645928024,2.939008794569969
1740006946260583400,10.54858349609375,-3.941916255325079,-4.298236123102903,2.9838316866368055
1740006946270565600,10.558565673828125,-4.049547778004408,-4.848233519636095,3.2584564370244737
1740006946280546300,10.56854638671875,-3.97669647680521,-5.250061631396412,3.3877596932858225
1740006946290528500,10.578528564453125,-3.75602894205451,-5.422939240968227,3.403264136409759
1740006946300510500,10.588510498046874,-3.555132275700569,-5.544443221655488,3.5656618530213833
1740006946310492400,10.598492431640626,-3.280599879771471,-5.700953633794188,3.319146760308742
1740006946320474400,10.608474365234375,-2.9202526561737057,-5.831808211150765,3.2129175056427717
1740006946330456600,10.61845654296875,-2.413863807481527,-5.802977253463864,2.8393267695903774
1740006946340437500,10.6284375,-1.9646435376882552,-5.7405742810428135,2.559362411740422
1740006946350419500,10.63841943359375,-1.6976877144932745,-5.6340586106508965,2.4834037921756504
1740006946360401400,10.6484013671875,-1.6250106008172034,-5.515675392332673,2.422147067180276
1740006946370383600,10.658383544921875,-1.8345570220947265,-5.514155635419487,2.6150252622514962
1740006946380365300,10.668365234375,-2.0791706651002166,-5.686621157059073,3.0968980938464403
1740006946390346500,10.678346435546874,-2.481966452848911,-6.062227324587107,4.074731903621554
1740006946400328400,10.688328369140624,-2.891926725399494,-6.933903191366792,5.416467999127507
1740006946410310400,10.698310302734376,-3.289971519228816,-7.642288776609301,5.271671405658125
1740006946420292400,10.708292236328125,-3.6032372581779955,-7.9443217584043735,5.016514741328359
1740006946430274600,10.718274658203125,-3.867175779378414,-8.113656580802799,5.368827711552381
1740006946440256300,10.72825634765625,-3.967524743834138,-7.899324678814411,5.855881160655618
1740006946450237400,10.738237548828126,-3.9455613338291644,-7.517309813287854,5.995630992129445
1740006946460219400,10.748219482421876,-4.040831972107291,-7.2523928024441,5.9109916379809375
1740006946470201600,10.75820166015625,-4.479285348692536,-7.14590109744966,5.915638002482056
1740006946480183300,10.768183349609375,-5.1664428524672985,-7.041473923769593,6.157866211655736
1740006946490165500,10.77816552734375,-5.89101267979145,-6.7237938755095,6.584619213575125
1740006946500147500,10.7881474609375,-6.913719065994024,-6.258537247672677,7.375860776680708
1740006946510128400,10.79812841796875,-7.092120407423376,-5.926358133938908,7.758631429010629
1740006946520110300,10.8081103515625,-5.479228698945045,-5.595261554744839,7.329769472113251
1740006946530092500,10.818092529296875,-5.839034070751071,-5.450963558447361,7.023461297217011
1740006946540074200,10.82807421875,-9.069788261857628,-5.266431751438975,6.942334335103631
1740006946550056400,10.838056396484374,-10.25202879193425,-5.111037776109576,6.301291516771912
1740006946560038700,10.84803857421875,-8.590057702988386,-5.344872250947356,4.66465945174396
1740006946570019600,10.85801953125,-7.253067340704798,-5.478408614733815,3.6257939579010006
1740006946580001300,10.868001220703125,-6.8713032350689165,-4.87544272134006,3.6309547016650434
1740006946589983500,10.8779833984375,-6.397572793397307,-3.898025091150403,4.008315603905916
1740006946599965700,10.887965576171876,-6.090243458759784,-3.013847470194101,4.443782073634862
1740006946609947400,10.897947509765626,-5.732306803435087,-2.1483485384836793,4.765794598141312
1740006946619929600,10.9079296875,-5.08370787063539,-1.2112293086737393,5.037525965175032
1740006946629910500,10.91791064453125,-4.493138809739053,-0.28740269115716216,5.351906971889734
1740006946639892200,10.927892333984374,-3.941194078530371,0.40729017655849453,5.628872732445597
1740006946649874400,10.93787451171875,-3.2070196797758337,1.0628709310695528,5.34339282604456
1740006946659856600,10.947856689453126,-2.109339008870721,1.737659659397602,4.5001410897165535
1740006946669838300,10.95783837890625,-1.3255001232370733,2.119350115275383,3.4248622202336785
1740006946679819300,10.9678193359375,-1.0332610979646444,2.1458426931425927,2.4987241109043357
1740006946689801500,10.977801513671874,-0.4957993578776717,2.173121745212376,1.8655261608541012
1740006946699783700,10.98778369140625,-0.34089258154332636,2.2561108479358256,1.8049831370860336
1740006946709765400,10.997765380859375,-1.0332178433448076,2.5861072108030316,1.8459394168525933
1740006946719747600,11.00774755859375,-1.6541086850076914,2.966101091895997,1.5364695630550385
1740006946729729500,11.0177294921875,-1.9527219214871525,3.319448081342876,1.063532902109623
1740006946739710500,11.02771044921875,-1.8205501240521669,3.5517955324932933,0.519230794608593
1740006946749692400,11.0376923828125,-1.348110306712985,3.533696104440093,-0.015649404552578926
1740006946759674600,11.047674560546875,-1.4588216752290726,3.7447543915852903,-0.27115444392859933
1740006946769656300,11.05765625,-1.376316702760756,4.139807602383196,-0.24055004682838915
1740006946779638500,11.067638427734375,-0.9717311089858413,4.461005887897312,-0.2234866838246584
1740006946789620500,11.077620361328124,-0.7526844534352422,4.798510580568015,-0.42043081316053865
1740006946799601700,11.0876015625,-0.3866983471676707,5.114041634100675,-0.6014946517974138
1740006946809583400,11.097583251953125,0.34882483584731816,5.577471046510339,-0.5977069499522447
1740006946819565600,11.107565673828125,0.6168474114909768,5.877489765873551,-0.25108196223676205
1740006946829547500,11.117547607421875,0.28600656062364577,6.002741700917482,-0.002010170778632164
1740006946839529500,11.127529541015624,0.4886293201178312,6.347448287791013,0.4988987851977348
1740006946849511400,11.137511474609376,1.2530512653589247,7.11272188142538,0.9339473217755555
1740006946859492600,11.14749267578125,1.950919548240304,7.773296498700976,0.7136480358153581
1740006946869474300,11.157474365234375,2.4085350136741996,7.917687433978915,0.4331412416517734
1740006946879456500,11.16745654296875,2.846105762206018,7.817092970329522,-0.10263561408817767
1740006946889438500,11.1774384765625,2.924467351259291,7.808838352203368,-0.5198346057206392
1740006946899420400,11.18742041015625,2.820965183469653,8.06096719314456,-0.5588637168169022
1740006946909402600,11.197402587890625,2.8395453807771203,8.428030573254823,-0.3810889828532934
1740006946919383800,11.2073837890625,2.8791391400188204,8.751779127773641,-0.14350070843994617
1740006946929365800,11.21736572265625,2.8924317523121834,8.987039251500368,-0.02238309672176838
1740006946939347700,11.22734765625,2.852782463490963,9.200417798286676,0.12484919946193694
1740006946949329700,11.23732958984375,2.866366752207279,9.232362504079937,0.08458791622221469
1740006946959311600,11.2473115234375,3.1347055541932582,9.33090529589653,-0.08695932152867317
1740006946969293600,11.25729345703125,3.3836779769301413,9.439323000517486,-0.2456055766522884
1740006946979274800,11.267274658203124,3.4820600252270695,9.479461534160375,-0.5650099644869566
1740006946989256700,11.277256591796874,3.5776574112415314,9.45701823168397,-0.9288391849815845
1740006946999238700,11.28723876953125,3.5757840185850855,9.615458735102415,-1.0316127462357283
1740006947009220600,11.297220703125,3.422010337933898,9.993400067579746,-0.5132084655791521
1740006947019202800,11.307202880859375,3.110399380454421,10.44535589981675,0.35686464217901226
1740006947029184800,11.317184814453125,2.873555202406645,10.806159050488471,1.0061971499502658
1740006947039165700,11.327165771484376,2.697736278685927,10.937388890898227,1.1536854667216538
1740006947049147600,11.337147705078126,2.4586703329354522,10.81263204589486,0.9162526751309633
1740006947059129600,11.347129638671875,2.139445393320918,10.493805750209093,0.4559206442147493
1740006947069111800,11.35711181640625,1.9528230437740683,9.966049119317532,-0.005077157133817673
1740006947079093800,11.36709375,1.9414122997045515,9.462265484687686,-0.31944179723560806
1740006947089075700,11.37707568359375,1.964296916207671,9.038559010857343,-0.4484329188078642
1740006947099056600,11.387056640625,1.98182059019953,8.719902811041473,-0.47755146126449105
1740006947109038600,11.39703857421875,1.8965759636342525,8.446805416351557,-0.3449152611881494
1740006947119020800,11.407020751953125,1.6626885895654557,8.150676690164207,0.011990297523140906
1740006947129002800,11.417002685546874,1.3404495628267525,7.965743901139497,0.6391735173285007
1740006947138984700,11.426984619140624,0.9490648114085197,7.854096713078022,1.5532266365885734
1740006947148967000,11.436966796875,0.5599740161463618,7.8569737298190585,2.722151173496246
1740006947158947600,11.446947509765625,0.2559615509718656,7.861602558663487,3.845116507783532
1740006947168929800,11.4569296875,-0.009237637814134359,7.634987513685226,4.678786761295795
1740006947178911700,11.466911865234374,-0.3302167276196182,7.089457910215854,5.257772644165158
1740006947188893700,11.476893798828126,-0.6324211204588412,6.3599757609307765,5.514430360707641
1740006947198875600,11.486875732421876,-0.8892898494035005,5.633533125472068,5.4526732849746935
1740006947208857900,11.49685791015625,-0.9752338564097881,4.850087915331125,4.90947884645462
1740006947218838800,11.5068388671875,-1.160330311563611,3.9911563793122764,4.133828235712647
1740006947228820700,11.51682080078125,-1.2101876906663178,3.1626144285991784,3.2015842107236385
1740006947238802700,11.526802734375,-1.1934224338263273,2.444827101022005,2.404830021676421
1740006947248785000,11.536784912109376,-1.272932023870945,1.8015557929858563,1.8032897771716117
1740006947258766600,11.5467666015625,-1.522467925709486,1.3171762392669915,1.4914222145825624
1740006947268748800,11.556748779296875,-1.9118822538375853,0.7220157589271664,1.6410153946787118
1740006947278729700,11.566729736328124,-2.4059815297991034,0.04682020336389541,2.0864561459332704
1740006947288711700,11.576711669921876,-2.830355527627468,-0.6813178378358483,2.7485288928121325
1740006947298693600,11.586693603515625,-3.017180414009094,-1.5497168749019503,3.386305987346172
1740006947308675800,11.59667578125,-2.9783728367090223,-2.490169048526883,3.8675200627714394
1740006947318657500,11.606657470703125,-2.681770063269138,-3.3819878318861125,4.307259387513995
1740006947328639700,11.6166396484375,-2.173149510002136,-4.125716825449467,4.57491546793282
1740006947338620700,11.62662060546875,-1.547921515917778,-4.7179608338207,4.893743517184257
1740006947348603000,11.636602783203125,-0.8270762620747089,-5.230404160246253,5.1931467349976295
1740006947358584600,11.64658447265625,0.0014133921955712138,-5.7655351192981,5.43738803755939
1740006947368566800,11.65656689453125,0.9174310712605714,-6.3139429085522885,5.880712235051393
1740006947378548700,11.666548828125,1.7655331702291965,-6.8190265198647975,6.113487556225061
1740006947388530700,11.67653076171875,2.482319504070282,-7.222872693449259,5.9778948444306845
1740006947398511600,11.68651171875,2.905893875953555,-7.438001883295178,5.894101877978444
1740006947408493800,11.696493896484375,3.1477316245049236,-7.464589445969462,5.973603284716606
1740006947418475500,11.7064755859375,3.1798832510471344,-7.3789172416418785,6.135742058131099
1740006947428457700,11.716457763671874,3.1641637038677928,-7.326125562652945,6.320500075110793
1740006947438439700,11.726439697265626,3.0663860512048005,-7.261795421561598,6.621492023420333
1740006947448421600,11.736421630859375,2.756272054284811,-7.1412208306789395,7.111627656447887
1740006947458402600,11.746402587890625,2.2509102105528114,-6.998982104998826,7.7918889709681265
1740006947468384800,11.756384765625,1.6201912178367375,-6.890028978326916,8.19582399187982
1740006947478366700,11.76636669921875,0.9833347452789545,-6.820405407002568,8.463703944182395
1740006947488348700,11.7763486328125,0.26641747853457926,-6.760557964283228,8.805093369331955
1740006947498330600,11.78633056640625,-0.47140404455065726,-6.776109169158339,9.032171355646849
1740006947508312600,11.7963125,-1.0441010564088822,-6.893651260477304,9.221751093694568
1740006947518293500,11.80629345703125,-1.4300713815629482,-6.930802302742004,9.71192705873251
1740006947528275700,11.816275634765624,-1.6749685176849365,-6.67903294276297,10.44548800176382
1740006947538257700,11.826257568359376,-1.6738848141014575,-6.298395210808515,11.335701980274916
1740006947548239600,11.836239501953125,-1.6345511671006678,-6.269635564792156,11.961576455569267
1740006947558221800,11.846221923828125,-1.9366309106469153,-6.50500967028737,12.209370482176542
1740006947568203800,11.856203857421875,-1.9631378093004226,-6.79337769934535,12.130279994326829
1740006947578184700,11.866184814453124,-1.8422984300017355,-7.147182369431853,11.716528512799739
1740006947588166700,11.876166748046876,-1.9619009609818456,-7.600967755183577,10.9723538212955
1740006947598148900,11.88614892578125,-1.9979332283496856,-8.00643305440247,9.97130747823715
1740006947608130800,11.896130859375,-1.8080851947546004,-8.069796396288275,8.934984070092439
1740006947618112800,11.90611279296875,-1.9553204135477542,-7.699045267575979,8.348528581994772
1740006947628094700,11.9160947265625,-2.0810639315009114,-6.871210880610346,8.338482404276728
1740006947638075600,11.92607568359375,-1.944934628611803,-5.632237240442634,8.769459745892881
1740006947648057600,11.9360576171875,-1.7008090613842008,-4.128540066176653,9.365562183257937
1740006947658039800,11.946039794921875,-1.4788181690752504,-2.518925771933794,9.754299635037778
1740006947668021800,11.956021728515625,-1.2150947519302366,-0.9109837948173284,9.909974765396118
1740006947678003700,11.966003662109374,-0.9402759402751922,0.7064478951781987,9.888539178657531
1740006947687984600,11.975984619140625,-0.6332102250099182,2.06788120932281,9.344409505113958
1740006947697966800,11.985966796875,-0.4301578419268131,2.900785154637694,8.122630745375156
1740006947707948800,11.99594873046875,-0.2839221555650234,3.0769191356569525,6.46935091240704
1740006947717930800,12.0059306640625,-0.018307223301695194,2.8245456723049283,4.523977892377973
1740006947727912700,12.01591259765625,0.19134324058890342,2.4032237555235625,3.005887451100349
1740006947737894700,12.025894775390626,0.11189385629892348,1.901229634658992,2.128706557163596
1740006947747876600,12.035876708984375,0.45987961097359653,1.5140245070129632,1.489141994690895
1740006947757857800,12.04585791015625,0.7749637975215912,1.458606278912723,1.2708669080346822
1740006947767839700,12.05583984375,0.39881577820181846,1.7750912721693515,1.7693249637275934
1740006947777821700,12.06582177734375,-0.07632686835527419,2.1397154424339533,2.4675346073925493
1740006947787803600,12.0758037109375,-0.587208352291584,2.439133273294568,2.654568168088794
1740006947797785900,12.085785888671875,-1.0959972478628157,2.855104184436798,2.5439789646476507
1740006947807767600,12.095767578125,-1.3525462433338165,3.2043735491812226,2.175150912952423
1740006947817748700,12.105748779296874,-1.6068284629166125,3.6829374023586507,1.9310639241695402
1740006947827730700,12.115730712890626,-1.8193851719260214,4.3607302809387445,2.016405289107561
1740006947837712600,12.125712646484375,-1.8143571146309374,5.07710569589138,2.1400912900090217
1740006947847694600,12.135694580078125,-1.6247417207479475,5.8248763660609715,1.9609955365747211
1740006947857676800,12.1456767578125,-1.4505483524024485,6.49872489092946,1.5942776089012622
1740006947867658500,12.155658447265624,-1.4646575417757033,7.061736959597468,1.2249012756735085
1740006947877639700,12.1656396484375,-1.4656535670757294,7.625619965881109,0.9765092831730842
1740006947887621600,12.17562158203125,-1.4777660296738147,8.212021093443036,0.8124035935997962
1740006947897603800,12.185603759765625,-1.3454828808188437,8.66190596462488,0.6292588570356369
1740006947907585000,12.1955849609375,-1.1127636737465858,9.03655000912249,0.5667302124083042
1740006947917567200,12.205567138671874,-0.9811679226338863,9.458502332761883,0.5313175382435321
1740006947927549200,12.215549072265626,-0.8427636605501174,9.893198987162112,0.5662140795797109
1740006947937530400,12.2255302734375,-0.6024117666423321,10.263391897469758,0.5152466934084892
1740006947947512000,12.235511962890625,-0.542720391267538,10.677634377384186,0.43069443302154536
1740006947957494300,12.245494384765625,-0.5733879167318344,11.089834537816047,0.3907692498683929
1740006947967476200,12.255476318359374,-0.578161122483015,11.469158849084376,0.3955634984076023
1740006947977458200,12.265458251953126,-0.48936753473188727,11.800402727794646,0.2878361141383648
1740006947987440000,12.275440185546875,-0.40823125680088995,12.058207276284694,0.07216273441314697
1740006947997421300,12.28542138671875,-0.45069209591150283,12.1669283477664,-0.20384616380929946
1740006948007403000,12.295403076171874,-0.5729348392020911,12.130465872287749,-0.6373468864232301
1740006948017385200,12.30538525390625,-0.7073883178334682,12.004146015751362,-1.0959107386231421
1740006948027367200,12.3153671875,-0.790512664309144,11.988845570766925,-1.286738430905342
1740006948037349000,12.32534912109375,-0.772201931592822,12.231588159203529,-1.1781307566702366
1740006948047331000,12.3353310546875,-0.5938320812802761,12.578153525686263,-0.9565747486472129
1740006948057312300,12.345312255859374,-0.31751287499964237,12.807678905153274,-0.9564987608015537
1740006948067294200,12.355294189453126,0.012501827241852878,12.83019936451912,-1.1727835504233837
1740006948077276200,12.365276123046876,0.39739422096610066,12.699451170146464,-1.5271797566622494
1740006948087258000,12.375258056640625,0.720576300708577,12.521362547928094,-2.0125772552520034
1740006948097240300,12.385240234375,0.9226391612976789,12.176860543715954,-2.647145324611664
1740006948107222300,12.39522216796875,0.9128092566788196,11.55684414680004,-3.3439380872160194
1740006948117203200,12.405203125,0.6515986260723322,10.837274319720267,-3.7164416125535964
1740006948127185200,12.41518505859375,0.33774792684204874,10.195417846918106,-3.483500871685147
1740006948137167000,12.4251669921875,0.08352529195938259,9.638884034353493,-2.6791122422367333
1740006948147149300,12.4351494140625,0.02178863795995712,9.192038092476128,-1.5443307979494332
1740006948157131300,12.44513134765625,0.20411972005367277,8.838347404158116,-0.26645664150118825
1740006948167113200,12.45511328125,0.490815431985259,8.639436943185329,1.055309848165512
1740006948177094100,12.46509423828125,0.9675210900753736,8.623876970481872,2.268396182882786
1740006948187076000,12.475076171875,1.5082242963016033,8.589065184819697,2.9159435608029365
1740006948197058300,12.485058349609375,1.9329203656911849,8.408009529489279,3.08140008046329
1740006948207040300,12.495040283203124,2.125828371378779,8.338663021540642,3.01912804094553
1740006948217022200,12.505022216796876,1.946203041112423,7.995297327882051,2.980394697925448
1740006948227004400,12.51500439453125,1.6151391951441765,7.332558810570836,2.7811002060711383
1740006948236986000,12.524986083984375,1.3518079921871422,6.629140492346883,2.6274551202356813
1740006948246967300,12.53496728515625,1.0484171660423278,5.908239124402403,2.6772487864524126
1740006948256949200,12.54494921875,0.8116676805406808,5.205600558379293,2.883357049974799
1740006948266931200,12.55493115234375,0.556363132172823,4.524748292228579,3.063453504884243
1740006948276913200,12.5649130859375,0.18522914162278173,3.8083600177943704,3.042231268635392
1740006948286895400,12.574895263671875,-0.26465046886205673,3.1124609891593455,2.9491280375242233
1740006948296877000,12.584876953125,-0.7015092697322368,2.4348005047872663,2.8243472271233796
1740006948306858200,12.594858154296874,-1.1147580624341964,1.8259765330150723,2.89116976955235
1740006948316840200,12.604840087890626,-1.3899334324419497,1.3532169822022317,3.3011282885372637
1740006948326822400,12.614822509765625,-1.5436346323788166,0.5386798837050796,3.746919752925634
1740006948336804000,12.62480419921875,-1.4720377151548862,-0.30019203010350465,4.287323099422455
1740006948346786300,12.634786376953125,-1.4152210184335707,-1.136116784544289,4.81667547507286
1740006948356768300,12.644768310546874,-1.4237106143593787,-1.9128741874843835,5.344944147139787
1740006948366749200,12.654749267578126,-1.4823019195377827,-2.6619588628619906,5.669747179147601
1740006948376731100,12.664731201171875,-1.7073580446362495,-3.3876422043859957,5.919222290709614
1740006948386713300,12.67471337890625,-2.136912659972906,-4.153205720877647,6.462158370554447
1740006948396695000,12.684695068359375,-2.2781483460903167,-5.159052742215991,6.947175929915905
1740006948406677200,12.69467724609375,-1.957372085380554,-5.859383615818619,7.3160291160523885
1740006948416659200,12.7046591796875,-1.4843699579834937,-6.485304268342256,7.5604159645646805
1740006948426640400,12.714640380859375,-0.8341559912025928,-7.201500819596648,7.54639211538732
1740006948436622000,12.7246220703125,-0.16122637127730993,-7.687854595997929,7.472907776981592
1740006948446604300,12.734604248046875,0.5818167223811149,-7.843352616223693,7.521131417402625
1740006948456586200,12.744586181640624,1.3448597804844378,-7.658092494940758,7.523871656021475
