time,seconds_elapsed,z,y,x
1739919872809287400,0.066287353515625,0.3398784360647201,-0.001961363200843334,0.3087565909616649
1739919872819269600,0.07626953125,0.25423545783162116,0.04519523251056671,0.27194223330542444
1739919872829252600,0.086252685546875,0.1450946996331215,0.057382806171476834,0.30394422224387524
1739919872839234600,0.096234619140625,0.07567804905772209,0.037275545427203176,0.3465186047315597
1739919872849216800,0.106216796875,0.10308277333378792,0.021724340552091596,0.239733469748497
1739919872859199500,0.116199462890625,0.19503975701928136,0.011229542283713817,0.1407243755944073
1739919872869181700,0.126181640625,0.2188847429871559,-0.025932898157835005,0.0859080771763809
1739919872879163400,0.136163330078125,0.18110943134427068,-0.0589683217972517,0.08622264128457754
1739919872889146600,0.146146728515625,0.0814987180352211,-0.02534106974452734,0.07468054418666288
1739919872899128600,0.156128662109375,-0.02825754171311855,0.024105098208785057,0.07829270680183545
1739919872909110500,0.166110595703125,-0.10976035140156745,0.0296060337126255,0.12928743763770909
1739919872919093500,0.176093505859375,-0.15149170719385147,0.019253566524386406,0.20059525398826225
1739919872929075500,0.186075439453125,-0.0812152249187231,-0.002269113975763321,0.20218318076683206
1739919872939058400,0.196058349609375,0.031871640557050704,-0.0316191271007061,0.17772430068431422
1739919872949040600,0.20604052734375,0.09483283138275146,-0.038997839175164695,0.18245653510428964
1739919872959022600,0.216022705078125,0.10518997474610804,-0.044774961271882054,0.1506413739748299
1739919872969005600,0.226005615234375,0.08694646204710006,0.018354864118993282,0.16468484116811305
1739919872978987800,0.23598779296875,0.06158171916604042,0.01859071870148182,0.21110294827083123
1739919872988969500,0.245969482421875,0.11619301479756831,0.004390636174380779,0.24602369246650485
1739919872998952700,0.25595263671875,0.1825730741560459,-0.02279693821966648,0.22914573249965905
1739919873008934400,0.265934326171875,0.24875907224714755,-0.08878741373866796,0.27842423400217664
1739919873018916600,0.27591650390625,0.26616964125335213,-0.12018559156507252,0.33263219126351173
1739919873028899600,0.285899658203125,0.23463234721720216,-0.08795710039436817,0.26575826570717614
1739919873038881500,0.295881591796875,0.11397300066053867,-0.01189297462850809,0.13195925066284833
1739919873048863700,0.30586376953125,0.003827449333667755,0.0699587946280837,0.06527750494405626
1739919873058846500,0.315846435546875,-0.09919044207036494,0.1263832771614194,0.04106558535993099
1739919873068828700,0.32582861328125,-0.13932429953813552,0.12503303159624338,0.07475516205914318
1739919873078810600,0.335810546875,-0.10148761309683323,0.06239595815837383,0.10070758690135553
1739919873088793600,0.345793701171875,-0.0832674812734127,0.0080322075471282,0.185721710912697
1739919873098775600,0.355775634765625,-0.10588847840428352,-0.09701046768277884,0.2328216627997346
1739919873108758800,0.3657587890625,-0.04932955583631992,-0.1057519925430417,0.2616561276179738
1739919873118740500,0.375740478515625,0.0015986673682928084,-0.09815028536766766,0.28028345200279725
1739919873128722700,0.38572265625,-0.014329554125666617,-0.11156272464841603,0.2145949551050551
1739919873138705400,0.395705322265625,0.0061906713336706155,-0.09988982251137495,0.21115617629541084
1739919873148687600,0.4056875,0.015321487772464752,-0.09825579156875609,0.23824852842036634
1739919873158669600,0.415669677734375,0.023468553870916366,-0.10187485884875058,0.24942677890826015
1739919873168652500,0.425652587890625,0.03553483923971653,-0.10289981798231601,0.2524574335747398
1739919873178634800,0.435634765625,0.021418635603785513,-0.10201222149282693,0.27067515424536537
1739919873188616400,0.445616455078125,0.0005658171892166138,-0.0840174228578806,0.26482935082660986
1739919873198599700,0.455599609375,-0.01865910776257515,-0.05119476518630981,0.22213417323715984
1739919873208581600,0.46558154296875,0.027024785047769544,-0.042832010510563845,0.24306226711133494
1739919873218563600,0.4755634765625,0.05783902550637722,-0.03853577462136745,0.30468373376587404
1739919873228546600,0.485546630859375,0.03325520386993885,-0.026738369321823118,0.29413510468471793
1739919873238528500,0.495528564453125,0.0239899473965168,-0.016411913357675074,0.24387769341375679
1739919873248511500,0.505511474609375,-0.002279050847887993,-0.034714170506596566,0.2776815806750208
1739919873258493700,0.51549365234375,-0.08545476218461989,-0.02435673488229513,0.308178900671564
1739919873268475600,0.5254755859375,-0.17497253602445126,-0.020104922656714916,0.2757084722374566
1739919873278458600,0.535458740234375,-0.16695055761039257,-0.023752631509304047,0.2565441548991017
1739919873288440600,0.545440673828125,-0.1442231774955988,-0.0314274039208889,0.25108837371123954
1739919873298422500,0.555422607421875,-0.11439268737733363,-0.012670096480846405,0.24084756847023964
1739919873308405800,0.56540576171875,-0.05723755248188972,-0.005203706122934818,0.22295297880675644
1739919873318387500,0.575387451171875,0.021446108132600783,-0.060545361855626104,0.2222768879097886
1739919873328369700,0.58536962890625,0.1464315011948347,-0.12104805361330509,0.2499265451239422
1739919873338352600,0.5953525390625,0.21668226450681685,-0.13965513892769812,0.2642521354605444
1739919873348334600,0.60533447265625,0.19339666598737237,-0.1094055466145277,0.23706843352401627
1739919873358316500,0.615316650390625,0.1047170965373516,-0.06868190656006336,0.21972199752889573
1739919873368299500,0.625299560546875,0.018668460112810134,-0.025439853943884372,0.1894349410158582
1739919873378281500,0.635281494140625,-0.01987082163989544,0.003550678218901157,0.180992052042298
1739919873388263700,0.645263671875,-0.053207274052500725,0.011363105535507201,0.23356150311529636
1739919873398246400,0.655246337890625,-0.06797288150787353,-0.0023375030368566513,0.33144678087122736
1739919873408227800,0.665227783203125,-0.03680208269655704,-0.03301934928745031,0.33237697439342734
1739919873418211000,0.675211181640625,0.0440671052634716,-0.035057869377732274,0.2899470236114226
1739919873428192800,0.68519287109375,0.10334347009658813,-0.046783086223900316,0.28323444729549807
1739919873438175000,0.695175048828125,0.050291094344854355,-0.08535714702904224,0.32539328951854257
1739919873448158000,0.705157958984375,0.005384615647792816,-0.05403904870152473,0.34708712533451613
1739919873458140000,0.715139892578125,0.03737199153900146,0.0386819050937891,0.2962999545684084
1739919873468122000,0.7251220703125,0.13850772245824336,0.06576134293824434,0.20989850438451393
1739919873478104800,0.735104736328125,0.2013561005592346,0.06766629977673291,0.2045460191743448
1739919873488087000,0.745087158203125,0.19701076483130453,0.0660568187534809,0.22736370792109517
1739919873498068700,0.75506884765625,0.1455605635792017,0.069810910589993,0.21148630329892038
1739919873508052000,0.765052001953125,0.10547463690638542,0.041649522727727886,0.23156733362339435
1739919873518034000,0.775033935546875,0.08109890506267547,0.002681201907992363,0.3115611635209992
1739919873528017000,0.785016845703125,0.09525193357765674,-0.02629559399038553,0.30790706146024166
1739919873537998800,0.794998779296875,0.1334913556009531,-0.03353577437698841,0.29626619842927904
1739919873547981000,0.80498095703125,0.14420447279512882,-0.02466653148382902,0.2803347985975444
1739919873557963800,0.8149638671875,0.14218728775382042,-0.048316579401493066,0.2672351333267055
1739919873567946000,0.824946044921875,0.1574199281990528,-0.07266366967260837,0.24308374829078092
1739919873577928000,0.834927978515625,0.13992343447506428,-0.07460662043392657,0.2104628785353154
1739919873587911000,0.844910888671875,0.05182487978339195,-0.029040801045298575,0.21693762750737366
1739919873597893000,0.85489306640625,0.027432196804881095,0.026263153025507927,0.19737411825098097
1739919873607874800,0.864874755859375,-0.014226678273081779,0.10839753861576318,0.12566857128711417
1739919873617858000,0.874858154296875,-0.0779296273767948,0.19485738618969917,0.0843871877520345
1739919873627839700,0.88483984375,-0.10662088433206081,0.18113281221985816,0.1488110898077488
1739919873637822000,0.894822021484375,-0.1171434473901987,0.09314180955588817,0.28016294916197654
1739919873647805000,0.904804931640625,-0.1196750116944313,-0.0126288876876235,0.35413708037864416
1739919873657787000,0.914786865234375,-0.07428805600404739,-0.04246434624195099,0.36935554616805166
1739919873667768800,0.924768798828125,-0.014157120168209076,-0.022758359774947164,0.36646559688020497
1739919873677752000,0.934751953125,0.0018465046495199202,-0.0089624741345644,0.39019714906886216
1739919873687734000,0.944734130859375,0.037084406769275664,0.0017976970717310905,0.41462859315518286
1739919873697717000,0.954717041015625,0.12659107469320297,-0.018250526961684225,0.4006913262827322
1739919873707699000,0.964698974609375,0.1735322740882635,-0.05902180555015802,0.39777288155276325
1739919873717681000,0.974680908203125,0.23339257628917692,-0.08099690599292517,0.35182507710922506
1739919873727663900,0.984663818359375,0.20987784518897531,-0.07190320669412613,0.32552206699736413
1739919873737645800,0.994645751953125,0.06580079816579819,-0.03216331698000431,0.324794556440413
1739919873747628000,1.0046279296875,-0.10616554177999496,-0.02182312475144863,0.3415344596434384
1739919873757611000,1.014611083984375,-0.22323124775886535,-0.014708616571128368,0.3361743208497763
1739919873767593000,1.024593017578125,-0.20275193883180617,0.01873655691295862,0.2278267953881994
1739919873777575000,1.034574951171875,-0.1379436588346958,-0.019328969848155974,0.20027020501866935
1739919873787558000,1.044557861328125,-0.045947512182593346,-0.07714023056477308,0.28151783436965194
1739919873797539800,1.054539794921875,0.12197685889601707,-0.10696955163925885,0.29844335980527104
1739919873807521800,1.064521728515625,0.2751642640918493,-0.09329700011759996,0.274114389712736
1739919873817504800,1.0745048828125,0.3408089949131012,-0.052768882635235784,0.2254581665607169
1739919873827487000,1.084487060546875,0.32108255017995835,-0.04693126252293586,0.19121267301179468
1739919873837469700,1.0944697265625,0.21508768879175186,-0.04087532348483801,0.14083795550409703
1739919873847452000,1.104451904296875,0.15657295598089693,-0.042484804508090016,0.09199852127227931
1739919873857434000,1.11443408203125,0.16677753913104534,-0.015837620601058006,0.03512176492679864
1739919873867416800,1.124416748046875,0.16334814920425414,0.0274058933198452,-0.017030629777908323
1739919873877399000,1.13439892578125,0.1130915416508913,0.05384060351997614,0.06911726577002554
1739919873887380700,1.144380615234375,0.04594809670448303,0.04483049085140228,0.13569653749503194
1739919873897364000,1.154364013671875,0.06904021847844123,0.052953883813321584,0.14678488120976835
1739919873907346000,1.164345947265625,0.1397790575683117,0.0005666939720511436,0.16312292561363428
1739919873917328000,1.174327880859375,0.14613281050920485,-0.10014701214283704,0.14521646284926681
1739919873927310800,1.184310791015625,0.16994447872936724,-0.10351794988065957,0.13395528331827372
1739919873937292800,1.194292724609375,0.23219021476209162,-0.10967442668378352,0.058344710006192325
1739919873947275000,1.20427490234375,0.2476455580472946,-0.09799363350123166,0.058887036721967156
1739919873957258000,1.214258056640625,0.19318565358519554,-0.1039136711999774,0.1597813235681504
1739919873967240000,1.224239990234375,0.15845160933434962,-0.13519436012655495,0.16876111416369677
1739919873977223000,1.234222900390625,0.15935703374147414,-0.15232961932271719,0.20086473684571682
1739919873987205000,1.244205078125,0.13428688989281654,-0.19470336467176674,0.17551921012178062
1739919873997186800,1.254186767578125,0.16583996601998804,-0.2485617961093783,0.18193536077439784
1739919874007170000,1.264170166015625,0.1698024399101734,-0.2786938995227218,0.10992029120363295
1739919874017151700,1.27415185546875,0.0658960752338171,-0.25847850222885604,0.05521930799465626
1739919874027134000,1.284134033203125,0.008980594313144684,-0.22714695989787578,0.08508523475248365
1739919874037117000,1.294116943359375,-0.02775134575664997,-0.23576573516130447,0.09270557356309145
1739919874047099000,1.304098876953125,0.01703822856247425,-0.260990777310729,0.05061177766658365
1739919874057081000,1.3140810546875,0.07211305005252361,-0.2188300901904702,0.013511040817014873
1739919874067063800,1.324063720703125,0.23136837698519228,-0.14268033196777105,-0.03998221057001501
1739919874077046000,1.3340458984375,0.3398696682363748,-0.18166881879270075,-0.13204068186860532
1739919874087028000,1.344028076171875,0.3621411212772131,-0.2005176039084792,-0.08491360451262443
1739919874097011000,1.354010986328125,0.14085165523588655,-0.24676205321103334,0.26900314764622596
1739919874106993000,1.363992919921875,0.19015081593394279,-0.3896490136668086,-0.009441307160072028
1739919874116976000,1.37397607421875,0.3029325609833002,-0.27465017708986994,-0.11424878539461641
1739919874126957800,1.383957763671875,0.1990302879601717,-0.3055094257339835,0.05598156107142567
1739919874136940000,1.39393994140625,0.0811065038472414,-0.372790525585413,0.08933496461883186
1739919874146922800,1.4039228515625,0.14563012168407438,-0.35372546737045046,0.14798033807203173
1739919874156905000,1.413905029296875,0.2876116577327251,-0.43073359598815436,0.18358444315567612
1739919874166887000,1.423886962890625,0.40724692193865775,-0.44979514707177876,0.12886471871361135
1739919874176870000,1.433869873046875,0.48301148023605345,-0.4454775761336088,0.12130845811516046
1739919874186852000,1.44385205078125,0.5032037889152765,-0.49734746410250663,0.17325111905932425
1739919874196833800,1.453833740234375,0.5718903716504573,-0.4531073403596878,0.16854498719498515
1739919874206817000,1.463817138671875,0.5505611678957939,-0.4573527228444814,0.2032663911599666
1739919874216799000,1.473799072265625,0.46575405596494673,-0.4895931967139244,0.28893099670298394
1739919874226781000,1.483781005859375,0.4110609272688627,-0.47494420137554405,0.3846234405897557
1739919874236764000,1.493763916015625,0.4088303917378187,-0.4688248417124152,0.36934900682941074
1739919874246745900,1.503745849609375,0.39390462528467174,-0.4944646021425724,0.28335107767879963
1739919874256728800,1.513728759765625,0.2967483193904161,-0.48218408950120206,0.3243997119039297
1739919874266711000,1.5237109375,0.15961013171970842,-0.49724517277181146,0.2964505054876208
1739919874276693000,1.53369287109375,0.00774900669157505,-0.5262386275440454,0.2955357287302613
1739919874286676000,1.543676025390625,-0.08149754899144172,-0.5294187188848852,0.23699790730476378
1739919874296658000,1.553657958984375,-0.08928279604017735,-0.5592085847318172,0.1475048295147717
1739919874306640000,1.563639892578125,-0.043077509704232214,-0.5866299678817392,0.14050138049349187
1739919874316622800,1.573622802734375,-0.0512695839881897,-0.6367860376700759,0.3520716357488185
1739919874326604800,1.583604736328125,-0.0016460136413574218,-0.6790615833416581,0.5224960800148546
1739919874336587000,1.5935869140625,0.20288170269131658,-0.6329740781664848,0.5204403895940631
1739919874346570000,1.603570068359375,0.4389946438550949,-0.5675500043585896,0.4968539084319025
1739919874356552000,1.613552001953125,0.6227215642213821,-0.4728475213572383,0.4866276249065995
1739919874366534000,1.623533935546875,0.8722814314574002,-0.27783436008393764,0.3717957423944026
1739919874376516900,1.633516845703125,1.189786123150587,-0.03894084829092025,0.2927239592451602
1739919874386498800,1.643498779296875,1.429090553832054,0.15987345883101223,0.3071473291341215
1739919874396482000,1.65348193359375,1.748060641902685,0.29208295792788264,0.3663045245669782
1739919874406464800,1.66346484375,2.2388491858810187,0.2699444836169481,0.39209078079573806
1739919874416446700,1.67344677734375,2.7808073606044053,0.23276538430154323,0.35518216898478566
1739919874426429700,1.6834296875,3.2473774091273544,0.2910039305195212,0.36903292661756276
1739919874436411600,1.69341162109375,3.3695407305061815,0.3440489997476339,0.4911719903379678
1739919874446393900,1.703393798828125,3.3138369634628293,0.3369455974832177,0.5220322618953883
1739919874456376800,1.713376953125,3.1324668353557583,0.3671080960348248,0.6803836257256567
1739919874466358800,1.72335888671875,2.9068899012535807,0.48242286669313905,0.715361415604502
1739919874476340700,1.7333408203125,2.7528450024455786,0.657412646113336,0.5880392501577735
1739919874486323700,1.74332373046875,2.6763404394358394,0.8231447678446769,0.4741634262613952
1739919874496305700,1.7533056640625,2.7664316292494533,0.938584626187384,0.386279098842293
1739919874506287900,1.763287841796875,2.938326657524705,0.9069470866471528,0.551283490820974
1739919874516270600,1.7732705078125,3.2844828586846586,0.7768605710536242,0.7204908874474465
1739919874526252800,1.783252685546875,4.1568677505165335,0.7212631869941949,0.9626689738690852
1739919874536235800,1.79323583984375,3.48644218583405,0.8686962664470076,0.737431793115288
1739919874546217700,1.8032177734375,3.16081263987422,0.7362967977359891,0.5394781944759189
1739919874556199700,1.81319970703125,3.235744254478812,0.7787596826732158,0.5127453781120479
1739919874566182700,1.8231826171875,3.1965801188260317,1.1108818055227399,0.4224288551099598
1739919874576164600,1.83316455078125,2.898911761981249,1.2074866150140762,0.3244707313135266
1739919874586146600,1.843146484375,2.5615380022138354,0.9907859380677342,0.467611082008481
1739919874596129500,1.853129638671875,2.5637533401757477,0.9435603687733412,0.45537148589938875
1739919874606111700,1.86311181640625,2.5917145292907953,1.0668237603485584,0.44441345403343435
1739919874616093700,1.87309375,2.4152362648785113,1.172568154107034,0.35371669954210516
1739919874626076700,1.88307666015625,2.230450775370002,1.323984457977116,0.25116145721375943
1739919874636059000,1.893058837890625,2.115899682560563,1.5174065506666898,-0.0016761165186762808
1739919874646040600,1.90304052734375,2.0242922429651022,1.6761355156376956,-0.34978608209490775
1739919874656023800,1.91302392578125,2.0531804837971923,1.7889780509635804,-0.6386410178869962
1739919874666005500,1.923005615234375,2.1696295191824433,1.8345120139092206,-0.7058060901433229
1739919874675988700,1.93298876953125,2.3569582634329795,1.8308619669690727,-0.7138090715959667
1739919874685970700,1.942970703125,2.6495646607130765,1.9129656651601195,-0.8140501917630434
1739919874695952600,1.95295263671875,2.9240970566421747,2.0649246976047753,-0.8394950141429901
1739919874705935600,1.962935546875,3.0039667121708393,2.2052296787433323,-0.7627963898658752
1739919874715917800,1.972917724609375,2.9943618484795094,2.5090008825078605,-0.85570205257833
1739919874725899800,1.982899658203125,2.96409121337831,2.869443967695534,-1.0571271267205475
1739919874735882800,1.9928828125,2.783933383670449,3.0188576995715497,-1.3048919272333384
1739919874745864700,2.00286474609375,2.367746199429035,2.931642065194249,-1.524952143740654
1739919874755846700,2.0128466796875,1.923800655168295,3.058733490625024,-1.6238263594686984
1739919874765830000,2.022829833984375,1.513972484564781,3.076488343024254,-1.338460434836149
1739919874775811600,2.0328115234375,1.248313715443015,2.8557708316519856,-0.8899000902563333
1739919874785793800,2.042793701171875,1.1068412979602813,2.7932427715465424,-0.34708383739888665
1739919874795776500,2.052776611328125,0.922193171095848,2.8459631388649345,0.2928893058747053
1739919874805758700,2.0627587890625,0.7719424038738012,2.9570661370471116,0.4680775304764509
1739919874815741700,2.07274169921875,0.7291460491985082,3.183582105565071,0.34549043072760105
1739919874825723600,2.0827236328125,0.7250447513595223,3.6800776290133594,0.4033288717120886
1739919874835705900,2.092705810546875,0.6253609728142618,4.0882314366638655,0.33017420365214345
1739919874845688800,2.102688720703125,0.056519759601354594,4.213303631226718,0.33200843334197994
1739919874855670800,2.1126708984375,-0.6789668907955289,4.090982781198621,0.6131809979379177
1739919874865652700,2.12265283203125,-0.9544570258408784,4.03307536663115,1.0015987162441016
1739919874875635700,2.1326357421875,-0.9070704207658767,4.03060488486439,1.65802790427804
1739919874885617700,2.14261767578125,-0.639670945456624,4.028376687420905,2.121234029325843
1739919874895599600,2.152599609375,-0.3107178080320358,4.05095998288989,2.481715108436346
1739919874905582600,2.16258251953125,-0.27977906441092487,3.9948984884500502,2.8404905526727435
1739919874915564800,2.172564697265625,-0.5016266027264297,3.9083687905102966,3.4740503217726943
1739919874925547500,2.182547607421875,-0.9871019888579845,3.8805335658624767,4.432948544931412
1739919874935529700,2.19252978515625,-1.7263310406535863,3.9105695154249664,5.51756515160203
1739919874945512000,2.202511962890625,-2.651471371117234,3.786624571326375,6.28236645154953
1739919874955494700,2.21249462890625,-3.516124207392335,3.442269282108545,6.682206312102079
1739919874965476900,2.222476806640625,-4.11263697912395,2.879994003282487,7.056943295580148
1739919874975458600,2.23245849609375,-4.616961881023645,2.1531746434658765,7.714226470094919
1739919874985441800,2.24244189453125,-5.023233820450305,1.4225941775500774,8.429254562091828
1739919874995423700,2.252423828125,-5.178414445289969,0.7038958726078272,9.135225487408041
1739919875005405700,2.26240576171875,-5.020532744798064,-0.1786778202831745,9.569071662458777
1739919875015388700,2.272388671875,-4.5995980737686155,-1.0464309606611728,9.567211129283905
1739919875025370600,2.28237060546875,-4.1099189523369075,-1.9623375988334417,9.287444339832662
1739919875035353600,2.292353515625,-3.4903204885721206,-2.408679682841897,9.167183637204765
1739919875045335800,2.302335693359375,-3.055088996642828,-3.0051076988995074,8.966030950263143
1739919875055317800,2.31231787109375,-2.691703428262472,-3.7266315826565024,8.64504659976065
1739919875065300700,2.32230078125,-2.411146949738264,-4.151345772224665,8.50219061896503
1739919875075282700,2.33228271484375,-1.9955314279049634,-4.1694063295722,8.703728505831956
1739919875085264600,2.3422646484375,-1.5958867976635693,-4.104883296257257,9.07786109367609
1739919875095248000,2.352247802734375,-1.2114368139445781,-4.10129725446403,9.437477664911746
1739919875105229600,2.3622294921875,-0.6893571327108889,-4.199046265554428,9.489643320956826
1739919875115211800,2.372211669921875,-0.18096388539373873,-4.399360748106241,9.22556977519989
1739919875125194800,2.38219482421875,0.4041898724555969,-4.543799029657245,8.837661175459623
1739919875135176700,2.3921767578125,0.8672112885862588,-4.746203177964687,7.977517925563454
1739919875145158700,2.40215869140625,1.0082453146517276,-5.057387434464693,6.775578423282504
1739919875155141600,2.4121416015625,0.8677028714954853,-5.440845484536886,5.953228020685911
1739919875165123600,2.42212353515625,0.5087929872244596,-5.857148404112458,5.5268578806042665
1739919875175106800,2.43210693359375,-0.0793231184286531,-6.278290580412745,5.513370622521639
1739919875185088500,2.442088623046875,-0.7594716293573379,-6.725963620764016,6.0895157290071245
1739919875195070700,2.45207080078125,-1.2715011142849921,-7.195355740970372,6.909067440795898
1739919875205053700,2.4620537109375,-1.6185656624615192,-7.751452331161499,7.489836699950694
1739919875215035600,2.47203564453125,-1.8700643888056276,-8.287012913802265,7.957009975063801
1739919875225017900,2.482017822265625,-2.069471693384647,-8.668822027623653,8.324908636954426
1739919875235000600,2.49200048828125,-2.1070260557532308,-8.720829278236627,8.324988716453314
1739919875244982800,2.501982666015625,-2.000513307970762,-8.519822137245535,8.188800376853345
1739919875254964700,2.51196484375,-1.843778439426422,-8.072358355730772,8.152973276668787
1739919875264947700,2.52194775390625,-1.6030197182834147,-7.432886147716641,8.198681134876608
1739919875274929700,2.5319296875,-1.2913012087762354,-6.690049426817893,8.204100821837782
1739919875284913000,2.541912841796875,-1.0171102466959505,-5.9269438248723745,8.239026589268445
1739919875294894600,2.55189453125,-0.9513350944280624,-5.184925434619188,8.50556506383419
1739919875304876800,2.561876708984375,-0.9946119991619139,-4.563748177230358,8.538619192174076
1739919875314859500,2.571859619140625,-1.1339280423283575,-4.1232665096879,8.412169571778177
1739919875324841700,2.581841796875,-1.2871359057903289,-3.8193858541995285,8.145691302967071
1739919875334823700,2.59182373046875,-1.3614753997206688,-3.6235429641038177,7.546047247472405
1739919875344806700,2.601806640625,-1.3494821795880794,-3.3568606971532104,6.7931538274616
1739919875354788900,2.611788818359375,-1.1401461861908435,-2.9765134725779294,5.961971299111843
1739919875364770600,2.6217705078125,-0.7857213383793831,-2.4720751734316346,5.117406726619601
1739919875374753800,2.63175390625,-0.45843233477473255,-1.952016111305356,4.345417560994624
1739919875384735700,2.64173583984375,-0.24583010612316428,-1.463719968664646,3.6006694535166024
1739919875394718700,2.65171875,-0.12292261531352996,-1.0093950692087412,2.8751912791758776
1739919875404700000,2.661699951171875,-0.07799618980698288,-0.6122691437900066,2.3621371273756027
1739919875414681900,2.671681884765625,0.11230893990583717,-0.2670382407814264,2.0705974825441835
1739919875424665000,2.6816650390625,0.47265492139458654,0.11352291880548,2.0910253535449503
1739919875434646800,2.691646728515625,0.9672282446086407,0.6611515403807163,2.2713170387655497
1739919875444629000,2.70162890625,1.3670891479492187,1.271404083651304,2.333158285650611
1739919875454612000,2.711612060546875,1.5691501819074154,1.8332269425347447,2.162643898078799
1739919875464594000,2.721593994140625,1.655215184944868,2.2029048890575766,1.8134072665601968
1739919875474576000,2.731575927734375,1.6540134079396724,2.267541611880064,1.4113421311736105
1739919875484558800,2.741558837890625,1.645218691587448,2.2204598349705336,1.1680991919994355
1739919875494541000,2.751541015625,1.6602794825971126,2.362275074541569,1.1940279985040425
1739919875504524000,2.76152392578125,1.576933675390482,2.5821964671000837,1.2409779657274485
1739919875514506000,2.771506103515625,1.2982558502197266,2.707706760819256,1.1741828958272933
1739919875524488000,2.781488037109375,0.8953180967170744,2.7624872755378482,1.0008253937840461
1739919875534471000,2.791470947265625,0.5689607479393481,2.8149405163526535,1.0441320360690354
1739919875544452900,2.801452880859375,0.5251064817089587,2.967992604731023,1.1595634188443422
1739919875554435000,2.81143505859375,0.7887445586580782,3.2136727079242466,1.2896119405150412
1739919875564417800,2.821417724609375,1.306270814371109,3.5645135597690936,1.5649965693593024
1739919875574400000,2.83139990234375,1.8504875816762447,3.99648371181488,1.9091630580067633
1739919875584381700,2.841381591796875,2.3475778561472893,4.418706961350143,2.0566215641617775
1739919875594365000,2.851364990234375,2.606351541930437,4.703533956800401,1.9375819277614355
1739919875604347000,2.861346923828125,2.542370944929123,4.891970662292838,1.7786024951606987
1739919875614329900,2.871329833984375,2.164774480366707,5.0398301504641765,1.7224568295687437
1739919875624311800,2.881311767578125,1.7262591444611548,5.338186489573121,1.8935510628551244
1739919875634294000,2.8912939453125,1.3379507317483423,5.919350885525345,2.355767007821798
1739919875644276700,2.90127685546875,0.9910498497009277,6.551797140425443,2.964133883476257
1739919875654259000,2.911259033203125,0.7829039428710937,7.0601622576266525,3.5525972042649983
1739919875664241000,2.921240966796875,0.8008709767162799,7.467544788643718,3.516563183331489
1739919875674223900,2.931223876953125,0.8350000408113002,7.708910243508219,2.7870991542249914
1739919875684206000,2.9412060546875,0.7106815872251987,7.694455601698159,1.796942453971505
1739919875694188800,2.951188720703125,0.49273087368514384,7.730373302775621,0.803200296446681
1739919875704171000,2.9611708984375,0.2825754171311855,7.732014640241861,-0.05494330406486988
1739919875714152700,2.971152587890625,0.09753039990365504,7.633716178575158,-0.7236416065633297
1739919875724136000,2.981135986328125,-0.11168695381628349,7.409298935902118,-1.2189502583146095
1739919875734118000,2.991117919921875,-0.28756606502532955,7.14377519133687,-1.5805489432781934
1739919875744099800,3.001099853515625,-0.4176776785274967,6.865073400768638,-1.7769167340308427
1739919875754082800,3.011082763671875,-0.4534726665407419,6.593930647277832,-1.8261176950514315
1739919875764065000,3.02106494140625,-0.3838087632060051,6.361601900827885,-1.8434972843974828
1739919875774047000,3.031046875,-0.2931576014220714,6.271611833301186,-1.8249509893596172
1739919875784030000,3.041030029296875,-0.21076160575356334,6.297386910548806,-1.7288772180050611
1739919875794012000,3.051011962890625,-0.14571020118296146,6.424263816446065,-1.6010831972628832
1739919875803995000,3.060994873046875,-0.12305939343571662,6.576594897073507,-1.5124363610386848
1739919875813977000,3.07097705078125,-0.17861874703969804,6.649532707512378,-1.5472066456466913
1739919875823958800,3.080958740234375,-0.31763321344368156,6.684547906792163,-1.8201766145646572
1739919875833942000,3.09094189453125,-0.4316483727455139,6.712358289259671,-2.233632328015566
1739919875843923700,3.100923828125,-0.5877449433863162,6.744199534678459,-2.631667184972763
1739919875853906000,3.110906005859375,-0.7831167088389396,6.662214494431018,-3.1038761161655186
1739919875863889000,3.120888916015625,-0.9449392559111118,6.458063210195302,-3.620478315836191
1739919875873870800,3.130870849609375,-0.969860931199789,6.230822142273187,-4.164510958746075
1739919875883853000,3.14085302734375,-0.9026187020540237,5.968484042006731,-4.699727842515706
1739919875893836000,3.1508359375,-0.8290905245065688,5.686768456575274,-5.162510773715376
1739919875903818000,3.16081787109375,-0.7843360215008258,5.406005641824007,-5.57427780342698
1739919875913801000,3.170801025390625,-0.6719172645449638,5.107662746718526,-5.891286820557713
1739919875923783000,3.180782958984375,-0.5863690519232303,4.845023617678881,-6.1194602008938785
1739919875933764900,3.190764892578125,-0.5855050920376553,4.550571008010208,-6.265629251760244
1739919875943748000,3.200748046875,-0.5626935407707467,4.270214728233218,-6.317154856336116
1739919875953729800,3.210729736328125,-0.3259562936961651,4.010591732144356,-6.373327994456887
1739919875963712000,3.2207119140625,0.20990177405383437,4.01300814563632,-6.398785676318407
1739919875973694700,3.23069482421875,0.8932230971992016,4.28418012522161,-6.477880255821347
1739919875983677000,3.240677001953125,1.453891817611456,4.5609202603280545,-6.845524650689959
1739919875993659100,3.2506591796875,1.874880849176645,4.683613158538937,-7.244215341207385
1739919876003641900,3.260641845703125,2.1391315050661563,4.773981703989207,-7.602814844354986
1739919876013624000,3.2706240234375,2.298594337269664,4.6980090558990835,-7.8701102747678755
1739919876023607000,3.28060693359375,2.4159476280182597,4.500783771534264,-7.730143585672974
1739919876033589000,3.290589111328125,2.4068483757615087,4.413698777799308,-6.976141912159323
1739919876043571000,3.300571044921875,2.168478011059761,4.356931765438616,-5.5186786658018825
1739919876053554000,3.310553955078125,1.8887696737974882,4.2948385896191,-3.6321354358822107
1739919876063535900,3.320535888671875,1.5688368781745432,4.3034497660979625,-1.6953414436280727
1739919876073517800,3.330517822265625,1.1594845083892344,4.329214614212512,0.1849783817321062
1739919876083500800,3.340500732421875,0.72064527429156,4.306811059224605,1.7015543267935513
1739919876093483000,3.35048291015625,0.3172831213643774,4.218014877657592,2.9219074376434087
1739919876103466000,3.360466064453125,0.03624850393440574,4.126824786691367,4.069165501666069
1739919876113448000,3.370447998046875,-0.06697809831686317,4.141168661603332,5.058483997529745
1739919876123430000,3.380429931640625,0.00851063871383667,4.161880610242486,6.079643738812208
1739919876133412900,3.390412841796875,0.19310725458674133,4.362471279387176,7.177219780299067
1739919876143395000,3.40039501953125,0.18509126752205193,4.448843156416714,8.21663823184967
1739919876153376800,3.410376708984375,0.05838803769126534,4.299905517619848,9.337045113825797
1739919876163360000,3.420360107421875,-0.01321837801337242,3.8749160182416436,10.334224260061978
1739919876173342000,3.430342041015625,-0.11752272903136908,3.2005729878544806,11.259518904304503
1739919876183324000,3.440323974609375,-0.010552958196401596,2.547889416089654,12.338716993057727
1739919876193307000,3.450306884765625,0.3227472685217857,2.1223925517112017,13.667836768096684
1739919876203289000,3.4602890625,0.6399766504049301,1.763279253822565,15.022031363159417
1739919876213271800,3.470271728515625,0.8675403013449162,1.102252216604352,16.056054093146322
1739919876223254000,3.48025390625,1.21934766013436,-0.04034428534805774,16.393449480223655
1739919876233235700,3.490235595703125,1.6786065819263458,-1.499171805796027,16.131382598114012
1739919876243219000,3.500218994140625,2.2747803309619425,-2.8711364508271218,15.51076765078306
1739919876253201000,3.510200927734375,2.7660452602803707,-4.222555735957623,14.470945294606684
1739919876263182800,3.520182861328125,3.1763246817827224,-5.609630271837115,12.916822001439332
1739919876273165800,3.530165771484375,3.583782616123557,-6.7322717809975146,11.405227351921797
1739919876283147800,3.540147705078125,3.765704532894492,-7.329028298357128,10.444994665288924
1739919876293130800,3.550130859375,3.6812656697541475,-7.543219330570102,9.615584991830588
1739919876303113000,3.560113037109375,3.793107503604889,-7.4937062348604195,8.94162131614983
1739919876313095000,3.570094970703125,3.871630420699715,-7.100503035843372,8.456974343666435
1739919876323078000,3.580077880859375,3.846663737225532,-6.5486389686554665,8.105303762999176
1739919876333060000,3.59006005859375,3.7349832314163445,-6.057790218922496,7.822979105758667
1739919876343041800,3.600041748046875,3.7084184650957583,-5.646601281359791,7.681389199376106
1739919876353025000,3.61002490234375,3.7276089032560584,-5.315571337661146,7.519543855950236
1739919876363006700,3.6200068359375,3.641670156946778,-5.0443812378972765,7.319466689285636
1739919876372989000,3.629989013671875,3.3790503171294928,-4.900664840880036,7.074457909482717
1739919876382972000,3.639971923828125,3.073352967607975,-4.891810503295064,6.762899558973312
1739919876392953900,3.649953857421875,2.633707166367769,-5.06641946670413,6.201636964321136
1739919876402937000,3.65993701171875,2.1534353402286768,-5.341521186953782,5.6767298776417965
1739919876412919300,3.669919189453125,1.6786866614252327,-5.604751852145791,5.258135632258654
1739919876422901200,3.6799013671875,1.2022007835656403,-5.83687133975923,4.779397591558099
1739919876432884200,3.68988427734375,0.8440069386094808,-6.086843294927477,4.335284874036908
1739919876442866200,3.6998662109375,0.5312684384047984,-6.142716573318839,3.954078986805677
1739919876452848000,3.70984814453125,0.3171019561111927,-6.020304830136895,3.6803000395923853
1739919876462831400,3.719831298828125,0.1815396029224619,-5.734311713516711,3.398496191355586
1739919876472813000,3.72981298828125,0.1314297834286466,-5.418386399969458,3.062300827717781
1739919876482796300,3.73979638671875,0.18263386443257332,-5.0460839501619335,2.658198633545637
1739919876492778000,3.749778076171875,0.266067349922657,-4.529098304131627,2.222884139508009
1739919876502760200,3.75976025390625,0.4422399093866348,-3.9381531033992765,1.8522113367289303
1739919876512743200,3.7697431640625,0.6618167262911796,-3.3110341810017823,1.5556892273098228
1739919876522725000,3.77972509765625,0.7885878337264061,-2.652138895115256,1.3221359075009822
1739919876532707300,3.789707275390625,0.7910873223919421,-1.9482272404164074,1.1844769108265638
1739919876542690300,3.799690185546875,0.7602922980904578,-1.2808674930453299,1.2399544678986072
1739919876552672300,3.80967236328125,0.8822574665486812,-0.652455608227849,1.4684581031024455
1739919876562655200,3.8196552734375,1.0949380211334674,-0.08367635433524846,1.656761245343089
1739919876572637200,3.82963720703125,1.2517407672822474,0.4322621207296848,1.8025936116009948
1739919876582619100,3.839619140625,1.251238078457117,0.9862316357642411,1.9807260729610918
1739919876592602400,3.849602294921875,1.0616612630188464,1.625740376396477,2.113639336413145
1739919876602584000,3.859583984375,0.8491431324541568,2.2804089844986795,2.2179221331864594
1739919876612566300,3.869566162109375,0.7026817475777118,2.9421184510231018,2.3070973771989345
1739919876622549000,3.879549072265625,0.6217514040149748,3.4966298178493975,2.2832214115709064
1739919876632531200,3.88953125,0.6276080941539257,3.897169351103902,2.0718062738120553
1739919876642513200,3.89951318359375,0.725989046472311,4.334327427181601,1.8660563222080468
1739919876652496100,3.90949609375,0.9451987836301327,4.884412209737301,1.654295732012391
1739919876662478300,3.919478271484375,1.122539144764468,5.497095195025206,1.481256794399023
1739919876672461300,3.92946142578125,1.1505494337182491,6.135446290054917,1.4465747725963591
1739919876682443300,3.939443359375,1.0859176793318241,6.770863085198402,1.5114537797421217
1739919876692425200,3.94942529296875,0.9012216216724366,7.262540686970949,1.5054560006320477
1739919876702408200,3.959408203125,0.7055880634784698,7.582028661435842,1.463777836331725
1739919876712390100,3.96939013671875,0.6520481234055012,7.883161479520798,1.474686183837056
1739919876722372000,3.9793720703125,0.8166553327601402,8.402025778904557,1.5268050781309603
1739919876732355000,3.98935498046875,1.0344856713235377,9.096241969019173,1.45768887180686
1739919876742337300,3.999337158203125,1.08928218732886,9.582963409689068,1.0231903703272343
1739919876752320000,4.009320068359375,0.9504770162940025,9.642560677039622,0.12323358095884322
1739919876762302200,4.01930224609375,0.720118108612299,9.540554593026638,-0.8349807515889406
1739919876772284200,4.0292841796875,0.4288847532510757,9.428528634780644,-1.6570365551531314
1739919876782267100,4.03926708984375,0.11508534581661224,9.237363088846205,-2.4725603266000746
1739919876792249000,4.0492490234375,-0.26601700797490774,8.933038781243562,-3.089171298986673
1739919876802231000,4.05923095703125,-0.6533153668623417,8.625587281531095,-3.3632465987980362
1739919876812214000,4.069214111328125,-1.0710428393483162,8.280901152923702,-3.3457863454312085
1739919876822196200,4.0791962890625,-1.41682611554265,7.917641256749629,-2.80597628865242
1739919876832179000,4.089178955078125,-1.4736276146948337,7.642721907329559,-1.869495064485073
1739919876842161200,4.0991611328125,-1.2155799050986766,7.583232192006707,-0.888639861062169
1739919876852143000,4.10914306640625,-0.8146855670571327,7.682412697204947,-0.10640578027665615
1739919876862126000,4.1191259765625,-0.4755144024789333,7.793010668474436,0.4366290837675333
1739919876872108300,4.1291083984375,-0.1976970665950328,7.781237813094258,0.6014595804840326
1739919876882090000,4.139090087890625,-0.026675094827264545,7.584288423061371,0.4297264647722244
1739919876892073200,4.1490732421875,0.09027699470929801,7.423751824146509,0.04843757543265819
1739919876902055200,4.15905517578125,0.2595416014157235,7.417841723319888,-0.5144979208678007
1739919876912038100,4.1690380859375,0.38905660073161125,7.321223177564144,-1.4707032516807317
1739919876922019300,4.179019287109375,0.4240285453915596,7.017148460808396,-2.656839035630226
1739919876932002000,4.189001953125,0.39528424307480453,6.624684681981802,-3.760101306059956
1739919876941984300,4.198984375,0.3923394217945635,6.217561678683757,-4.763858077120781
1739919876951967200,4.20896728515625,0.3874526726663112,5.827794299334287,-5.615651431822776
1739919876961949200,4.21894921875,0.4162508971273899,5.470321169868111,-6.420586004716157
1739919876971931100,4.22893115234375,0.4459294115543365,5.157978975504636,-7.069642618155479
1739919876981914400,4.238914306640625,0.3904207286916673,4.811984102386236,-7.49387340812087
1739919876991896000,4.24889599609375,0.18033435531854627,4.431371504873037,-7.640799999356269
1739919877001879300,4.25887939453125,-0.07568265216760336,4.01832203413546,-7.378032860022783
1739919877011861000,4.268861083984375,-0.1816097090166062,3.569537233150005,-6.702014589899778
1739919877021843200,4.27884326171875,-0.08969729512520135,3.004345482355356,-5.973662905949354
1739919877031826200,4.288826171875,0.13964337542466818,2.43424316316545,-5.157067705878615
1739919877041808100,4.29880810546875,0.38821956538558006,1.9743841565884648,-4.27718573628962
1739919877051790300,4.308790283203125,0.4958837482254952,1.5838982537060975,-3.4122774639487266
1739919877061773000,4.31877294921875,0.5582745918173343,1.2351248557850718,-2.6301965278983115
1739919877071755300,4.32875537109375,0.5885783985357731,0.8933104832217097,-2.003739868801832
1739919877081738200,4.33873828125,0.5843885456304997,0.6419307070821523,-1.3587339920580386
1739919877091720200,4.34872021484375,0.560141481667757,0.45803456762880085,-0.7607832964777946
1739919877101702100,4.3587021484375,0.6287642784517258,0.32224311839193104,-0.17326456306278704
1739919877111685400,4.368685302734375,0.7321124247234314,0.30920974155664444,0.6838456027477979
1739919877121667000,4.3786669921875,0.8809096321363001,0.46067426848262544,1.796890431523323
1739919877131649300,4.388649169921875,1.0412170254051685,0.56103112398386,2.7748464063733813
1739919877141632000,4.398632080078125,1.1890003065351396,0.5080804550409317,3.3623411743909117
1739919877151614200,4.4086142578125,1.217431451249495,0.29875556755959987,3.7141648997932672
1739919877161597200,4.41859716796875,1.2218623463690281,-0.00019347674548625944,4.152334783262014
1739919877171579100,4.4285791015625,1.2312836701869965,-0.39361820955872534,4.609695689412951
1739919877181561300,4.438561279296875,1.1892867953263222,-0.649630029413104,5.161962492182851
1739919877191544000,4.4485439453125,1.0177028788268565,-0.7158627892553806,5.910832063505053
1739919877201526300,4.4585263671875,0.7041888642050326,-0.8168190719544887,6.905436390817165
1739919877211508200,4.46850830078125,0.49447512353658674,-1.0424053584069013,7.920653882569074
1739919877221491200,4.4784912109375,0.5376268675208091,-1.2487965305238962,8.851217991647124
1739919877231473200,4.48847314453125,0.5464670304499566,-1.423387373754382,9.882111775958537
1739919877241456400,4.498456298828125,0.5364718522667884,-1.460305191785097,11.0800776984334
1739919877251438000,4.50843798828125,0.5527250679314136,-1.2900795580267905,12.362497681617736
1739919877261420300,4.518420166015625,0.44138300029635424,-1.2082079150259495,13.765261369538306
1739919877271403000,4.528403076171875,0.0947501215353608,-1.591547307154536,14.626864170593022
1739919877281385200,4.53838525390625,-0.285805631224066,-2.5291595811784267,14.716135860717296
1739919877291367200,4.5483671875,-0.646364305615425,-3.799959269195795,14.244853396719693
1739919877301350100,4.55835009765625,-0.8961363542973995,-5.097963775002956,13.525572323453426
1739919877311332400,4.568332275390625,-0.9957111195102334,-6.426948525485396,12.58780281304121
1739919877321315000,4.578315185546875,-0.9446179150022566,-7.585912809392809,11.809331884181498
1739919877331297300,4.58829736328125,-0.677349810987711,-8.379542144417762,11.501543699860573
1739919877341279200,4.598279296875,-0.13663418367132543,-8.563347390717267,11.692235783064366
1739919877351262200,4.60826220703125,0.5457612202681601,-8.210237132635712,12.089626496899127
1739919877361244200,4.618244140625,1.231755963873863,-7.444144039312005,12.306494639366864
1739919877371226000,4.62822607421875,1.8146974525012074,-6.515678948339819,12.04344225335121
1739919877381209000,4.638208984375,2.215933005195856,-5.427837534403801,11.436640727317332
1739919877391191300,4.64819140625,2.3974025020241734,-4.3826077662259335,10.61828202470541
1739919877401174000,4.658174072265625,2.489247257506847,-3.425235729721188,9.665295071417093
1739919877411156200,4.66815625,2.517663204652071,-2.48336755181849,8.744485463634133
1739919877421138200,4.67813818359375,2.440895606791973,-1.5922978332608937,8.04283883125782
1739919877431121200,4.68812109375,2.281642617946863,-0.7966337775379418,7.542048533225059
1739919877441103000,4.69810302734375,2.083338890695572,-0.14694412689208983,7.157284076729416
1739919877451085000,4.7080849609375,1.7935551496207713,0.16858604985773562,6.480936136260628
1739919877461068000,4.718068115234375,1.426921977621317,0.2002981159389019,5.829837203338742
1739919877471050000,4.728050048828125,1.0894271487575025,0.13009820603132247,5.226388494864106
1739919877481033000,4.738032958984375,0.8276422253943979,0.07883446726202964,4.60068996065855
1739919877491015200,4.74801513671875,0.6085410631775856,0.1282978786110878,4.095046961897611
1739919877500997000,4.7579970703125,0.42865678971409793,0.214964354673028,3.6707799315750598
1739919877510980000,4.76797998046875,0.33989027263298627,0.36926059789359567,3.3840772053807973
1739919877520962000,4.777962158203125,0.3807854698620736,0.6124409932255744,3.1950878344416616
1739919877530944000,4.787944091796875,0.5158814841806888,0.9839262814313172,2.977862549099326
1739919877540927200,4.79792724609375,0.7202912732221186,1.491616568110883,2.7712971894592044
1739919877550909000,4.807908935546875,0.921622677731514,2.0096040846601126,2.6257570841461417
1739919877560892200,4.81789208984375,1.123151942900568,2.554901632939279,2.4798721109181643
1739919877570873900,4.827873779296875,1.376063750912994,3.162063808979094,2.3448341103971004
1739919877580856000,4.83785595703125,1.6341326494276522,3.8953772069901227,2.1987994995653626
1739919877590839000,4.847839111328125,1.7588028390608728,4.703543016889691,2.0560148304402825
1739919877600821000,4.857821044921875,1.6985164204023777,5.391588409414887,1.9301269355803727
1739919877610803200,4.86780322265625,1.6586977663636207,5.916282145604491,1.9040619354754684
1739919877620786200,4.8777861328125,1.6757679974995552,6.438868095859885,2.033218476742506
1739919877630768000,4.88776806640625,1.7227742249548434,6.925507703465223,2.2933932614952326
1739919877640751000,4.897751220703125,1.8015291972398757,7.3404253061622375,2.4784587369889017
1739919877650733000,4.907733154296875,2.0016227305173873,7.707953381174803,2.6523469849079846
1739919877660715000,4.917715087890625,2.273146007758379,8.125721697127819,2.7398177630901337
1739919877670698200,4.9276982421875,2.5650422109425066,8.676732946878671,2.678357624477148
1739919877680680000,4.937679931640625,2.82828164396286,9.380279859918355,2.5244524264007806
1739919877690663200,4.9476630859375,2.9079911404937504,10.087231028443574,2.134087081158161
1739919877700644900,4.957644775390625,2.818262354251742,10.687685815799236,1.3756143997102974
1739919877710627000,4.967626953125,2.7165590525776144,11.15070314027667,0.5973118131548166
1739919877720610000,4.977610107421875,2.6592384979873893,11.458202570784092,-0.012659575086832046
1739919877730592000,4.987592041015625,2.681011353856325,11.71326220448017,-0.5187251831740141
1739919877740574200,4.99757421875,2.8418431363254784,11.736879226911068,-1.1033680688917635
1739919877750557200,5.00755712890625,3.208701933774352,11.63010344427824,-1.6375193692564964
1739919877760539100,5.0175390625,3.630366672644019,11.690377003455161,-2.052591870254278
1739919877770522000,5.027522216796875,4.0287846836999055,11.79438916659355,-2.357149402090907
1739919877780504000,5.037504150390625,4.434073457308114,11.915087091594934,-2.6925579992651936
1739919877790486000,5.047486083984375,4.822347383229435,11.785378177142142,-3.288047857689857
1739919877800469200,5.05746923828125,5.006926244249939,11.368375584864616,-4.11964890371263
1739919877810451000,5.067450927734375,5.087126739168167,10.893559101521967,-4.941311324045062
1739919877820433200,5.07743310546875,5.049751825019717,10.393895761692523,-5.655692934831976
1739919877830416100,5.087416015625,4.976255796176195,9.901058468490838,-6.10159136672616
1739919877840398000,5.097398193359375,4.908429629662633,9.599458617416024,-6.2335705641984935
1739919877850381000,5.107381103515625,4.690482459786534,9.396583344465494,-5.960489536121488
1739919877860363000,5.117363037109375,4.268848116055131,9.370543478801846,-5.161786551094055
1739919877870345200,5.12734521484375,3.6462516395181415,9.555293312475085,-3.9892362249046562
1739919877880328200,5.137328125,3.0676614779680964,9.848195477831363,-2.7915193087548014
1739919877890310100,5.14731005859375,2.5080638939186928,10.219239452010392,-1.7760475499808788
1739919877900293000,5.157293212890625,1.912589525324106,10.66283311409354,-0.7500789471119642
1739919877910275000,5.167275146484375,1.2613660892397165,10.986093592834472,-0.06396890656352043
1739919877920257000,5.177257080078125,0.5674344151549041,11.03567040143013,0.17684709772467613
1739919877930240300,5.187240234375,0.0913888284087181,11.015735866904258,0.30213702669143677
1739919877940222000,5.197221923828125,-0.21863215646557507,10.960564014780521,0.32279403027296066
1739919877950204200,5.2072041015625,-0.4896306061148643,10.748567277741431,0.16488193464279174
1739919877960187100,5.217187255859375,-0.6912877354472875,10.272542003130912,-0.05921148290336132
1739919877970169000,5.227169189453125,-0.8697066125333308,9.617771688219904,-0.2818313207656145
1739919877980152000,5.237152099609375,-0.996595793390274,8.851569873824715,-0.3176543292969465
1739919877990134000,5.247134033203125,-1.0565361750900746,7.966841048726439,-0.2298077035397291
1739919878000116200,5.2571162109375,-0.8836907872874289,6.999151616346835,-0.23292495877742767
1739919878010099200,5.26709912109375,-0.5983388911802321,6.094289519280195,-0.16448913593292236
1739919878020081200,5.2770810546875,-0.3827415723659098,5.314485295990109,0.03270283068418502
1739919878030063000,5.28706298828125,-0.3051754445392638,4.644113507321476,0.29111645098328587
1739919878040046000,5.297046142578125,-0.30432788779921827,4.057915793377161,0.6213783329188823
1739919878050028000,5.307028076171875,-0.3184615540266037,3.5726568264752623,1.0106669888406992
1739919878060011300,5.31701123046875,-0.290004690349102,3.1435189752459523,1.3579326125472784
1739919878069993000,5.326992919921875,-0.11229147731438278,2.73704596028924,1.7105787602484226
1739919878079975200,5.33697509765625,0.16172215543761848,2.3718933822363613,1.9972885007053613
1739919878089958100,5.346958251953125,0.4889236268892884,2.027259860599041,2.1647131055682896
1739919878099940000,5.356940185546875,0.8669966229222714,1.5951792339161037,2.2841747667729853
1739919878109923000,5.366923095703125,1.1407729397870598,1.131877539539337,2.5019699609577652
1739919878119905000,5.376905029296875,1.3983097772516309,0.7271148356318473,2.8987685541182753
1739919878129887200,5.38688720703125,1.5583341888606548,0.4046422923982143,3.4237896225661038
1739919878139870200,5.3968701171875,1.6429076381660996,0.14313947391211987,4.262304978021979
1739919878149852200,5.40685205078125,1.8308920698463915,0.1304594405591488,5.318005871331692
1739919878159834000,5.416834228515625,1.944440123093128,0.09312368937730789,6.110713415336608
1739919878169817000,5.426817138671875,1.9878198306143282,-0.20225684879124164,6.617503246045112
1739919878179799000,5.436799072265625,1.7124422160327433,-0.6297802505612373,7.1262594083905215
1739919878189782000,5.446781982421875,1.164439938839525,-0.8046791368275881,7.827545975282788
1739919878199764000,5.456763916015625,0.39123818255439397,-0.6500637446552515,8.781597927454113
1739919878209746200,5.46674609375,-0.5314052165269851,-0.27158874369263647,9.897297654652595
1739919878219729200,5.476729248046875,-1.5709052088811992,0.05815758993625641,11.026182442116736
1739919878229711000,5.486711181640625,-2.64346897418648,0.19692776272296905,11.975787351751327
1739919878239694000,5.496694091796875,-3.5263135929733513,0.07855565032064914,12.7334376109004
1739919878249676000,5.506676025390625,-3.9920688179820774,-0.30172376971542836,13.11789051722884
1739919878259658000,5.516657958984375,-4.193561404402554,-0.9328542658418416,12.930488123220204
1739919878269641200,5.52664111328125,-4.28150447627157,-1.4698136093646288,13.025868067091702
1739919878279623000,5.536622802734375,-4.483250452931225,-1.5007605362921952,13.867666097480058
1739919878289605000,5.546605224609375,-4.921175129467248,-1.4050269566774367,14.86465819671154
1739919878299588000,5.556588134765625,-5.633811942413449,-1.7884049272507427,15.350026469206808
1739919878309570000,5.566570068359375,-6.416144222876429,-2.7720319334745405,15.178776753097772
1739919878319553000,5.576552978515625,-7.189718611866235,-4.128495057991147,14.611667770504951
1739919878329535000,5.586534912109375,-7.793757687449455,-5.707033830490708,13.845546620130538
1739919878339517200,5.59651708984375,-8.107606779244541,-7.317094114935398,13.020956914174556
1739919878349500200,5.606500244140625,-7.990173408997058,-8.663603416192531,12.470811925864218
1739919878359482000,5.616482177734375,-7.421061854410171,-9.464354565921425,12.536844194698332
1739919878369465000,5.626465087890625,-6.345057008740305,-9.520915826576948,13.419620716685056
1739919878379447000,5.636447021484375,-5.106669644027948,-8.925831626343726,14.302690668660402
1739919878389429000,5.646428955078125,-3.887254398550093,-8.179622798663377,14.73927123711109
1739919878399412200,5.656412109375,-2.924083320377767,-7.224425768110156,14.672652108299731
1739919878409394400,5.66639453125,-2.201656642562151,-6.078766371455789,14.049485138398408
1739919878419376400,5.67637646484375,-1.6310370214998722,-4.715895717984438,13.311748370987177
1739919878429359400,5.686359375,-1.1799506655737757,-3.121335785010457,12.797127116000652
1739919878439341600,5.696341552734375,-0.7932005882188677,-1.4951146393597126,12.261147431164979
1739919878449324300,5.70632421875,-0.5159226929739117,-0.14000409849584103,11.448125413405895
1739919878459306500,5.716306396484375,-0.3719043904006481,0.916883374249935,10.335302118426561
1739919878469288400,5.726288330078125,-0.3484767530620098,1.649618387851119,9.106993664658068
1739919878479271400,5.736271484375,-0.4751519989073276,2.1396716032922267,7.968018275812268
1739919878489253600,5.746253662109375,-0.7508734584905207,2.4455834723472596,6.828470055514574
1739919878499236400,5.756236328125,-1.062507796845585,2.470476506063342,5.738688613426685
1739919878509218600,5.766218505859375,-1.2426387385465203,2.3326228635996578,4.867021514475345
1739919878519200500,5.776200439453125,-1.1649405818380414,2.229254843583703,4.220389497834444
1739919878529183500,5.78618359375,-0.9541421146728097,2.1718635618448254,3.746875329262018
1739919878539165400,5.79616552734375,-0.6845813696764409,2.237463869002461,3.451294300085306
1739919878549148700,5.806148681640625,-0.4625156585656106,2.4639707774311304,3.320228710326552
1739919878559130400,5.81613037109375,-0.30261151233538985,2.7591797584250566,3.1453526204138993
1739919878569112600,5.826112548828125,-0.21360797162801026,3.105609515829384,2.8674487022250887
1739919878579095300,5.83609521484375,-0.10996961023807525,3.557622046689689,2.608776138728857
1739919878589077500,5.846077392578125,0.1517958047069609,4.074308417512476,2.4171213479727505
1739919878599059500,5.8560595703125,0.5437995648063719,4.612052481672167,2.2669904077380894
1739919878609042400,5.86604248046875,0.9556314764477312,5.240307714623213,2.153061246219277
1739919878619024600,5.876024658203125,1.212266835027933,5.979667114800215,2.064925282126665
1739919878629007600,5.886007568359375,1.166870819248259,6.702457072970271,1.9145856675773858
1739919878638989600,5.895989501953125,0.9235396172687411,7.337367087635397,1.7193997800856828
1739919878648971500,5.905971435546875,0.5637570418164134,7.906157739704847,1.6253671591699121
1739919878658954500,5.91595458984375,0.15908055488765238,8.427849371469021,1.5647060619801283
1739919878668936400,5.9259365234375,-0.14421207157969473,8.870309645608067,1.4775275447428227
1739919878678919700,5.935919677734375,-0.23499197430983185,9.294389628925918,1.6059990263551474
1739919878688901400,5.9459013671875,-0.1277355685532093,9.789292037963866,2.1134224787920712
1739919878698883600,5.955883544921875,0.03754734810590744,10.159446369826792,2.5165578737586736
1739919878708866300,5.9658662109375,0.1115489883840084,10.417654238420724,2.8796371526688334
1739919878718848500,5.9758486328125,0.30108138015866276,10.755925239288807,3.2679169238090515
1739919878728830500,5.98583056640625,0.5544833097755909,11.111085415637492,3.3923131188064812
1739919878738813400,5.9958134765625,0.922340470612049,11.48069964927435,3.1872979112178084
1739919878748795400,6.00579541015625,1.0569263434514402,11.9013847294569,2.519624860113859
1739919878758778600,6.015778564453125,0.777154439433664,12.348228333246707,1.5613041445821523
1739919878768760300,6.02576025390625,0.3959469447672367,12.863797682738303,0.841701584276557
1739919878778742500,6.035742431640625,-0.07418518015146255,13.385821322935819,0.2839870374947786
1739919878788725500,6.0457255859375,-0.3325742505311966,13.910561820876598,-0.20282383502423762
1739919878798707500,6.05570751953125,-0.5144258785448969,14.407017304575442,-0.7974673057526349
1739919878808690400,6.0656904296875,-0.6569665097810328,14.669327347791194,-1.6082009203135967
1739919878818672400,6.07567236328125,-0.7818366789657623,14.58352654864788,-2.8004151473939416
1739919878828654600,6.085654541015625,-0.8699661402523517,14.095906697833538,-4.18445776823163
1739919878838637300,6.09563720703125,-0.8636427824497223,13.389668646013735,-5.511729285055399
1739919878848619500,6.10561962890625,-0.783415910981223,12.616823155820368,-6.733467712783813
1739919878858602500,6.1156025390625,-0.6810545837897807,11.919372806090117,-7.728674682164192
1739919878868584400,6.12558447265625,-0.6728302877366542,11.422295391100644,-8.296641742891072
1739919878878566400,6.13556640625,-0.8450877195835113,11.09055466878414,-8.349397766044735
1739919878888549600,6.145549560546875,-1.0647042839765548,10.956846455562115,-7.756342441290617
1739919878898531300,6.15553125,-1.272236442822218,11.01160914236307,-6.301240663367509
1739919878908513500,6.165513427734375,-1.3558990608930588,11.074085180020331,-4.659308738365769
1739919878918496300,6.175496337890625,-1.3239689681470392,11.15687452238798,-3.152927439582348
1739919878928478500,6.185478515625,-1.0929939743936061,11.23335804260969,-1.6738047346025704
1739919878938461400,6.19546142578125,-0.7618155621349811,11.170228509479761,-0.43174306529164314
1739919878948443400,6.205443359375,-0.25125081599764526,11.083014336407183,0.5986965455114841
1739919878958425600,6.215425537109375,0.3053918637689203,10.934853234940766,1.3779472265720367
1739919878968408300,6.225408203125,0.6987444811940193,10.722584110701083,1.79333361582458
1739919878978390500,6.235390625,0.8626957839231938,10.440726486450433,1.9429490077525375
1739919878988373500,6.24537353515625,0.813300104048103,10.051360089117289,1.7959978665977716
1739919878998355500,6.25535546875,0.5595663121283054,9.490494969350099,1.474056069239974
1739919879008337400,6.26533740234375,0.24533421236500141,8.936032702362537,1.1909276944011449
1739919879018320600,6.275320556640625,-0.03898410291075706,8.45174345727563,1.0271160193383693
1739919879028302300,6.28530224609375,-0.3411097314253449,7.945721688330173,1.0710247191697357
1739919879038285600,6.29528564453125,-0.7162177401728927,7.464156899771094,1.5373136126637459
1739919879048267300,6.305267333984375,-1.0796923020109535,6.863188317674398,2.032069306707382
1739919879058249500,6.31524951171875,-1.3044926987826824,6.141099785771965,2.581294842085242
1739919879068232400,6.325232421875,-1.3976992441378533,5.363663460657,3.076859514424205
1739919879078214400,6.33521435546875,-1.2897544177256524,4.490210647332668,3.3685265850275754
1739919879088197400,6.345197265625,-0.9438321714520453,3.718985744078457,3.7798265817493197
1739919879098179600,6.3551796875,-0.4754023204065859,3.0317092900991436,4.12768666421771
1739919879108161500,6.36516162109375,0.04473930543661117,2.379893441079557,4.446210177564621
1739919879118144500,6.37514453125,0.5272878443360328,1.7342171177282928,4.639315751650929
1739919879128126500,6.38512646484375,1.0526022697072475,1.1681424466192722,4.746443416461348
1739919879138108400,6.3951083984375,1.5353671547710894,0.6585124240487814,4.796033084538578
1739919879148091600,6.405091552734375,1.8758838887393474,0.1511409940600395,4.862040803453326
1739919879158073300,6.4150732421875,2.10960145919919,-0.2753174088269472,5.027483294588327
1739919879168056600,6.425056640625,2.2999919291079043,-0.5583809017360211,5.415795214432477
1739919879178038300,6.435038330078125,2.503758597940206,-0.5639174930751324,6.16725772485733
1739919879188020500,6.4450205078125,2.611724467140436,-0.5175906261861324,7.006931018176674
1739919879198003500,6.45500341796875,2.643955004137754,-0.6296615926176309,7.686041409096122
1739919879207985400,6.4649853515625,2.66408593801856,-0.8330190961271524,8.341505551490187
1739919879217968400,6.474968505859375,2.7528151918292045,-0.9931973831236361,9.058569533228873
1739919879227950600,6.48495068359375,2.9171336473703384,-1.150700897952914,9.73758873873353
1739919879237932500,6.4949326171875,2.9485996297359467,-1.30908470274806,10.26514195600748
1739919879247915500,6.50491552734375,2.869019312542677,-1.3788158261001109,10.926201141929626
1739919879257897500,6.5148974609375,2.7183272312939164,-1.3767314210414885,11.62199028044939
1739919879267880400,6.52488037109375,2.4087492409467695,-1.5057570294052363,12.283790640127657
1739919879277862700,6.534862548828125,2.2164988223850726,-1.8738848238766193,12.828372149091958
1739919879287844400,6.54484423828125,2.1266987244725226,-2.4979525420099495,13.031543774640559
1739919879297827600,6.55482763671875,1.9430536371707916,-3.2186113333702084,13.217899874466656
1739919879307809300,6.564809326171875,1.831632074558735,-3.674395783984661,13.867356300878525
1739919879317792500,6.57479248046875,1.8166122000813483,-3.9521383741319176,14.724195248532295
1739919879327774500,6.5847744140625,1.8050000882208346,-4.448884365209937,15.285876360857486
1739919879337756400,6.59475634765625,1.8262696707427502,-5.206698290488124,15.686673668265342
1739919879347739400,6.604739501953125,1.9704910946726797,-6.160646197763085,15.857703604143857
1739919879357721600,6.6147216796875,2.2287854725062846,-7.35351275127232,15.461716911888121
1739919879367704300,6.624704345703125,2.564778007048368,-8.664238791486621,14.409939914023875
1739919879377686500,6.6346865234375,3.038160073673725,-9.817921920120716,12.971045759057997
1739919879387668500,6.64466845703125,3.742590199288726,-10.434293238532543,11.63603049623966
1739919879397651500,6.6546513671875,4.4178854158341885,-10.43703698428273,10.5802530305624
1739919879407633200,6.664633056640625,4.964249132040143,-9.921841728800535,9.779018481230736
1739919879417615000,6.674614990234375,5.401913988596201,-8.87815685197711,9.151121560198067
1739919879427598000,6.68459814453125,5.643175398564338,-7.654298363354802,8.639503578680753
1739919879437580000,6.694580078125,5.625504132795333,-6.544900366649031,8.052171892270445
1739919879447563300,6.704563232421875,5.459971040767431,-5.473935853233933,7.525127793562412
1739919879457545000,6.714544921875,5.14409599610269,-4.379921303620934,7.152385783293843
1739919879467527200,6.724527099609375,4.645836093330383,-3.208777921620011,6.968071418428421
1739919879477510000,6.734510009765625,3.9737972482323642,-2.035614431968331,6.712527216085792
1739919879487492000,6.7444921875,3.059827131080627,-1.1192927832543849,6.416596058297157
1739919879497475000,6.75447509765625,2.1278718599051234,-0.33395664480030535,6.235602362287044
1739919879507457000,6.76445703125,1.146506953394413,0.2175906115233898,6.138307524704933
1739919879517439200,6.774439208984375,0.16991817524433134,0.551045736542344,6.140843765184283
1739919879527422200,6.784422119140625,-0.5619804240653291,0.7504086174577475,6.160742643874883
1739919879537404200,6.794404052734375,-1.0572422775328159,0.8160393197536469,6.094221714740991
1739919879547387100,6.80438720703125,-1.3190075463473796,0.7399258018881082,5.801375078964233
1739919879557369000,6.814369140625,-1.3890344377756119,0.6282043795466423,5.371819294583797
1739919879567351000,6.82435107421875,-1.3100082473337649,0.5613081873595714,4.9977790611982345
1739919879577334300,6.834334228515625,-1.249962651693821,0.7288479430347681,4.873236151206493
1739919879587316000,6.84431591796875,-1.2387807479441164,0.9848971722900867,4.7870577509224415
1739919879597299200,6.85429931640625,-1.2152737617589533,1.2837766584903,4.687710072463751
1739919879607281000,6.864281005859375,-1.0801381460823118,1.7077771468311547,4.626656761085987
1739919879617263000,6.87426318359375,-0.9334650912165641,2.258022088384628,4.544737771812081
1739919879627246000,6.88424609375,-0.9046588295795023,2.9369553691715002,4.4242742400884625
1739919879637228000,6.89422802734375,-0.9197671129927039,3.7042566692411896,4.2773540785938495
1739919879647211000,6.9042109375,-0.9212509218096733,4.57518522478491,4.151656737869978
1739919879657193200,6.914193115234375,-0.9965241894587874,5.43526271596849,4.0042859099984165
1739919879667175200,6.924175048828125,-1.1798844684697687,6.261399651366472,3.903232012143731
1739919879677158100,6.934158203125,-1.368672325487435,7.141693124365806,3.8609395153373476
1739919879687140000,6.94414013671875,-1.5641405370518564,8.104461466956138,3.9176697028189897
1739919879697123000,6.954123046875,-1.7324103605672716,8.967965133196115,3.7605677545279264
1739919879707105300,6.964105224609375,-1.8942703170403836,9.63818436165154,3.425331591311097
1739919879717087000,6.9740869140625,-2.0179452120259405,10.255305621647834,3.19570684312284
1739919879727070200,6.9840703125,-2.2117373070716857,10.82164069725871,2.9209529133975503
1739919879737052200,6.99405224609375,-2.3386808484643695,11.208303096330166,2.5809195790320634
1739919879747034000,7.0040341796875,-2.371871462665498,11.500263596922158,2.218492042028904
1739919879757017000,7.01401708984375,-2.2550255369171497,11.752229940778017,1.9097452418088912
1739919879766999000,7.0239990234375,-2.089057268342376,12.024427756279707,1.710197067454457
1739919879776982000,7.03398193359375,-1.8928925989463925,12.231163796311616,1.426212952569127
1739919879786964200,7.043964111328125,-1.7417299775764346,12.409891885477304,1.0582119993478059
1739919879796946200,7.0539462890625,-1.7057146613433956,12.623250558519363,0.5700999811023474
1739919879806929200,7.06392919921875,-1.7528569362685082,12.837875305974483,0.12640753481984138
1739919879816911000,7.0739111328125,-1.7855059909388422,13.15912619845867,-0.07994973502755165
1739919879826894000,7.08389404296875,-1.6811739481963217,13.5641133587718,-0.17173136214613913
1739919879836876000,7.0938759765625,-1.4179717784464358,13.74541100616455,-0.5332423688262701
1739919879846858000,7.10385791015625,-1.1136053852677346,13.56845986354351,-1.3364467569261789
1739919879856841000,7.113841064453125,-0.7937710815832019,13.083422430437803,-2.4709172355681654
1739919879866823200,7.1238232421875,-0.5276604770407081,12.500208700740338,-3.68504635733664
1739919879876806100,7.13380615234375,-0.28174861091822384,12.029914078736304,-4.752143673929572
1739919879886788000,7.1437880859375,-0.0244375450335443,11.694365780830383,-5.617886643528938
1739919879896770000,7.15377001953125,0.17244433272108434,11.302017152816056,-6.32863661981523
1739919879906753000,7.1637529296875,0.3406383145213127,10.84832879769802,-6.8397349613726135
1739919879916735200,7.1737353515625,0.4538254255011677,10.38463225878477,-6.909760683757066
1739919879926718000,7.183718017578125,0.4244998161651194,9.960208576595782,-6.4673536011099815
1739919879936700200,7.1937001953125,0.2760239496611058,9.627952305972576,-5.652779677733778
1739919879946681900,7.203681884765625,0.14916399489864707,9.419017294591665,-4.797364040881395
1739919879956665000,7.2136650390625,0.07622282345890999,9.240610692465305,-4.013856286898255
1739919879966647000,7.22364697265625,0.07870002722740173,9.122416859239339,-3.2196213871955868
1739919879976630000,7.233630126953125,0.015721300745010373,9.173305334955453,-2.4122943662077185
1739919879986612000,7.243612060546875,-0.08834588051624595,9.28551015689969,-1.674126221641898
1739919879996594200,7.25359423828125,-0.29014599851593376,9.432380634033679,-1.090457733914256
1739919880006577000,7.263576904296875,-0.5688052651166916,9.585990648555756,-0.6133429105013608
1739919880016559000,7.27355908203125,-0.8159970880471169,9.75898165537417,-0.34061902529895305
1739919880026542000,7.2835419921875,-0.991249902317673,9.80597721530497,-0.19621406149566173
1739919880036524000,7.29352392578125,-1.114173613609746,9.58950713224411,-0.2309311546117067
1739919880046506200,7.30350634765625,-1.1496516811609268,9.106777391558886,-0.5364157381653786
1739919880056489000,7.313489013671875,-1.1868331185638903,8.484152857971191,-0.8485761462211608
1739919880066471200,7.32347119140625,-1.2385400710560381,7.8861261745452875,-0.9477888001233339
1739919880076454100,7.3334541015625,-1.2656383597314358,7.275926822766661,-0.902248699697852
1739919880086436000,7.34343603515625,-1.2381973950982093,6.656218468886613,-0.620138561990857
1739919880096418000,7.35341796875,-1.180500481476262,6.076218440538645,-0.18354630310237408
1739919880106401000,7.363401123046875,-1.184366436189413,5.555547383993864,0.481579986128211
1739919880116383000,7.373383056640625,-1.1975696166336536,5.11448061003983,1.197304243695736
1739919880126366200,7.3833662109375,-1.1763315982937812,4.776330312941968,2.0020903480291365
1739919880136348000,7.393347900390625,-1.1273322973251343,4.5253237540289755,2.985209989252686
1739919880146330000,7.403330078125,-0.864036750203371,4.187181932498515,4.187738689598441
1739919880156313000,7.41331298828125,-0.1882511197924614,3.6461934795901176,5.103385215529799
1739919880166295000,7.423294921875,0.6802922941803932,2.896236405292153,5.5791141375422475
1739919880176278000,7.433278076171875,1.5831833834350109,2.133242447027564,5.962455283236503
1739919880186260000,7.443260009765625,2.384587444114685,1.3752449818760155,6.312534795320033
1739919880196242200,7.4532421875,2.8104443739771843,0.6631950289070606,6.590321809130907
1739919880206225200,7.46322509765625,2.948359975761175,0.22007307598888873,7.144489477086067
1739919880216207000,7.47320703125,2.9945640930533406,-0.011743629285693167,8.062266000783444
1739919880226189000,7.48318896484375,3.0528397564113137,-0.2002671362787485,9.131390439289808
1739919880236172300,7.49317236328125,3.0630642133057115,-0.4568950422048568,10.045568646234273
1739919880246154000,7.503154052734375,2.86608501265645,-0.7718670005500317,10.95338491693139
1739919880256137200,7.51313720703125,2.4506267272114752,-1.1561883894532918,11.86729541285038
1739919880266119000,7.523118896484375,2.0316320843338964,-1.4643494987398384,12.891661841219664
1739919880276102100,7.53310205078125,1.5741770701587199,-1.9316431853622198,13.583580275785922
1739919880286084000,7.543083984375,1.2255284676611422,-2.6529987268149853,13.905682232141494
1739919880296066000,7.553066162109375,1.1590262432277203,-3.295970467382669,14.14454125714302
1739919880306049000,7.563049072265625,1.2605974429547786,-3.7252328217744823,14.25537712882161
1739919880316031000,7.573031005859375,1.4754782109975815,-3.978591496771574,14.337358661937714
1739919880326013200,7.58301318359375,1.714267093372345,-4.197295622494816,14.331361467349529
1739919880335996200,7.59299609375,2.1044892307519913,-4.405122964894772,14.249534248012303
1739919880345978000,7.60297802734375,2.697128960442543,-4.359963388219476,14.095878640782832
1739919880355961000,7.612961181640625,3.2586031520187855,-3.8999551824301477,13.976778798627853
1739919880365943300,7.622943359375,3.4886715523213145,-3.4773160455703733,13.653966063654423
1739919880375925000,7.632925048828125,3.3237142143547533,-3.466499468001723,12.76643036444187
1739919880385908200,7.642908203125,2.8972411984205246,-3.8962557433903213,11.529732852512597
1739919880395890000,7.652889892578125,2.505316933298111,-4.610688792103529,10.257317545992136
1739919880405873400,7.662873291015625,2.2362474789500237,-5.503899614343047,8.934973548698425
1739919880415855400,7.67285546875,2.1094553287267686,-6.5783695055305955,7.8000272692382335
1739919880425837300,7.68283740234375,2.228523022177815,-7.515919235712289,7.2034747500181195
1739919880435820300,7.6928203125,2.5413690744101998,-8.114161607715488,7.033767002654075
1739919880445802200,7.70280224609375,3.0449586477726696,-8.268418687969445,7.253222823527455
1739919880455785200,7.71278515625,3.6169092251777646,-8.043391788965463,7.568340912345051
1739919880465767400,7.722767333984375,4.101434617108106,-7.552741192153095,7.804431057155131
1739919880475749400,7.732749267578125,4.45786788213253,-6.909191943958401,7.881161245614289
1739919880485732400,7.742732421875,4.6793233523905275,-6.141169928398728,7.829857174834609
1739919880495714300,7.75271435546875,4.868849314424395,-5.274831915515661,7.75185974291861
1739919880505697300,7.762697265625,4.907067693659663,-4.362797150340676,7.640440518394112
1739919880515679200,7.77267919921875,4.7227574204474685,-3.5088615229129787,7.331890702050924
1739919880525661200,7.7826611328125,4.272524174219369,-2.7109850518375636,7.140839137884974
1739919880535644400,7.79264453125,3.506123037859797,-2.0015081642270087,7.253760583665967
1739919880545626400,7.80262646484375,2.5693513063132762,-1.4066291311770678,7.569481899073719
1739919880555609300,7.812609375,1.5578034429848193,-0.9539712881505489,8.002307498905061
1739919880565591300,7.82259130859375,0.7687421465277672,-0.6048141516089439,8.647847628656029
1739919880575574300,7.83257421875,0.37048290623016655,-0.3659767539173364,8.727661754605174
1739919880585556200,7.84255615234375,0.2355249121427536,-0.351632002222538,8.209092054253816
1739919880595539500,7.85253955078125,0.10543138228654861,-0.3415004843086004,7.421986568039655
1739919880605521200,7.862521240234375,-0.053949032330513,-0.1471978093922138,6.61405632046163
1739919880615503400,7.87250341796875,-0.1492750540576875,0.2560147424638271,5.918408051717281
1739919880625486300,7.882486328125,-0.1803891542457044,0.8952852904260158,5.4246717638492585
1739919880635468300,7.89246826171875,-0.14937924508452416,1.7176830392956732,5.0843362316668035
1739919880645451300,7.902451171875,-0.06922580417841673,2.5724016337946054,4.760193124872446
1739919880655433200,7.91243310546875,0.04474398161172866,3.3691578686684367,4.336012603789568
1739919880665415200,7.922415283203125,0.11119038420468569,4.040204780119657,3.8124084164023397
1739919880675398400,7.9323984375,0.11628507699519396,4.617267585971951,3.327922187438607
1739919880685380000,7.942380126953125,0.09852145676761866,5.273797311770916,2.953139611253142
1739919880695363300,7.95236328125,-0.000037409400939941404,6.004911446171999,2.687999897569418
1739919880705345300,7.96234521484375,-0.2565034027636051,6.74654639006555,2.449510290402174
1739919880715327200,7.9723271484375,-0.5424550183296203,7.367625447776914,2.1997990319967267
1739919880725310200,7.982310302734375,-0.8560419520571827,7.838249740126728,1.8728344380408524
1739919880735292200,7.992292236328125,-1.0963824477881192,8.307316866162418,1.6033125637501477
1739919880745275100,8.002275146484376,-1.2624062459424137,8.836571042135358,1.4637375043213368
1739919880755257300,8.01225732421875,-1.4209952179208396,9.347658862298726,1.3151380114376545
1739919880765239300,8.0222392578125,-1.5633400343239305,9.74118705548644,1.1299655684381722
1739919880775222300,8.03222216796875,-1.7103177712246775,10.085383939272164,0.9595417817592621
1739919880785204500,8.04220458984375,-1.9515974475018678,10.461091229087113,0.8365952010482549
1739919880795187200,8.052187255859375,-2.1901891998693346,10.830043783944845,0.744447078704834
1739919880805169400,8.06216943359375,-2.3798387882828713,11.076507438731193,0.5665045869588852
1739919880815151000,8.072151123046876,-2.553580905729532,11.276993770718574,0.4244663522869348
1739919880825134300,8.08213427734375,-2.6467116093695164,11.462490623366833,0.19389584768116472
1739919880835116300,8.0921162109375,-2.6827663808301088,11.505471686959266,-0.23414134882986545
1739919880845099300,8.102099365234375,-2.6935747750923036,11.423505351412295,-0.7011252388507128
1739919880855081200,8.112081298828125,-2.574587745662033,11.52687570951581,-0.8513590549379587
1739919880865063200,8.122063232421874,-2.370954055559635,11.93952361371517,-0.6979875253468751
1739919880875046100,8.132046142578124,-2.14192683487311,12.265635390233992,-0.6788625536382198
1739919880885028400,8.1420283203125,-1.959235541164875,12.123780110913515,-1.2571265519738197
1739919880895011000,8.152010986328126,-1.7822189320921897,11.646278334009647,-2.163862041696906
1739919880904993300,8.1619931640625,-1.6078712499678134,11.166563557231425,-2.977700052013993
1739919880914976300,8.171976318359375,-1.4716533920124173,10.74420557540059,-3.5894618308037516
1739919880924957200,8.181957275390625,-1.4017150556504725,10.321840579307079,-3.92302100071907
1739919880934940400,8.1919404296875,-1.3349065417468546,9.961232658946514,-3.8432653269588943
1739919880944922000,8.201922119140624,-1.3751682633779942,9.741534261488914,-3.3919173974871635
1739919880954905300,8.2119052734375,-1.5062718470595775,9.437467143517733,-2.9010943667173383
1739919880964887300,8.22188720703125,-1.557478594944626,9.033282531759143,-2.453428340628743
1739919880974869200,8.231869140625,-1.4663409648180008,8.8020076782763,-1.948306735393405
1739919880984852200,8.241852294921875,-1.206124532880634,8.751070102721453,-1.4963509031563997
1739919880994834200,8.251834228515625,-0.74816580696702,8.796009314644337,-1.2457903344452381
1739919881004817200,8.261817138671875,-0.27740371358171106,8.844820399564504,-1.2865677505135535
1739919881014799400,8.27179931640625,0.08141469301357865,8.850257622182369,-1.5112170483767986
1739919881024781300,8.28178125,0.20153715621456503,8.83071237923503,-1.7653209887832402
1739919881034764300,8.291764404296876,0.11906097144931554,8.825270480442047,-1.9793787500053643
1739919881044746500,8.30174658203125,-0.16091405392512678,8.785215533429383,-2.1569009705126283
1739919881054729200,8.311729248046875,-0.6469850678622723,8.569750243496895,-2.299938153094053
1739919881064711400,8.32171142578125,-1.2495336126267909,8.17478704907,-2.3955565818965434
1739919881074693000,8.331693115234375,-1.8103531396865844,7.638292400449514,-2.4483885928958653
1739919881084676400,8.34167626953125,-2.2183047027632594,6.9814850267529485,-2.528741648027301
1739919881094658300,8.351658203125,-2.4244994755253195,6.33126755284071,-2.525841250410676
1739919881104641300,8.361641357421876,-2.501605219298601,5.638205793458223,-2.439603228893876
1739919881114623200,8.371623291015625,-2.4603239453613757,4.961416538962721,-2.242413600364327
1739919881124605200,8.381605224609375,-2.304686808925867,4.381919199439883,-1.9615806429862974
1739919881134588200,8.391588134765625,-1.9769407092034816,3.859295547522604,-1.5345722050011157
1739919881144570400,8.4015703125,-1.637712261480093,3.455083755496144,-1.1780348950803279
1739919881154553000,8.411552978515624,-1.3449020121909676,3.1680060585096474,-0.7196177578747273
1739919881164535300,8.421535400390624,-1.1606664116501808,2.9104750662639733,-0.15566636252999305
1739919881174517500,8.431517578125,-1.2188847918629646,2.8138898382559416,0.4166425267934799
1739919881184500200,8.441500244140625,-1.4805156206429004,2.830280708825588,1.0872352647364139
1739919881194482400,8.451482421875,-1.6534240637443958,2.7666853117495775,1.9361089325994252
1739919881204465400,8.46146533203125,-1.7876117310464381,2.631529237806797,2.8308097011357543
1739919881214447400,8.471447265625,-1.6785937224447727,2.733132586237788,3.91914211345911
1739919881224429300,8.48142919921875,-1.1384136633098125,3.0132746387422085,5.066687762251496
1739919881234412300,8.491412353515624,-0.15751403622329235,3.1726953853696584,6.076455756425857
1739919881244394200,8.501394287109376,1.136380111655593,2.984001782506704,7.1422039964973925
1739919881254377500,8.51137744140625,2.5604104594886303,2.633411398291588,8.204704632949829
1739919881264359200,8.521359130859375,3.903134981510043,2.388296820026636,8.993884587350488
1739919881274341400,8.53134130859375,4.971888833138347,1.9722703793048857,9.494619355803728
1739919881284324400,8.541324462890625,5.682845145651698,1.3335527890503405,9.698298346352576
1739919881294306300,8.551306396484375,6.214775847357511,0.6760860746622085,10.079178654891251
1739919881304289300,8.561289306640624,6.642712506103515,0.14454817166626452,10.590263552445172
1739919881314271200,8.571271240234376,7.004242802006006,-0.3670189564466476,11.24829842211008
1739919881324254200,8.581254150390626,7.298641927921771,-0.8694821561276912,11.936014144289492
1739919881334236400,8.591236328125,7.590688937753439,-1.2940958079308271,12.481987984395026
1739919881344218400,8.60121826171875,7.801014526709913,-1.621385980579257,12.976818497240542
1739919881354201300,8.611201416015625,7.789819178956747,-1.962141199478507,13.31366092661023
1739919881364183300,8.621183349609375,7.662517325645685,-2.408237199771404,13.420559458839893
1739919881374166300,8.631166259765624,7.4529247271388765,-2.937624646735191,13.323358144760132
1739919881384148500,8.6411484375,7.345075177794694,-3.3391648814648387,13.295226275253295
1739919881394130200,8.651130126953126,7.263807345905899,-3.332745077550411,13.646468985897302
1739919881404115000,8.661114990234376,6.90839173349142,-3.051283759140968,13.98256439629197
1739919881414097000,8.671096923828125,6.27057781407833,-3.0969962935239073,13.760663520354031
1739919881424080000,8.681079833984375,5.561433519423008,-3.484240291875601,12.941468951439857
1739919881434062000,8.69106201171875,5.001483760935068,-4.057762648642063,11.909712997341156
1739919881444043800,8.701043701171875,4.715297752091288,-4.829011809554696,10.611485204172133
1739919881454027000,8.711027099609375,4.752514260807633,-5.589408152541518,9.14225903930664
1739919881464008700,8.7210087890625,4.918299281769991,-6.126509534883499,8.093264365637301
1739919881473992000,8.730991943359374,5.089198284745216,-6.263359553262591,7.612187068334221
1739919881483974000,8.740973876953126,5.285377859449386,-6.063271280682087,7.487213365709781
1739919881493955800,8.750955810546875,5.515667209026217,-5.644637872332334,7.57878807207942
1739919881503938800,8.760938720703125,5.760116016858816,-5.099142171132565,7.767450110760331
1739919881513921000,8.770921142578125,5.916993508744239,-4.529882147985696,7.817802579903602
1739919881523903700,8.78090380859375,6.024384208405017,-3.914065540847182,7.731890721601247
1739919881533886000,8.790885986328124,5.94021130272448,-3.280133431303501,7.495870719417929
1739919881543868000,8.800867919921876,5.625211871850491,-2.6410177816420792,7.127952183783054
1739919881553851000,8.810850830078126,5.082326645410061,-2.0266800148844717,7.0148448600411415
1739919881563833000,8.8208330078125,4.364876879224181,-1.4020844734847544,7.347730076217651
1739919881573815800,8.83081591796875,3.5286820756703614,-0.7986018627405166,7.7963962192595
1739919881583798000,8.840798095703125,2.604744106733799,-0.29237668017745017,7.995591926914453
1739919881593779700,8.85077978515625,1.609710740354657,0.010094108512997626,7.9150138308554885
1739919881603763000,8.860762939453124,0.8184487189829349,0.18665479051172731,7.746033813244104
1739919881613745000,8.870744873046876,0.18100772453546524,0.30729134071469305,7.5813178828179835
1739919881623728000,8.88072802734375,-0.30763511265106497,0.4579781612664461,7.399992178374529
1739919881633709800,8.890709716796875,-0.6346738678216934,0.7188222235828637,7.167458264741301
1739919881643692000,8.900692138671875,-0.8658641117610036,1.1281319232702254,6.929656055316329
1739919881653674800,8.9106748046875,-1.086523463205248,1.6424924814939499,6.649691112944484
1739919881663657000,8.920656982421875,-1.3173185703471302,2.1643623924344775,6.207211549583077
1739919881673640000,8.930639892578125,-1.5080854723528028,2.748587345001101,5.671746828532219
1739919881683622000,8.940621826171874,-1.6013745814248919,3.660842474928498,4.990110718527436
1739919881693604900,8.95060498046875,-1.7823437275156377,4.573587434199452,4.2176825769633055
1739919881703586800,8.9605869140625,-2.103943287307024,5.291550410604477,3.489030448761582
1739919881713569000,8.970569091796875,-2.2561247303307055,5.932015721309185,2.9805934353679415
1739919881723552000,8.980552001953125,-2.2807956457287073,6.637381666469573,2.5974399212002752
1739919881733534000,8.990533935546875,-2.2921365394324065,7.256326050239801,2.1558283728450536
1739919881743517000,9.000516845703125,-2.3124513054475186,7.706617164134979,1.709391596290469
1739919881753499100,9.0104990234375,-2.257413016575575,8.076300371354819,1.3164707213461397
1739919881763480800,9.020480712890626,-2.2107842441305516,8.532502755120396,1.0556085388511418
1739919881773464000,9.030464111328126,-2.2482164414241907,8.969539250645042,0.9088456137448548
1739919881783445800,9.04044580078125,-2.4027695820152757,9.35098946802616,0.7709872951060533
1739919881793429000,9.050428955078125,-2.589784145750105,9.66101052596569,0.590906622287631
1739919881803411000,9.060410888671875,-2.720728739477694,10.09115433936715,0.5752338368594646
1739919881813393000,9.070392822265624,-2.827816656799614,10.636583405071496,0.6127051971197128
1739919881823376000,9.0803759765625,-2.955444381064176,11.09389579590559,0.523370963153243
1739919881833357800,9.09035791015625,-3.0791037862196564,11.517594670951366,0.4290992727845907
1739919881843340800,9.1003408203125,-3.1099902151316403,11.968871288752554,0.349216757774353
1739919881853323000,9.110322998046875,-3.1087156651511787,12.346178999501467,0.18370880018770694
1739919881863305000,9.120304931640625,-3.157098295526206,12.568042466038465,-0.10853285543322562
1739919881873288000,9.130287841796875,-3.239552706851065,12.585988457095622,-0.5681845028698445
1739919881883270100,9.140270263671875,-3.256231454451382,12.60773968565464,-0.9244003257513046
1739919881893252900,9.1502529296875,-3.22419439419955,12.922088543665408,-1.0550929905444384
1739919881903235000,9.160235107421874,-3.167838885249197,13.25486036259532,-1.3395979144334793
1739919881913218000,9.170218017578126,-3.172426213039458,13.388864343893527,-1.870533759883046
1739919881923200000,9.180199951171875,-3.2315412498310208,13.252759590923786,-2.648424258506298
1739919881933182000,9.190181884765625,-3.3601357733011246,12.886374256205558,-3.493050205796957
1739919881943165000,9.2001650390625,-3.3844483767807483,12.584510785758495,-3.945461380586028
1739919881953147000,9.21014697265625,-3.430555463439226,12.405678651696443,-4.193228519186377
1739919881963130000,9.220130126953125,-3.455909977187216,12.011484103554487,-4.539207610213756
1739919881973111800,9.23011181640625,-3.4471345500573514,11.445378160524367,-4.602657461339235
1739919881983094000,9.240093994140626,-3.422838313190639,11.022960557460785,-4.071607049599289
1739919881993076700,9.25007666015625,-3.2312913667231795,10.669114386320114,-3.3611651163488623
1739919882003059000,9.260058837890625,-2.9812372862294314,10.382698660373688,-2.509231476393342
1739919882013042000,9.2700419921875,-2.6964602674007416,10.24563412246108,-1.4675181919038296
1739919882023023900,9.28002392578125,-2.3497031777381894,10.153895749962329,-0.5165694664448499
1739919882033006000,9.290006103515625,-1.8780843213930725,10.044212555450201,0.32516777366697786
1739919882042989000,9.299989013671874,-1.3067112516149877,9.9908749330163,1.1651578778505325
1739919882052971000,9.309970947265626,-0.7704509962722659,9.909127208656072,1.8418430874496696
1739919882062954000,9.3199541015625,-0.3340481224760413,9.620378071326018,2.348871987611055
1739919882072936000,9.32993603515625,-0.022430442994832992,9.141248985481262,2.692315422680974
1739919882082918000,9.33991796875,0.289046074450016,8.609007318130136,2.9653122796058655
1739919882092900900,9.34990087890625,0.3818760415777564,7.9318790409386155,3.1472850497812033
1739919882102882800,9.3598828125,0.289247442241013,7.058197095033526,3.103506113809347
1739919882112866000,9.369865966796874,0.25740736586600543,6.149730251473188,2.9501293235212565
1739919882122848000,9.379847900390626,0.19034633850604293,5.238419708919525,2.7536668402224778
1739919882132831000,9.3898310546875,-0.09050999974757433,4.336427322070301,2.5583845066189763
1739919882142813000,9.39981298828125,-0.3258975492462516,3.6002182026177643,2.4580396338164805
1739919882152795000,9.409794921875,-0.5102084069803356,3.099179190520942,2.4581267275780436
1739919882162777900,9.41977783203125,-0.519611026097834,2.5911191937461493,2.525035194724798
1739919882172760000,9.429760009765625,-0.41909079672843214,2.0123168507501483,2.548275200536847
1739919882182742800,9.43974267578125,-0.11815379347652197,1.3509718336239456,2.3655858065247535
1739919882192725000,9.44972509765625,0.2299089719571173,0.6608160248160362,2.301154543146491
1739919882202706700,9.459706787109376,0.5731482627570629,0.13586246864646673,2.349556462743878
1739919882212690000,9.46968994140625,0.9558616319417953,-0.25172961249053477,2.6683558704227206
1739919882222672000,9.479671875,1.3231293024525046,-0.6767518450945615,3.3118256236404178
1739919882232654800,9.48965478515625,1.5927157664120197,-1.1471347299039363,3.8725586414605377
1739919882242636800,9.49963671875,1.8969091411113739,-1.6534896763265132,4.423170078238845
1739919882252619000,9.509618896484374,2.2955495627462863,-2.1586106970399617,5.268852256584167
1739919882262601700,9.519601806640624,2.7210464271247385,-2.6722762587368485,5.937372864428162
1739919882272584000,9.529583984375,2.9450492437779903,-3.0337071859180926,6.325709918713569
1739919882282567000,9.53956689453125,2.9463819536864757,-3.303451178526878,6.631126113206148
1739919882292548900,9.549548828125,2.8498844039618967,-3.438550553846359,7.026319609257579
1739919882302531800,9.55953173828125,2.6540835994422434,-3.4530607252359387,7.522634807702898
1739919882312513800,9.569513671875,2.4633774877130983,-3.525809150582552,8.18855253957212
1739919882322496000,9.57949609375,2.369377015501261,-3.5914410219222304,8.86888633480668
1739919882332479000,9.58947900390625,2.323414890271425,-3.8273219078958034,9.481717788654565
1739919882342461000,9.5994609375,2.2416168970286843,-4.292355248370766,10.008749612402916
1739919882352444000,9.60944384765625,2.296545588046312,-4.702658635270596,10.44651442220211
1739919882362425900,9.61942578125,2.539470547312498,-4.941352825099229,10.930562844270467
1739919882372407800,9.62940771484375,2.780459570080042,-5.045162743663788,11.390502076476812
1739919882382391000,9.63939111328125,2.937100915122032,-5.102901815927028,11.731171955180168
1739919882392372700,9.649372802734375,2.8911779528588055,-5.18676726309359,11.908078674137592
1739919882402356000,9.65935595703125,2.793801282212138,-5.264392354565858,12.081737789475918
1739919882412336000,9.669336181640626,2.749941682219505,-5.315573091226816,12.336276029646395
1739919882422318300,9.679318359375,2.86858442825675,-5.317044332823157,12.654875530838966
1739919882432301300,9.68930126953125,3.2430192139178513,-5.058726574113964,13.205158466315268
1739919882442283300,9.699283203125,3.5497453219652173,-4.731579024806618,13.54400814385414
1739919882452266200,9.709266357421875,3.6458711157679558,-4.808949264734983,12.97549864681363
1739919882462248200,9.719248291015624,3.6400527848780153,-5.247332498693466,11.829140161979197
1739919882472230100,9.729230224609376,3.645075581476092,-5.771057682111859,10.677358483052252
1739919882482213400,9.73921337890625,3.6880724271595478,-6.270132408398389,9.620169981533289
1739919882492195000,9.749195068359375,3.759831256946921,-6.839433932599425,8.641015152287483
1739919882502178300,9.75917822265625,4.0843817754983895,-7.256690791898966,7.884994540166854
1739919882512160000,9.769159912109375,4.408568136912584,-7.323283032703399,7.443521523499489
1739919882522143200,9.779143310546875,4.630332234728336,-7.01719580708146,7.246005147233605
1739919882532125200,9.789125244140624,4.831797056359052,-6.374751889780163,7.319714526566862
1739919882542107100,9.799107177734374,4.913436059647799,-5.491919838213921,7.448567116451263
1739919882552090000,9.809090087890626,4.777664484155178,-4.535241629192233,7.4060373037576674
1739919882562072300,9.819072265625,4.657863215732574,-3.560217616140842,7.158025250485539
1739919882572055000,9.829054931640625,4.479546629977226,-2.5377964766204357,6.938267816317081
1739919882582037200,9.839037353515625,3.9160400557905435,-1.352757840257883,6.751606596064567
1739919882592019200,9.849019287109375,3.063990095978975,-0.2960579990386963,6.784059251379967
1739919882602002200,9.859002197265625,2.072875948870182,0.6010866555184126,6.971455215647817
1739919882611984100,9.868984130859374,1.0006254872977733,1.455311036759615,7.120907525968551
1739919882621967000,9.878967041015626,-0.05379011544175446,2.138521848735213,7.111347670462727
1739919882631949300,9.88894921875,-1.0769115852512419,2.48942845929265,7.003759986925124
1739919882641931000,9.898930908203125,-1.9822293171308933,2.633713011586666,6.965751451048255
1739919882651914200,9.908914306640625,-2.49327110619545,2.577236506605148,6.685100279977918
1739919882661896200,9.918896240234375,-2.386194879311323,2.3114427129268647,5.907542958831787
1739919882671879200,9.928879150390625,-2.0755375692948697,2.0508318748444316,5.080040580299497
1739919882681861000,9.938861083984374,-1.701441221807897,1.955182758642733,4.3884898100018495
1739919882691844400,9.94884423828125,-1.3961717423096298,2.1343398868754506,3.830487678450346
1739919882701826000,9.958825927734376,-1.2208110837504267,2.4801363148123023,3.3432647179991006
1739919882711808300,9.968808349609375,-1.239264732068777,2.856491547141969,2.8549206445634363
1739919882721791200,9.978791259765625,-1.3492699981421232,3.1395971256271005,2.4387165091872216
1739919882731773200,9.988773193359375,-1.4102330008879302,3.356091466346383,2.0883453206807374
1739919882741756200,9.998756103515625,-1.5939882705658672,3.6216301162198183,1.8670938485622406
1739919882751738000,10.008738037109374,-1.770306375980377,3.994449575638771,1.8182295721501112
1739919882761720000,10.018719970703126,-1.9019824988529086,4.460492385417223,1.7885300149351357
1739919882771703300,10.028703369140626,-2.028853851792216,5.0093455803513525,1.7009943548232316
1739919882781685000,10.03868505859375,-2.1519228898391125,5.5984664882659905,1.601232834866643
1739919882791668200,10.048668212890625,-2.2824854985117913,6.251532921868562,1.4808295088976622
1739919882801650200,10.058650146484375,-2.4023192078992723,6.9307344982028,1.3778741613358259
1739919882811632000,10.068632080078125,-2.5241207102283836,7.6453610236614935,1.3483908772200346
1739919882821615000,10.078614990234374,-2.723110081656277,8.3831276016891,1.3306208272516726
1739919882831597000,10.08859716796875,-3.0152701964735984,9.022157911154627,1.2889274653822183
1739919882841580000,10.098580078125,-3.2998993312641978,9.585686697173118,1.3174708382993936
1739919882851562200,10.108562255859376,-3.617623218666017,10.177137509340048,1.36951140666008
1739919882861545000,10.118544921875,-3.918851021558046,10.740582708728313,1.3502052331656216
1739919882871527200,10.128527099609375,-4.330467244622111,11.290622483098506,1.143791264694929
1739919882881509000,10.138509033203125,-4.7838270984381435,11.756975089478493,0.6720411831855774
1739919882891492000,10.1484921875,-4.978273565739393,12.14863164357543,0.16696458613574505
1739919882901474300,10.158474365234374,-5.359947655004262,12.336145096743106,-0.6188181270420551
1739919882911457000,10.16845703125,-5.730516412886977,12.343937942576408,-1.4333312601417303
1739919882921439200,10.178439208984376,-5.870111930581927,12.434210334175825,-2.1006454148054123
1739919882931421200,10.188421142578125,-5.773547160840034,12.829888398873805,-2.642111422097683
1739919882941404200,10.198404052734375,-5.454213500154018,13.449444192540644,-2.9016999313950538
1739919882951386000,10.20838623046875,-5.101272168898582,14.035942935258149,-3.076525167903304
1739919882961369300,10.218369384765625,-4.9477282053500415,14.241884025520086,-3.5483208421200514
1739919882971351000,10.22835107421875,-4.855983695371449,13.982550367766619,-4.299595721018314
1739919882981333200,10.238333251953126,-4.817625907665491,13.4098416654706,-4.7885845220983025
1739919882991316000,10.24831591796875,-4.876629008515179,12.633858461773395,-5.015508194634318
1739919883001298200,10.258298095703125,-4.80093605414927,11.826796229201555,-5.038657015031576
1739919883011281200,10.26828125,-4.223375820168853,11.129494348031281,-4.312783703893423
1739919883021263000,10.27826318359375,-3.391528398169577,10.49235496687889,-3.2724341089725493
1739919883031246000,10.28824609375,-2.7879642466217276,9.962084891861677,-2.577407771518826
1739919883041228000,10.29822802734375,-2.1493772970095275,9.717682261258362,-1.928110335060954
1739919883051210200,10.308210205078124,-1.466728210569918,9.769342305868863,-1.3212795829325914
1739919883061193200,10.318193115234376,-0.7701587353274226,9.873437471115588,-0.7711778492420911
1739919883071175200,10.328175048828125,-0.1540472368955612,9.972031116336584,-0.275653508913517
1739919883081158100,10.338158203125,0.29263240850418804,10.129046555387973,0.2677367444396019
1739919883091140400,10.348140380859375,0.5555906864956021,10.262128161144256,0.8468354400336742
1739919883101122000,10.3581220703125,0.6058934712782502,10.13692123428583,1.4665262582570313
1739919883111105300,10.368105224609375,0.5629354963004589,9.794687759527564,2.1232938844650984
1739919883121087000,10.3780869140625,0.4683496254161,9.404618182361125,2.793590269809961
1739919883131070200,10.3880703125,0.3243316151037812,8.860909949100018,3.2990526513069867
1739919883141052200,10.39805224609375,0.11461071404218673,8.22264185617864,3.5468566147863863
1739919883151035100,10.40803515625,-0.15361790556758642,7.538062093937397,3.592736322429776
1739919883161017000,10.41801708984375,-0.522669829146564,6.751185740303993,3.4085172346323724
1739919883170999000,10.4279990234375,-0.9890032924346626,5.846987660104036,3.1753298255264757
1739919883180982000,10.43798193359375,-1.4491520757384597,4.902807698127627,3.2239176230847835
1739919883190964200,10.447964111328124,-1.765753827242553,4.031803739260137,3.584868073272705
1739919883200947200,10.457947265625,-1.9683366931177675,3.300969298583269,4.147946777436137
1739919883210929200,10.46792919921875,-2.113588044617325,2.5533915206372737,4.713740585777163
1739919883220911400,10.477911376953125,-2.066866040930897,1.6657646360099314,5.182734062054753
1739919883230894000,10.48789404296875,-1.7939831657744942,0.6543143878370523,5.71754879476428
1739919883240876300,10.497876220703125,-1.18586398127079,-0.3687847970753908,6.529374296215177
1739919883250859300,10.507859375,-0.23235446541309354,-1.421281925907731,7.158908463060856
1739919883260841200,10.51784130859375,0.8896423161029815,-2.268246545279026,7.51692578240633
1739919883270823200,10.5278232421875,1.8599249798461794,-2.8380723856151104,7.769121258842945
1739919883280806100,10.53780615234375,2.5151836627960202,-3.201288442647457,7.843885700187086
1739919883290788000,10.5477880859375,2.897837410748005,-3.501314176273346,7.766069470056891
1739919883300771300,10.557771240234375,3.0292496219873426,-3.8105958140224216,7.654368505981564
1739919883310753000,10.5677529296875,3.0587071871399876,-4.167705955395102,7.527417950326204
1739919883320736300,10.577736328125,3.1145185062110423,-4.430262666848302,7.521350028589367
1739919883330718200,10.58771826171875,3.256507056522369,-4.548271206635237,7.5835285446047775
1739919883340700200,10.5977001953125,3.419930024528503,-4.640934292763471,7.753264349019527
1739919883350683100,10.60768310546875,3.586260404413938,-4.77670937538743,8.12424519483447
1739919883360665000,10.6176650390625,3.7840012370854614,-5.006397251939774,8.587657071587444
1739919883370648000,10.62764794921875,3.8423476275920865,-5.30418894290328,8.948328704833983
1739919883380630300,10.63763037109375,3.8107097957909106,-5.520401251810789,9.301634777748584
1739919883390612200,10.6476123046875,3.6234015098065138,-5.582792533794045,9.68107950052619
1739919883400595200,10.65759521484375,3.3521237317591903,-5.512507283690572,9.924224240022896
1739919883410577700,10.66757763671875,3.1488229268729686,-5.323441340383887,10.203608167636395
1739919883420560600,10.677560546875,2.8252485598772763,-5.075739083713293,10.415113906288147
1739919883430542600,10.68754248046875,2.528546417716145,-4.903536012402177,10.73907698034048
1739919883440524500,10.697524658203125,2.319485149607062,-4.793161913016438,11.08259231160283
1739919883450507500,10.707507568359375,2.4194985984981057,-4.74543277811408,11.45527528516054
1739919883460489700,10.71748974609375,2.890263176101446,-4.51786496245563,12.127715112274885
1739919883470472400,10.727472412109375,3.6001971598297358,-4.017275739952922,12.863383841240406
1739919883480454700,10.73745458984375,4.199652414754033,-3.827238321265578,12.923906406742333
1739919883490437600,10.747437744140624,4.6475183473289015,-3.994949341854453,12.217807471132279
1739919883500419600,10.757419677734376,4.970720373880863,-4.389550717231631,11.251777496397494
1739919883510401800,10.76740185546875,5.0512411867946385,-4.89157435645163,10.200279899996518
1739919883520384500,10.777384521484375,4.924374802291393,-5.514585843530297,9.107048609715699
1739919883530366700,10.78736669921875,4.74103191280663,-6.116030226445198,8.254065168446301
1739919883540349700,10.797349609375,4.662019166368246,-6.315295492205023,7.824527504244446
1739919883550331600,10.80733154296875,4.465173236709833,-6.084073245692252,7.7488751741498705
1739919883560313600,10.817313720703124,4.1984067986071105,-5.508691524794697,7.826341860190033
1739919883570296800,10.827296875,3.974359558290243,-4.705082063025236,7.9342247272819275
1739919883580278500,10.837278564453126,3.758432496064901,-3.7928210878789423,8.000679605442285
1739919883590261800,10.84726171875,3.5430461165875196,-2.818343018272519,7.9170310158967965
1739919883600243500,10.857243408203125,3.2697499844551086,-1.6086147618114948,7.902779787704348
1739919883610226700,10.867226806640625,2.7176713977336884,-0.39359073702991004,7.742468814238905
1739919883620208600,10.877208740234375,2.063682588589191,0.5043219792902469,7.409362064266205
1739919883630190600,10.887190673828124,1.5093056617975233,1.153161150586605,7.16585550571978
1739919883640173600,10.897173583984374,0.9290333193141966,1.5617296765178441,6.8139926173508165
1739919883650155800,10.90715576171875,0.3361316507518291,1.7419839523375034,6.34767800489366
1739919883660138500,10.917138427734375,-0.19179566053152083,1.7589023539125919,5.902126194480061
1739919883670120700,10.92712060546875,-0.686531553896144,1.6973504453629253,5.463059654432535
1739919883680102700,10.9371025390625,-1.1452383947633207,1.565605056646466,5.043801392182708
1739919883690085600,10.947085693359375,-1.496764452393353,1.5618535951584576,4.735961185413599
1739919883700067800,10.95706787109375,-1.772466915015131,1.7290075663864612,4.56987922733128
1739919883710050600,10.967050537109374,-2.0749039475664497,2.001593212161958,4.427914642417431
1739919883720032800,10.97703271484375,-2.379516132199764,2.2978733295187355,4.126032467269897
1739919883730015700,10.987015625,-2.53652894090265,2.596015149094164,3.736970605841279
1739919883739997700,10.996997802734375,-2.598118843375146,3.028644934092462,3.562146538376808
1739919883749979600,11.006979736328125,-2.4862480756908654,3.4839790105909105,3.262302591058612
1739919883759962600,11.016962646484375,-2.1665759768307207,3.8945863488733767,2.848599040326476
1739919883769944600,11.026944580078125,-1.8726272250309586,4.401235894328355,2.655539058947563
1739919883779927800,11.036927734375,-1.8041387952163814,5.015587689611316,2.5888141316741704
1739919883789909500,11.046909423828126,-1.9670681344866752,5.63295152619183,2.506193131610751
1739919883799891700,11.0568916015625,-2.2273849580585954,6.298883871108293,2.5541262646526097
1739919883809874700,11.066874755859375,-2.5105603869095443,7.087125083354115,2.7266905704915523
1739919883819856600,11.076856689453125,-2.6924393413215872,8.016231979361176,2.8642198033064603
1739919883829839600,11.086839599609375,-2.773732015390694,8.991543577182293,2.9763924765467644
1739919883839821600,11.096821533203125,-2.75094910569638,9.993382531923055,2.960346766152978
1739919883849804500,11.106804443359374,-2.7354627827510236,11.020876152402161,2.905759435918927
1739919883859786800,11.116786865234374,-2.759365636385977,11.93840600786209,2.6924691519379613
1739919883869768700,11.126768798828126,-2.7403099305212497,12.59997840400338,2.2896686880141495
1739919883879751700,11.136751708984375,-2.629293149317801,13.168908756804466,1.8665186790227888
1739919883889733600,11.146733642578125,-2.4636852384880186,13.562627504128217,1.2848060015380383
1739919883899716600,11.156716552734375,-2.3367937195435164,13.670796786946058,0.5041892928212881
1739919883909698800,11.16669873046875,-2.191648458766937,13.552018431830405,-0.3532476207256317
1739919883919680500,11.176680419921874,-2.0959037732362744,13.281996206802129,-1.1532739633113145
1739919883929663700,11.186663818359374,-1.983756234437227,13.00103173199892,-1.8626620035946369
1739919883939645700,11.196645751953126,-1.80225780377537,12.78903733304739,-2.483831662198901
1739919883949628700,11.206628662109376,-1.6632172896146773,12.722495361125468,-3.0284961732715368
1739919883959610600,11.216610595703125,-1.5813846634499729,12.862642667484282,-3.3344524659901857
1739919883969593900,11.22659375,-1.5375956444755197,13.18148766787052,-3.3767192438334224
1739919883979575600,11.236575439453125,-1.502907485193014,13.613883059591053,-3.363879636004567
1739919883989557800,11.246557861328125,-1.47717800065279,13.937304866373537,-3.6227936070412396
1739919883999540500,11.25654052734375,-1.486132729872316,13.869519031870365,-4.261808718937635
1739919884009522700,11.266522705078126,-1.4191244556128977,13.47826813596487,-5.137873176065087
1739919884019505700,11.276505615234376,-1.384949798810482,12.925267173701524,-5.994168518361449
1739919884029487600,11.286487548828125,-1.4642062908768654,12.316940045535564,-6.700005003643035
1739919884039469800,11.2964697265625,-1.6864076110661028,11.696304055416583,-6.978714392995834
1739919884049452800,11.306452880859375,-1.7744108886897563,11.1939904933393,-6.747882022583484
1739919884059434800,11.316434814453125,-1.5900900940835474,10.786701485824585,-6.168388190191984
1739919884069417700,11.326417724609374,-1.2869663944423197,10.741369475191831,-4.949403445085883
1739919884079399700,11.336399658203124,-1.0100129819113761,10.791369477635621,-3.3631273563325403
1739919884089381600,11.346381591796876,-0.7049111140649765,10.813319443637132,-1.616544385766983
1739919884099364900,11.35636474609375,-0.2934334226887673,10.899649819612502,-0.08408113574385642
1739919884109346600,11.3663466796875,0.2431143078258261,10.878905137747525,1.3261387134015559
1739919884119329800,11.376329833984375,0.6954349182546138,10.660948615521193,2.299902497258782
1739919884129311500,11.3863115234375,1.0685282992441207,10.20529275972247,2.784937592276931
1739919884139294700,11.396294677734375,1.4527319800518452,9.73439724921584,3.036804567411542
1739919884149276700,11.406276611328124,1.895590459728241,9.264349295449257,3.3770921687990425
1739919884159258600,11.416258544921876,2.481895141178369,8.709172742712497,3.895782865181565
1739919884169241600,11.42624169921875,2.945402294999361,7.979236419919133,4.42895976755619
1739919884179223800,11.436223876953125,3.079283526700735,7.099159804540872,4.5539942604571575
1739919884189206500,11.44620654296875,2.960450226527452,6.181127260255813,4.39464307193458
1739919884199188700,11.456188720703125,2.684886733984947,5.388479337483644,4.099686896657944
1739919884209170700,11.466170654296874,2.22045720462203,4.769955224952102,3.8753935726255175
1739919884219153700,11.476153564453124,1.6593148753486573,4.133761015695333,3.799658824944496
1739919884229136000,11.486135986328126,0.9983502358421683,3.307828662958741,3.928261823982
1739919884239118600,11.49611865234375,0.4781599485516548,2.3735899570211765,4.19272056966424
1739919884249100800,11.506100830078125,0.20476517835035918,1.3474784385502339,4.459280087018013
1739919884259083800,11.516083740234375,0.25675606235042214,0.42578970984518527,4.994107679209113
1739919884269065700,11.526065673828125,0.5486136870898306,-0.38162265133857726,5.366082796758413
1739919884279047700,11.536047607421875,0.7658171989917755,-0.9889297888070344,5.738499228334427
1739919884289030700,11.54603076171875,1.2010768941022456,-1.6313795513272284,5.920363861960173
1739919884299012600,11.5560126953125,1.5867233941294252,-2.2266075439453124,6.088101770555973
1739919884308995800,11.565995849609376,1.5887399946488439,-2.6699995459765193,6.406345882439613
1739919884318977500,11.5759775390625,1.3737934678934514,-3.1521424266844984,6.77347765161097
1739919884328959700,11.585959716796875,1.2724139913462102,-3.672804715400934,7.152781504613161
1739919884338942700,11.595942626953125,1.092978630694002,-3.894040989950299,7.421708335620164
1739919884348924700,11.605924560546875,0.8891383121035993,-3.957829279249906,7.7272104548305265
1739919884358907600,11.61590771484375,0.6498410418152809,-3.993242537936568,7.931587364515662
1739919884368889600,11.6258896484375,0.5859060375213623,-3.976336995843053,8.145624667471647
1739919884378872600,11.63587255859375,0.4731643322214484,-3.8121167399793863,8.526413206073642
1739919884388854800,11.645854736328126,0.1867532824501395,-3.73825538495481,9.0433392308712
1739919884398836700,11.655836669921875,-0.0779369339004159,-3.7703415450453757,9.59282546301186
1739919884408819500,11.6658193359375,-0.28742227264046666,-3.78489906270802,10.080945080041884
1739919884418801700,11.6758017578125,-0.635959523718059,-3.867999955242872,10.431436095535755
1739919884428784600,11.68578466796875,-0.9930170581206679,-4.020219392189383,10.672263790261745
1739919884438766600,11.6957666015625,-1.308075817966461,-4.2428035742163654,10.925565182113647
1739919884448748500,11.70574853515625,-1.4487437871985136,-4.613394543930888,11.217411116415262
1739919884458731800,11.715731689453126,-1.4162569373525677,-5.012251823186874,11.470893710052966
1739919884468713500,11.72571337890625,-1.2584371961809695,-5.177735815376043,11.879193940436839
1739919884478696700,11.73569677734375,-1.0093556139811872,-4.918178870260715,12.587356238317488
1739919884488678400,11.745678466796875,-0.9029322980478406,-4.570718016242981,13.289912971276044
1739919884498661600,11.75566162109375,-1.0180372253477572,-4.497309665682912,13.533286843353508
1739919884508643600,11.7656435546875,-1.2055796123489737,-4.892387426400185,13.271069154596328
1739919884518625500,11.77562548828125,-1.2868033128350973,-5.453642422267794,12.712950118666887
1739919884528608500,11.7856083984375,-1.346776720021665,-6.116034902620315,11.965117489176988
1739919884538590500,11.795590576171875,-1.2934367595002054,-7.023368942758441,11.149062971854208
1739919884548573400,11.805573486328125,-1.0600447677329181,-8.0013021212548,10.303294868791102
1739919884558556700,11.815556640625,-0.7357425248540937,-8.744947235926984,9.614583121311664
1739919884568538400,11.825538330078125,-0.3354536053597927,-8.994560879176854,9.282837722820043
1739919884578520600,11.8355205078125,0.18468787435293196,-8.4937191432178,9.36846550348401
1739919884588503600,11.845503662109374,0.6865538387931883,-7.370377376833558,9.720001644116639
1739919884598485500,11.855485595703126,0.992264340057224,-5.978691547766328,10.015710099065304
1739919884608468500,11.865468505859376,1.1560391902409493,-4.543261269518733,10.047468342375755
1739919884618450700,11.87545068359375,1.2174443837963045,-3.0675714615970846,10.000850383585691
1739919884628433400,11.885433349609375,1.3278968091152608,-1.678472141891718,9.777879248067736
1739919884638415600,11.89541552734375,1.328069827594608,-0.45451136193871494,9.352059727606177
1739919884648397600,11.9053974609375,1.0619956095397471,0.5528425568312406,8.73040959200859
1739919884658380500,11.915380615234374,0.6740061996482313,1.3587848454624414,7.972264827340841
1739919884668362500,11.925362548828126,0.2074817438326776,1.8943290614902972,7.110027820035815
1739919884678345500,11.935345458984376,-0.28710560790672895,2.073584389400482,6.193394621154666
1739919884688327400,11.945327392578125,-0.7124389522865414,2.0182319200128314,5.282921698468924
1739919884698309600,11.9553095703125,-0.8618633516870439,2.0161527756512165,4.572019161969423
1739919884708292600,11.965292724609375,-0.8935526214145123,2.1596084759056566,4.113563446319103
1739919884718274600,11.975274658203125,-0.9225662421919405,2.3829770863085984,3.7376387143611907
1739919884728257500,11.985257568359375,-1.0233471683241426,2.6103791900113222,3.37362770755887
1739919884738239500,11.995239501953124,-1.086709195035696,2.9046470907628534,3.015969869175553
1739919884748222500,12.005222412109376,-1.0690857139311731,3.253845728358626,2.66119547727406
1739919884758204400,12.015204345703125,-0.9893149887323379,3.6181276610568163,2.3472359108418224
1739919884768186600,12.0251865234375,-0.8406139351703226,3.9886595940604805,2.09744106580615
1739919884778169600,12.035169677734375,-0.6596832213938236,4.393550308261811,1.8825544525444506
1739919884788151600,12.045151611328125,-0.40386268632784483,4.830008711637556,1.5858581556022167
1739919884798134500,12.055134521484375,-0.21590134326219557,5.281410709384083,1.2732324681222438
1739919884808116500,12.065116455078124,-0.13456643748655914,5.760508231046796,1.0144944381743668
1739919884818099500,12.075099365234376,-0.1916623895406723,6.266061213436722,0.7972592159599066
1739919884828081700,12.08508154296875,-0.3057625237122178,6.779923759010433,0.5572697256237268
1739919884838063400,12.0950634765625,-0.4217706834621727,7.340297880390286,0.3205249162971973
1739919884848046600,12.105046630859375,-0.5520668962836265,7.874509386509656,0.12096563602685928
1739919884858028500,12.115028564453125,-0.7277974110685288,8.451540628179908,0.021758827343583104
1739919884868011500,12.125011474609375,-0.9254057034015655,9.008418724137544,0.05385960048139095
1739919884877993500,12.134993408203124,-1.1381684563770889,9.513592351821064,0.10143909777998923
1739919884887975400,12.144975341796876,-1.2568773995183407,9.90666870958805,0.009574468553066253
1739919884897958400,12.15495849609375,-1.2432746983624994,10.334493140131235,0.05257423684597015
1739919884907940600,12.164940673828125,-1.0794842122182249,10.761950490927696,0.0943821650058031
1739919884917923300,12.17492333984375,-0.9160628516472875,11.071063201850652,0.060139119142293924
1739919884927905500,12.184905517578125,-0.8134814519643783,11.296902586281298,-0.06864625072479248
1739919884937887500,12.194887451171875,-0.651163230329752,11.536383542573452,-0.244526549243927
1739919884947870500,12.204870361328124,-0.49881929022073745,11.820754610949754,-0.4632020333945751
1739919884957852700,12.214852783203124,-0.3994130134426057,11.983359248310327,-0.886702170997858
1739919884967835400,12.22483544921875,-0.6800551244236529,11.924073531126975,-1.3314952719986437
1739919884977817600,12.234817626953125,-1.129114942958206,11.848511217403411,-1.455254922658205
1739919884987800600,12.244800537109375,-1.3242029230333865,12.07192132886052,-1.1767314112663267
1739919884997782500,12.254782470703125,-1.2771956726647913,12.402571333330869,-1.0181599749445915
1739919885007764500,12.264764404296875,-1.1020752526022493,12.511920181322097,-1.2806722627341747
1739919885017747700,12.274747802734375,-0.9801812496840954,12.311027022099495,-1.8139771754026413
1739919885027729400,12.2847294921875,-1.0411375304281711,12.03680676085949,-2.574513803642988
1739919885037712600,12.294712646484374,-1.1339923397362233,11.743033073365687,-3.5662463749110698
1739919885047694300,12.3046943359375,-1.1852771212935447,11.373467939567565,-4.330127637404203
1739919885057677600,12.314677490234375,-1.2874047858595847,10.997128197067976,-4.911346393892169
1739919885067659500,12.324659423828125,-1.26932318572402,10.571478187954424,-5.369162642595172
1739919885077641500,12.334641357421875,-1.0622760339163244,10.061235001921654,-5.428522594058514
1739919885087624400,12.34462451171875,-0.7743219924867153,9.58323871949911,-4.863077160763741
1739919885097606700,12.354606689453124,-0.5310919127941132,9.255943870675564,-4.027825191017985
1739919885107589400,12.36458935546875,-0.28195114775300023,9.049350453984736,-3.070553107756376
1739919885117571600,12.374571533203126,0.02945391189083457,8.935856761273742,-2.139434287405014
1739919885127553500,12.384553466796875,0.39773777370676394,8.996168314373493,-1.2779367002904414
1739919885137536500,12.39453662109375,0.6289734642229974,9.092907856160402,-0.5325128855079412
1739919885147518700,12.404518798828125,0.6109386258386075,9.118959412261843,0.11332067423164843
1739919885157501400,12.41450146484375,0.4121627510309219,9.066645872178674,0.6871674406468868
1739919885167483600,12.424483642578124,0.1699490087740123,8.913250377190112,1.1886311078965663
1739919885177466600,12.434466552734374,-0.04967135501131415,8.57318957029581,1.5860142229467629
1739919885187448600,12.444448486328126,-0.2053552531979978,8.07500974702239,1.9594301869541406
1739919885197430500,12.454430419921875,-0.28447599005550145,7.42833856741488,2.2337504014372827
1739919885207413500,12.46441357421875,-0.35949469842165704,6.599907968121767,2.374803716725111
1739919885217395500,12.4743955078125,-0.3686738840468228,5.7296215098738665,2.446408817255497
1739919885227378700,12.484378662109375,-0.32772388789057727,4.842724108564854,2.644267138826847
1739919885237360400,12.4943603515625,-0.11334931580424308,3.9380882214695214,2.9181080453604458
1739919885247342600,12.504342529296874,0.08087123378664254,3.101323509073257,3.010488807415962
1739919885257325600,12.51432568359375,0.16057678479477763,2.3900568154364823,3.0491052460581063
1739919885267307500,12.5243076171875,0.18482479860559103,1.868118807695806,3.1730057664930817
1739919885277290500,12.53429052734375,0.07263371292576193,1.5370917866066098,3.1987749985218046
1739919885287272400,12.5442724609375,0.07013327441215515,1.1524980105027556,3.2766479272752997
1739919885297255400,12.55425537109375,0.20256123856529593,0.6719938369125127,3.4957986277222632
1739919885307237600,12.564237548828125,0.41523265999555586,0.12211305249631405,3.6536721449077127
1739919885317219600,12.574219482421874,0.6745173640407621,-0.4363414989978075,3.7775054453253745
1739919885327202600,12.58420263671875,0.8376584463655948,-0.9107973323345184,3.9529239715516566
1739919885337184500,12.5941845703125,0.8578349729537963,-1.3482956001520157,4.118107519489526
1739919885347167500,12.60416748046875,0.7411585585534572,-1.7645377294510602,4.3637879149436944
1739919885357149700,12.614149658203125,0.5649181214850395,-2.161723276102543,4.840003159168362
1739919885367131400,12.62413134765625,0.42033904322385784,-2.421752514904737,5.415853666621446
1739919885377114600,12.634114501953125,0.30144845990538593,-2.625321615338325,6.093163730120659
1739919885387096600,12.6440966796875,0.3897369111459702,-2.7713474583417175,6.8616182918787
1739919885397079600,12.65407958984375,0.5603191032569855,-2.9394746585160494,7.438572376659512
1739919885407061500,12.6640615234375,0.7221463995695113,-3.1661902412593363,7.7468720176339145
1739919885417044700,12.674044677734376,0.9047568831264973,-3.2755688998669386,8.0387933552593
1739919885427026400,12.6840263671875,0.9727354637227952,-3.3855338339298964,8.323215861561893
1739919885437008600,12.694008544921875,0.9516284513514488,-3.639906069883704,8.568814423951506
1739919885446991400,12.703991455078125,1.126504614329338,-3.749076054176688,9.0026062384665
1739919885456973600,12.7139736328125,1.2670669312298297,-3.7338533506035803,9.530194527053833
1739919885466956500,12.72395654296875,1.2887969708703457,-3.809493405738473,10.01862569425106
1739919885476938500,12.7339384765625,1.3156266717374323,-4.093844600370526,10.349247641670702
