time,seconds_elapsed,z,y,x
1739983190156133000,0.070133056640625,4.142817013332247,1.5227201469048857,0.8874570810183883
1739983190166115000,0.080114990234375,4.344201755464077,1.3074080017074943,0.8570417767494917
1739983190176097300,0.09009716796875,3.8499540109425783,0.9167728996127843,1.3535720792502164
1739983190186080300,0.100080322265625,1.9105536355823278,0.4642208550482988,0.5957306814432144
1739983190196062200,0.110062255859375,-0.40361587195992465,-0.1749871490716934,0.29616642784923314
1739983190206044200,0.120044189453125,-0.9678379009395838,-0.13498451676815748,1.1647273774787783
1739983190216026000,0.130026123046875,-1.1494634651124476,0.5717226138681173,1.7060115984633564
1739983190226008000,0.140008056640625,-1.5485504614710808,1.1177443847686053,1.9706500846266746
1739983190235990000,0.149989990234375,-1.9569260951787233,1.0649503676921128,1.7797519574567675
1739983190245973000,0.159972900390625,-2.7580618603110314,0.3851230606749654,-0.29525983439832926
1739983190255955200,0.169955078125,-1.5787725812554358,-0.3001438070476055,-2.411763912592828
1739983190265937200,0.179937255859375,1.3378998783439398,-0.2378188682988286,-3.141813340371847
1739983190275919000,0.189919189453125,3.461417050170898,0.14300357257276772,-4.023865055215358
1739983190285901000,0.199901123046875,3.279560599851608,1.5928405618354677,-1.970861973811686
1739983190295883300,0.20988330078125,2.218570367962122,3.4847426884397863,0.8918930176392197
1739983190305866200,0.2198662109375,1.7871242397904394,4.274889442045986,2.156164472931623
1739983190315848200,0.22984814453125,1.8604408204138279,4.718149634391069,3.013646686924994
1739983190325830100,0.239830078125,1.9429075066983699,5.321171641886234,2.973941576263308
1739983190335812000,0.24981201171875,2.0852023464798926,5.775712229919433,3.651410629716515
1739983190345794300,0.259794189453125,2.838115640234947,5.955068095594644,2.867275099223852
1739983190355776000,0.26977587890625,3.617057693737745,5.604667680993676,1.5191501794636249
1739983190365759200,0.27975927734375,4.366162242859602,5.070155730623006,0.7818418665975332
1739983190375741200,0.2897412109375,4.575916753929853,4.089832734380662,0.029825813943147657
1739983190385723100,0.29972314453125,3.581106090390682,3.2670220207959413,-1.2309884866327048
1739983190395705300,0.309705322265625,3.245274883890152,3.5198411820888515,-2.1676713708519935
1739983190405687000,0.31968701171875,3.6181647781968116,4.650959427693486,-1.6412550486534834
1739983190415669200,0.329669189453125,3.9471401274532076,5.363731849718094,-0.6029518648684025
1739983190425652000,0.33965185546875,3.796376150012016,5.393928250539303,-0.3786234695225954
1739983190435634200,0.34963427734375,3.2430595459282396,5.213785618400573,-0.17263678655326364
1739983190445616000,0.3596162109375,2.7449334986686704,5.115595293283462,-0.20634207227826118
1739983190455598000,0.36959814453125,2.7892034330278634,5.411437019222975,-0.7715630491673946
1739983190465580300,0.379580322265625,3.069872724276781,5.543437259483337,-0.8304828556478023
1739983190475563000,0.38956298828125,3.197980048751831,5.505189654153585,-1.6266671358525753
1739983190485545200,0.399545166015625,2.909940520995855,5.057907074424624,-3.2118232806652784
1739983190495527000,0.40952685546875,2.8273610219866034,5.12968110178113,-4.147811752879619
1739983190505509000,0.419509033203125,3.0450328820526598,6.5846449325382705,-3.3518419922083615
1739983190515491000,0.429490966796875,2.644699685025215,6.868554228621721,-2.0903455545872447
1739983190525473000,0.43947314453125,1.5663596744060515,6.112610188868642,-1.2479507273495196
1739983190535456300,0.449456298828125,0.33694588974416256,5.859356143289804,0.0033668460845947264
1739983190545438000,0.45943798828125,-0.9200742792457342,6.4175792241156095,1.1762965269804
1739983190555420200,0.469420166015625,-1.9700795912623403,7.187832944250107,2.565473003575206
1739983190565402000,0.479402099609375,-2.5480571738719937,7.438532629171013,3.8269256020545956
1739983190575384000,0.489384033203125,-2.9429949415966865,6.476203262519836,3.889317468559742
1739983190585366000,0.499365966796875,-3.1553228102862834,5.218482251784205,3.6089538822591303
1739983190595349000,0.509348876953125,-3.1837679835259913,4.704996138307452,4.28220210314691
1739983190605331200,0.519331298828125,-3.5973937928467987,4.395926097482443,6.784643773269653
1739983190615313200,0.529313232421875,-4.065927834919095,3.9652889476060866,9.814849673068522
1739983190625295000,0.539295166015625,-4.132752130913734,3.3492610358044503,11.679140154647827
1739983190635277000,0.549277099609375,-4.063949228322506,2.4893203227430583,12.218275088644027
1739983190645260000,0.559260009765625,-3.860774680164456,1.4711281990945337,11.991435002738237
1739983190655242200,0.5692421875,-3.6396383588582277,0.7290168698608875,11.484925742536783
1739983190665224200,0.57922412109375,-3.5764065343976017,0.22359978881031273,11.147350322717427
1739983190675206100,0.5892060546875,-3.9222336497336623,-0.33681028066575525,11.237339805722236
1739983190685188000,0.59918798828125,-4.543959188655019,-1.0062550176173448,11.694884836268423
1739983190695170000,0.609170166015625,-5.199383583560586,-1.4316916762411593,13.174555238258838
1739983190705153300,0.6191533203125,-5.801740405145287,-1.9759540362536907,14.60198925705552
1739983190715135000,0.629135009765625,-6.280404796087741,-2.7909166666865346,15.324793828272819
1739983190725117200,0.6391171875,-6.395500078776478,-3.9092940886616705,15.042605364632605
1739983190735099100,0.64909912109375,-6.078519118696451,-5.009619136595726,13.874419663393496
1739983190745081000,0.6590810546875,-5.559239224249124,-5.944692247530818,12.476903812998533
1739983190755064000,0.66906396484375,-5.022378080403804,-6.994309437012672,10.235286915969848
1739983190765046000,0.6790458984375,-4.315524527034163,-8.252152028301358,7.897278267678618
1739983190775028200,0.6890283203125,-3.619627251964807,-9.315233094990253,6.330300753635168
1739983190785010200,0.69901025390625,-2.873170587003231,-9.837323370683192,5.966573824471235
1739983190794992000,0.7089921875,-2.030793879944086,-9.653973466935753,6.468572913771867
1739983190804974000,0.71897412109375,-1.6619792722523212,-9.36882147731483,7.030103803971409
1739983190814957000,0.72895703125,-1.38640818092525,-9.291543591845034,7.398719089698791
1739983190824939000,0.73893896484375,-0.9739216778326779,-9.215336550477147,6.856895355010033
1739983190834921200,0.748921142578125,-0.6171002172082662,-8.968419891226292,5.864741927981377
1739983190844903200,0.758903076171875,-0.2522949912883341,-8.452461250156164,5.219113535425067
1739983190854885000,0.768885009765625,0.07443535552024841,-7.865907562381029,4.84970622253716
1739983190864868000,0.7788681640625,0.3461410035908222,-7.4224033321470015,4.396624016618729
1739983190874850000,0.78885009765625,0.6769986594624817,-7.125723986339569,3.9379713170915838
1739983190884832300,0.798832275390625,0.9902842721559106,-6.897737653008103,3.6531519204258918
1739983190894814000,0.80881396484375,1.4762947880774735,-6.7077826519072055,3.4291759917795654
1739983190904796200,0.818796142578125,0.9451736491888761,-6.839640853348374,3.3919916317671537
1739983190914778000,0.828778076171875,0.9435299736350774,-6.91042470062375,2.9224206478625536
1739983190924761000,0.838760986328125,1.2232606688596308,-6.575655570396781,2.6780279541313647
1739983190934743000,0.848742919921875,1.0349472974859177,-6.075998660308122,2.161403542628884
1739983190944725000,0.85872509765625,0.613711743813753,-5.573240861594677,1.8698446085751055
1739983190954707200,0.868707275390625,0.1389116270840168,-5.114942382332682,1.6282149498164653
1739983190964689000,0.87868896484375,-0.33963702852427957,-4.683299854806065,1.2162030054330826
1739983190974672100,0.888672119140625,-0.7431009247928857,-4.211254589742422,0.8246656938016415
1739983190984654000,0.898654052734375,-1.0851814009465277,-3.812973064547777,0.6687345428556204
1739983190994636000,0.908635986328125,-1.468813492411375,-3.4494396121293303,1.4218278693526982
1739983191004618200,0.9186181640625,-1.4298527703762054,-2.942203791218996,1.8735387869179247
1739983191014600000,0.928599853515625,-1.2765046216607092,-2.5176620356082915,1.792576659977436
1739983191024582100,0.93858203125,-1.0790297464489935,-2.0784271532565355,1.6540075627207755
1739983191034565000,0.948565185546875,-0.8228770568192004,-1.448996154524386,1.7755641503781079
1739983191044547000,0.958547119140625,-0.4784861117660999,-0.6703133364796638,1.8296394394367932
1739983191054529300,0.968529296875,-0.15163901584320702,0.027697862003743648,1.8199620950311421
1739983191064511000,0.978510986328125,0.05086509484052658,0.7375342305764555,1.8862100524425505
1739983191074493200,0.9884931640625,-0.004150032351538538,1.217033611038327,1.703843314513564
1739983191084476200,0.99847607421875,-0.10863222415447235,1.4052183875963091,1.6157020897239445
1739983191094458000,1.0084580078125,-0.2575473588585853,1.5112429134704173,1.8557301585048436
1739983191104440300,1.0184404296875,-0.26640271935686466,1.8703291772216557,2.3639649273246524
1739983191114422000,1.028422119140625,-0.1769838758468628,2.286994938760251,2.7021394820809364
1739983191124404200,1.038404296875,-0.2666005800165236,2.6657024333044883,2.94456467513144
1739983191134387000,1.048386962890625,-0.3000526216328144,3.0802029796332118,3.249583979260921
1739983191144369200,1.058369140625,-0.2111583865188062,3.4919594879508016,3.236217717209458
1739983191154351400,1.068351318359375,-0.21157836549654602,3.9936590097829696,3.2198160329848524
1739983191164333000,1.0783330078125,-0.5054055367432534,4.588165410128235,3.2132401617258783
1739983191174315300,1.088315185546875,-1.0236731854081154,5.0973073569208385,3.1698955255180596
1739983191184297000,1.098296875,-1.6440283127591013,5.475250442963838,3.2469974698990582
1739983191194280200,1.1082802734375,-2.118105960433185,5.99287847855091,3.469181254431605
1739983191204262100,1.11826220703125,-2.546579502534866,6.793820766937732,3.9101381382703777
1739983191214244000,1.128244140625,-2.9126921577915548,7.3717451580554245,4.314260790708661
1739983191224226300,1.138226318359375,-2.9759517470419405,8.048364316681027,4.251069882780313
1739983191234208000,1.1482080078125,-2.8697862052619456,8.976918839502334,4.066206651860475
1739983191244191200,1.158191162109375,-2.6193010398745535,9.678812724637984,3.5603386121720075
1739983191254173000,1.1681728515625,-2.6384824179455637,9.681977326148747,2.486356796762347
1739983191264155100,1.178155029296875,-2.943100447797775,9.083041126662492,0.9514455690652132
1739983191274137000,1.18813720703125,-3.2549346926391123,8.517644208684564,-0.276720261362195
1739983191284119000,1.198119140625,-3.413162430089712,8.154317677015065,-0.9891215119868516
1739983191294101200,1.208101318359375,-3.4772684070363638,7.908587597200274,-1.6461059958159923
1739983191304084000,1.218083984375,-3.563593814575672,7.442166601759195,-2.0779513524383306
1739983191314066200,1.228066162109375,-3.5541914877191183,6.880531082141399,-2.1271552360683676
1739983191324048100,1.238048095703125,-3.2222403375223276,6.440436952611804,-1.7291250552862882
1739983191334030000,1.248030029296875,-2.7130361391484734,6.2188090483963485,-1.0013444492220878
1739983191344012000,1.258011962890625,-2.3372904170192776,6.0487687080770725,-0.37384967924952506
1739983191353995000,1.2679951171875,-2.0856606116414067,5.869090770840645,0.03996434611976146
1739983191363977200,1.277977294921875,-1.9406280174590647,5.658348417776823,0.4299263712584972
1739983191373959200,1.287959228515625,-1.7836533488094806,5.31603194091022,0.6420359210222959
1739983191383941000,1.297941162109375,-1.4810348222114145,4.952177001452446,0.4498346022993326
1739983191393923000,1.307923095703125,-1.1443991674602032,4.686251982609927,0.02566168000102043
1739983191403906000,1.317906005859375,-0.9057577307321131,4.45850150386095,-0.5943564704805612
1739983191413888300,1.32788818359375,-0.6887493030108511,4.17957174975574,-1.4028513662040232
1739983191423870200,1.3378701171875,-0.5829973104678094,3.8707472081243988,-2.222003265020251
1739983191433852200,1.34785205078125,-0.5122621246397495,3.4850334880799054,-2.910046903979778
1739983191443834000,1.357834228515625,-0.43494858333468434,3.0718723736613986,-3.425598133292794
1739983191453816000,1.367816162109375,-0.41156215478926894,2.701789353469014,-3.9138387463539837
1739983191463799300,1.37779931640625,-0.3721101421058178,2.3662013080745936,-4.285119451898336
1739983191473781000,1.387781005859375,-0.2716482187949121,2.1667321903057397,-4.432869049954414
1739983191483763200,1.39776318359375,-0.10087335365600883,2.0114175638228655,-4.419334445598722
1739983191493745200,1.4077451171875,0.09464110820293425,1.7997332537338138,-4.548124491640925
1739983191503726800,1.417726806640625,0.17111644511818885,1.6259778384141623,-4.737866726773977
1739983191513709600,1.42770947265625,0.20231705454587937,1.5411631276987492,-4.992612472215295
1739983191523691800,1.43769189453125,0.3153191643476486,1.4314027762971817,-5.107682035940885
1739983191533673500,1.447673583984375,0.5299719688534736,1.2681409902021288,-5.067093420442938
1739983191543655700,1.45765576171875,0.8677437880277633,1.1771030941229312,-4.76801987297535
1739983191553637600,1.4676376953125,1.328559218546748,1.0547017992697656,-4.646645656147599
1739983191563620600,1.47762060546875,1.8057699035495518,0.812057629706338,-5.000801623889804
1739983191573602600,1.4876025390625,2.148964332294464,0.5723717984918505,-5.338390487712622
1739983191583584500,1.49758447265625,2.3899095159202814,0.6240900760956108,-5.348984362441301
1739983191593566700,1.507566650390625,2.4625427904546258,0.849403463890776,-4.929288293296098
1739983191603548400,1.51754833984375,2.287713462293148,0.9448081768773495,-4.3917152017891405
1739983191613531600,1.52753173828125,2.056141087168455,0.8273030565679073,-3.837590788453817
1739983191623513600,1.537513671875,1.7923627249658107,0.5796034302458166,-3.2291186988592147
1739983191633495600,1.54749560546875,1.553972340389341,0.41571079890131946,-2.5195956340193746
1739983191643477800,1.557477783203125,1.5469763440221547,0.3970122359111905,-1.563665613016486
1739983191653459500,1.56745947265625,1.6737046352289615,0.5141046837665141,-0.1549228506863117
1739983191663442700,1.577442626953125,1.8487977288931607,0.7419863876797258,1.5534470013409851
1739983191673424600,1.587424560546875,2.1041947778500614,0.5158265391230583,3.3299767818808554
1739983191683406600,1.597406494140625,2.3821515952698884,0.3888064253628254,4.717105093774199
1739983191693388800,1.607388916015625,2.4087450031630695,0.66447367054075,5.8950382820457214
1739983191703370500,1.61737060546875,1.9850538730323313,0.4914221657067537,6.846010972902178
1739983191713352700,1.627352783203125,1.3724768323369323,0.43669630378484725,7.87181766320765
1739983191723335700,1.637335693359375,0.9983524277992546,0.3229457137033343,7.767888502177596
1739983191733317600,1.647317626953125,0.47289004532471296,-0.07093845331519842,7.473280701947211
1739983191743299800,1.6572998046875,-0.18036869597956537,-0.5596876004204153,7.606779656332731
1739983191753281500,1.667281494140625,-1.034572765085101,-0.8190989995852113,8.217265423837304
1739983191763263700,1.677263671875,-2.197202585762739,-0.9547650688767433,9.118283120435477
1739983191773246500,1.68724658203125,-3.6841146294444798,-1.2252744929000734,10.031982019430398
1739983191783228700,1.697228759765625,-5.249999672076106,-1.5210498756051063,11.315357111382484
1739983191793210600,1.707210693359375,-6.9512792735815045,-2.346697566181421,12.258845583963394
1739983191803192600,1.717192626953125,-8.578346222406624,-3.6637142309725284,12.182810976552963
1739983191813174800,1.7271748046875,-10.041457119262217,-4.8108822786241765,11.348927372550964
1739983191823157500,1.737157470703125,-10.964036074805259,-5.987908288922905,10.436268922519684
1739983191833139700,1.7471396484375,-10.650324345654248,-7.046859123939275,9.762894444903731
1739983191843121400,1.757121337890625,-9.447516243845223,-7.45661247574091,8.823945953840017
1739983191853103600,1.767103515625,-7.677405682697891,-6.693498105967045,8.185241807588934
1739983191863085600,1.77708544921875,-5.716815219792723,-5.322304445308447,8.012110515516996
1739983191873068500,1.787068603515625,-4.135435086387395,-4.108471676138043,7.6133227943658826
1739983191883050800,1.79705078125,-3.0585096187412737,-3.248034996253252,6.9189254024654625
1739983191893032400,1.807032470703125,-2.5679215657711025,-2.8339707955151794,6.406522992572188
1739983191903014700,1.8170146484375,-2.418161212414503,-2.705909063747525,6.346009779420495
1739983191912996600,1.82699658203125,-2.095378872579336,-2.360084871020913,5.966050092858076
1739983191922979600,1.8369794921875,-1.7460720984339713,-1.9279419927567243,4.7261879794180395
1739983191932961800,1.8469619140625,-1.6649463053643703,-1.9607675730377434,2.713659824004769
1739983191942943500,1.856943603515625,-1.6734125204145907,-2.4789967893883587,0.5276140075504779
1739983191952925700,1.86692578125,-1.8352467579245566,-3.1045781269550323,-1.0975696117460727
1739983191962907600,1.87690771484375,-2.209131508487463,-3.7040740061506625,-2.123994141688943
1739983191972890600,1.886890625,-2.8110370791733263,-4.396775700049102,-2.7629320966959
1739983191982872800,1.896872802734375,-3.7358360488533973,-5.233220971232653,-2.7280793945014477
1739983191992854500,1.9068544921875,-4.783976151520013,-6.272189925450086,-2.824801400631666
1739983192002836700,1.916836669921875,-5.649708015203475,-7.075574346292019,-2.3258757274270057
1739983192012818700,1.926818603515625,-6.309338629627227,-7.597436658447981,-1.7533277686506508
1739983192022801700,1.9368017578125,-6.614284868520498,-7.839140551486611,-1.0564718776822088
1739983192032783600,1.94678369140625,-6.707701403364538,-7.7180480742096895,-0.7249310618519783
1739983192042765600,1.956765625,-6.4550803949922315,-7.29484136659503,-1.0371697958409785
1739983192052747800,1.966747802734375,-5.664820244139433,-6.524557251322269,-1.3414718916118145
1739983192062729500,1.9767294921875,-4.590790497934818,-5.242919358426332,-1.263621759212017
1739983192072712700,1.986712646484375,-3.613205109962821,-3.6243694780558346,-0.3301934928745031
1739983192082694700,1.996694580078125,-2.6105846494555474,-2.111827464685589,0.4490718012332916
1739983192092676600,2.006676513671875,-1.6062052164517342,-0.6750928258411586,0.8023626765787601
1739983192102658600,2.016658447265625,-0.8254451537415385,0.9255921658843755,1.076520393976569
1739983192112640500,2.026640625,-0.3868453544229269,2.6064047334223983,1.5103466952830553
1739983192122623700,2.036623779296875,-0.25322014330923553,4.279712624418735,2.171695219540596
1739983192132605400,2.04660546875,-0.3958206880390644,5.997969664210081,3.174693281188607
1739983192142587600,2.056587646484375,-0.5126327115178108,7.94216545715332,4.565000223118067
1739983192152569600,2.066569580078125,-0.6120803066870197,10.062518611991404,6.0386652472138405
1739983192162551600,2.076551513671875,-0.6972779157727956,11.933782439714669,6.814659556826949
1739983192172534800,2.08653466796875,-0.6730337013542652,13.323353468585013,7.140844983103871
1739983192182516500,2.0965166015625,-0.6308347280502319,14.195657696396111,6.660598875927925
1739983192192498700,2.106498779296875,-0.49368484994173045,14.715323375290632,5.339322215604782
1739983192202480600,2.116480712890625,-0.4333166712839156,14.724350731354951,3.2502380592554805
1739983192212462600,2.126462646484375,-0.6789374455053359,14.188473922371864,0.7413245627701283
1739983192222445800,2.13644580078125,-1.1415420975286512,13.206862932145595,-1.5576292554616926
1739983192232427500,2.146427490234375,-1.636728072748333,12.008326516306399,-2.893336592197418
1739983192242409700,2.15640966796875,-2.2798551500082014,11.369275748574733,-2.726852483054995
1739983192252391700,2.1663916015625,-2.6879917142629624,11.166600966632366,-1.6737135491877793
1739983192262373600,2.17637353515625,-2.5397651463449,10.821651218652725,-0.28658173016309735
1739983192272356600,2.186356689453125,-1.8680232383668423,10.367945327877997,0.9609288522034883
1739983192282338600,2.196338623046875,-0.9155764563698321,10.29522495958209,1.9928625009566545
1739983192292320800,2.20632080078125,0.20943185498714445,10.693823295640945,2.7449130404025315
1739983192302302700,2.216302734375,1.098760867357254,11.073464417773485,2.9396441698640583
1739983192312284700,2.22628466796875,1.7059915785886346,11.033524037051201,2.3880232637822627
1739983192322267600,2.236267578125,2.0335960778832436,10.656769284009933,1.4107985258162021
1739983192332249600,2.24624951171875,2.1154000624753535,10.18964744682312,0.17731939141154288
1739983192342231600,2.2562314453125,2.042142956954241,9.718654905682802,-0.8304524605095386
1739983192352213500,2.266213623046875,1.7685820364058016,9.321987245425582,-1.3626070340991019
1739983192362195700,2.27619580078125,1.2139454357646404,8.692565306782722,-1.5913053150922059
1739983192372178400,2.286178466796875,0.5524842449128627,7.978827254596352,-1.5828034442067145
1739983192382160600,2.29616064453125,-0.1566976052738726,7.401666249066591,-1.299416710692644
1739983192392142600,2.306142578125,-0.6889864727675914,6.872755771964788,-0.8860434148281812
1739983192402124500,2.31612451171875,-0.9530418983459472,6.523770484858751,-0.27331074517965315
1739983192412106500,2.3261064453125,-0.9655087273396551,6.318959859931469,0.27310148634314535
1739983192422089500,2.33608935546875,-0.8786167719587683,6.224670049384236,0.6394336295694112
1739983192432071700,2.34607177734375,-0.9288136121489107,6.038724868446588,0.7242740592479705
1739983192442053600,2.3560537109375,-1.0903028356134892,5.756327145969867,0.8196744613856076
1739983192452035600,2.36603564453125,-1.239445641593635,5.53679241464138,1.1630302181720733
1739983192462018800,2.376018798828125,-1.480141526633501,5.447607233756781,1.2695213386446236
1739983192472000500,2.38600048828125,-1.7981331250607966,5.289909657660126,1.2028566171258688
1739983192481982700,2.395982666015625,-2.2521578725263476,4.941996383699775,1.2220260124981404
1739983192491964700,2.405964599609375,-2.5843267571270463,4.464688668063283,0.9953542688965796
1739983192501947400,2.415947509765625,-2.7019877986505625,3.870413446125388,0.5644768805235624
1739983192511930400,2.425930419921875,-2.577119602227211,3.3021471101909876,0.38003742797374723
1739983192521912600,2.43591259765625,-2.2451554464183747,2.698342427885532,0.4439321002572775
1739983192531894500,2.44589453125,-1.6857131990611551,1.8557159838490187,0.40862580907642837
1739983192541876500,2.45587646484375,-0.9183737589381634,1.0529220762461424,0.17911971883177757
1739983192551858400,2.4658583984375,-0.28955943079963326,0.6138548055462539,-0.027805706292390823
1739983192561841400,2.47584130859375,-0.022051599745079874,0.3269789147421717,0.1502390767842531
1739983192571823600,2.48582373046875,-0.04241641544699669,0.024605448946356773,0.40883740600049495
1739983192581805600,2.4958056640625,-0.2683727042555809,-0.3433089950352907,1.028120227944851
1739983192591787500,2.50578759765625,-0.5808744730949401,-0.6785442814692855,1.9044120640873907
1739983192601769500,2.51576953125,-0.8573182556033134,-1.0935215053990484,2.664454186809063
1739983192611752400,2.52575244140625,-1.059375782430172,-1.7140362072259188,3.7388825769424434
1739983192621734700,2.535734619140625,-1.1275333728551864,-2.213444403250515,4.617099243667721
1739983192631715600,2.545715576171875,-1.2607225306391716,-2.38081084818542,4.995167417395114
1739983192641698600,2.555698486328125,-1.62130107877478,-2.4019062431842086,4.979131059351563
1739983192651680500,2.565680419921875,-2.175010627698898,-2.3914456394463777,4.785412906324863
1739983192661662500,2.575662353515625,-2.9813866315722466,-2.4352286670714616,4.895933136183023
1739983192671644400,2.58564453125,-3.9357846207022664,-2.783458167374134,5.393739449968934
1739983192681626600,2.595626708984375,-4.7753111990273,-3.3610458738833664,6.098268359783291
1739983192691609600,2.605609619140625,-5.270855997622013,-3.609937048077583,6.869839007735252
1739983192701591600,2.615591552734375,-5.611836257448792,-3.650587038373947,7.393257317161559
1739983192711573500,2.625573486328125,-6.0604573923051355,-3.8402497785300014,7.87345724710822
1739983192721555500,2.635555419921875,-6.559029429766535,-4.461152310630679,8.269054063263535
1739983192731537700,2.64553759765625,-6.8322998429358,-5.3196296731412405,8.611957984629273
1739983192741520400,2.655520263671875,-6.779578306573629,-5.887148405578732,9.047080755487084
1739983192751502600,2.665502685546875,-6.747352445751428,-6.234350316399335,9.691273562282323
1739983192761484300,2.675484375,-6.814070943284034,-6.765930889493227,9.94637411251068
1739983192771466500,2.685466552734375,-6.855410669410229,-7.432978502175211,10.362008923566341
1739983192781449500,2.695449462890625,-6.591881313532591,-7.629919708901643,10.794787761646509
1739983192791431400,2.705431396484375,-6.130511171740293,-7.4265113519877195,11.262150421851873
1739983192801413600,2.71541357421875,-5.696423004627228,-7.324807465791702,11.992579496598243
1739983192811395300,2.725395263671875,-5.1869361899197095,-7.399032977953553,12.56253042461872
1739983192821377500,2.73537744140625,-4.560204513274133,-7.441155378890037,12.509711857622861
1739983192831360500,2.745360595703125,-4.161133883528411,-7.591127913692593,12.028810501408577
1739983192841342500,2.755342529296875,-3.879734524439275,-7.848371321168542,11.506722563803196
1739983192851324700,2.76532470703125,-3.622924832205474,-8.26042827373743,10.895864455854893
1739983192861306400,2.775306396484375,-4.273473730029165,-8.542802615338564,9.57676806218028
1739983192871288600,2.78528857421875,-4.18967988679409,-8.6045602755934,9.296742329531908
1739983192881271600,2.795271484375,-4.384738348513841,-7.916698422941565,8.996782646879554
1739983192891253500,2.80525341796875,-4.551387877351045,-6.772423174121975,9.330584393379091
1739983192901235500,2.8152353515625,-4.500459654146432,-5.546230689594149,9.889747969925404
1739983192911217400,2.825217529296875,-3.994665848737955,-4.234997868901491,10.212059185117482
1739983192921200600,2.83520068359375,-2.9257553452432155,-2.9127281058877705,10.453776522159576
1739983192931182300,2.845182373046875,-2.4134815301656722,-1.3731862957805394,10.170803630143403
1739983192941164500,2.85516455078125,-1.947267017082125,0.0859685569256544,10.139978283768892
1739983192951146500,2.865146484375,-1.7545723618842661,1.3687363306343554,9.955686715257167
1739983192961128400,2.87512841796875,-1.8512252483010292,2.523724112126231,9.54601695008576
1739983192971111400,2.885111328125,-2.0521382812678812,3.30735490796715,9.024435208436847
1739983192981093400,2.89509326171875,-2.3517117410816253,3.661942545124888,7.99533649084866
1739983192991075600,2.90507568359375,-2.664762814366817,3.549528172083199,6.552178248697519
1739983193001057300,2.915057373046875,-2.837305492895841,3.19830825779289,5.100777078858018
1739983193011039500,2.92503955078125,-2.7063258278548714,3.0302886096462607,4.210011311683059
1739983193021022500,2.9350224609375,-2.344730065500736,3.102317488546669,3.765806239703297
1739983193031004400,2.94500439453125,-1.8665572574675082,3.208151314154267,3.4932390063673258
1739983193040986600,2.954986572265625,-1.4278478602945803,3.366017232555151,3.0924896297544238
1739983193050968300,2.96496826171875,-1.1058720876019448,3.6079981889694928,2.852822795501351
1739983193060951600,2.97495166015625,-1.0203693946223706,4.006439873161912,2.795929526412487
1739983193070933500,2.98493359375,-1.1392482875030487,4.399477652484178,2.540960493609309
1739983193080915500,2.99491552734375,-1.3225439037799835,4.849223991978168,2.3775205744683743
1739983193090897700,3.004897705078125,-1.5768179400563238,5.374478284659982,2.1696464703172444
1739983193100879400,3.01487939453125,-1.8472130900502204,5.846355207419395,1.9467694428235292
1739983193110862600,3.024862548828125,-1.9874515818238256,6.346672627243399,1.8405086239755153
1739983193120844500,3.034844482421875,-2.0740391474306583,6.890774828258157,1.8682523709475993
1739983193130826500,3.044826416015625,-2.0367665246129034,7.633729038056731,2.0169044708013533
1739983193140808700,3.05480859375,-1.8767302764356135,8.418701019373536,2.2135136690944432
1739983193150791400,3.06479150390625,-1.765168428570032,9.113509914684295,2.310992046549916
1739983193160773600,3.074773681640625,-1.718008033466339,9.685773211300372,2.3405928195655346
1739983193170755300,3.08475537109375,-1.6120575957417487,10.080683214235306,2.1674211954832074
1739983193180737500,3.094737548828125,-1.4170283601164817,10.303726245945692,1.8246049524009227
1739983193190719500,3.104719482421875,-1.178869153947383,10.518359176707268,1.6036983481973408
1739983193200702500,3.114702392578125,-1.0429099469281733,10.808515842747688,1.3692699991196393
1739983193210684400,3.124684326171875,-0.9883658713139593,11.082059227639435,1.014136126255989
1739983193220666400,3.134666259765625,-1.0229134530819952,11.318064616775512,0.6949556103050708
1739983193230648600,3.144648681640625,-1.2245979088127612,11.57598256251216,0.36527065147459503
1739983193240630300,3.15463037109375,-1.5586194355428218,11.778169853198527,-0.07415010883808136
1739983193250613500,3.164613525390625,-1.929910077959299,12.020669280529022,-0.5572235483944415
1739983193260595500,3.174595458984375,-2.202941421675682,12.295227395421266,-1.108203233963251
1739983193270577400,3.184577392578125,-2.3272972846627233,12.514213845217228,-1.267434010976553
1739983193280559600,3.1945595703125,-2.357269229078293,12.919860346221924,-1.238117900121212
1739983193290542600,3.20454248046875,-2.238978949740529,13.410298761588335,-1.2555804915755986
1739983193300524500,3.214524658203125,-1.972316848795116,13.797007922410964,-1.2321382411897182
1739983193310506500,3.224506591796875,-1.7615177971079945,14.161719186437129,-1.2912304816275835
1739983193320488400,3.234488525390625,-1.6532485610470176,14.140762907648085,-1.5347282723456621
1739983193330470700,3.244470703125,-1.693456945055723,13.655511539530753,-2.0490268712490796
1739983193340453400,3.254453369140625,-1.966021840304136,12.87023677587509,-2.6576100200027226
1739983193350435600,3.264435546875,-2.2483459130227565,12.149624161744118,-3.026131197705865
1739983193360417500,3.27441748046875,-2.670820506970584,11.739965502488612,-2.5865923639714716
1739983193370399500,3.2843994140625,-3.175789551992714,11.059963131165503,-1.7630904532521963
1739983193380382500,3.294382568359375,-3.442065868490934,10.263815091317891,-1.4044810132324694
1739983193390364400,3.304364501953125,-3.430997654248774,9.665665658295154,-1.3693448179215193
1739983193400346600,3.3143466796875,-3.110854723006487,9.477871050098537,-0.7388543732643127
1739983193410328300,3.324328369140625,-3.076435151532292,9.646288757652044,-0.4462438843309879
1739983193420310500,3.334310546875,-2.4790897283688187,9.754270993465184,-0.3680652506291866
1739983193430293500,3.34429345703125,-1.9258543728277087,10.014548069548606,-0.026548984229564664
1739983193440275500,3.354275390625,-1.8879396527141332,10.336343736433982,0.9752964002519845
1739983193450257700,3.364257568359375,-2.003456667946279,10.204171646738052,1.8337088808327913
1739983193460239400,3.3742392578125,-2.0855030829921364,9.74984090206325,2.6835955251306296
1739983193470222600,3.38422265625,-2.119752266335487,9.359901088756322,3.6759932823091743
1739983193480204500,3.39420458984375,-2.0331883738651872,8.949775981032849,4.24494000172317
1739983193490186500,3.4041865234375,-2.0456946580864486,8.53186270365119,4.311401309624314
1739983193500168200,3.414168212890625,-1.9596143113493918,8.031120920935273,4.261505936598778
1739983193510150100,3.424150146484375,-1.4581415840104222,7.3231181975305075,4.157633474192023
1739983193520133000,3.434133056640625,-1.0039641302011906,6.6124260889112945,4.113440696722269
1739983193530115000,3.444114990234375,-0.8904735062301158,6.090154026910662,4.29259081069231
1739983193540097300,3.45409716796875,-0.8271184207160025,5.618631324416398,4.590277872237563
1739983193550079200,3.464079345703125,-0.8141607394654303,5.202665089449286,5.123676892930269
1739983193560062200,3.474062255859375,-0.8196715387761593,4.370089353175461,5.3955970605343575
1739983193570044200,3.484044189453125,-0.8271662784457207,3.405153895679116,5.8655520753204815
1739983193580026000,3.494026123046875,-0.6787514944791794,2.380551904988289,6.292666311767697
1739983193590008000,3.504008056640625,-0.44169630402922627,1.2705500971704722,6.403228042680024
1739983193599990000,3.513989990234375,-0.16647300322651862,0.11492051064372062,6.226678466597199
1739983193609973200,3.52397314453125,0.09000817857212387,-0.938327436555922,6.050581310456991
1739983193619955000,3.533954833984375,0.33129882376790043,-1.5614260173961518,6.0914984272569415
1739983193629937200,3.543937255859375,0.414641123843193,-1.9347806066051125,6.347260071742534
1739983193639919000,3.553919189453125,0.30890462113022804,-2.495497550073266,6.570537496730685
1739983193649901000,3.563901123046875,0.14562075106753036,-3.188746356460452,6.667344258534908
1739983193659884300,3.57388427734375,-0.04278112057354301,-3.699069621992111,6.809202460464835
1739983193669866000,3.583865966796875,-0.2972807822993025,-3.9536879416614767,7.195550386759638
1739983193679848200,3.59384814453125,-0.5962730081589892,-4.053015161854028,7.788851210707426
1739983193689830100,3.603830078125,-0.9370656729917973,-4.2038977972388265,8.237839425310492
1739983193699813000,3.613813232421875,-1.2368331210076808,-4.590623909196258,8.329310671305656
1739983193709795300,3.62379541015625,-1.4299240820467471,-5.068468800449371,8.283335102072357
1739983193719777000,3.633777099609375,-1.246247430562973,-5.40738102183044,8.418222880467772
1739983193729759200,3.64375927734375,-0.8721230990905314,-5.390615180468559,8.578630884566902
1739983193739741200,3.6537412109375,-0.69745619494915,-5.428455374041199,8.63288912897706
1739983193749724200,3.66372412109375,-0.9102934744656086,-5.619078483662009,8.545062961485982
1739983193759706000,3.6737060546875,-1.3986967307426035,-5.758181249403953,8.515641636690496
1739983193769688000,3.68368798828125,-2.0599920635081825,-6.02870616325736,8.817041581279039
1739983193779670300,3.693670166015625,-2.7736732709407805,-6.496316660743951,9.521669275292753
1739983193789653000,3.703653076171875,-3.308481573909521,-7.065719891753792,10.486650033235549
1739983193799635200,3.71363525390625,-3.6787715148508546,-7.621678534778952,11.696543709391355
1739983193809617200,3.7236171875,-3.987226054126024,-8.199998062694073,12.368052977657317
1739983193819599000,3.73359912109375,-4.176990208829939,-8.57811299817264,12.407040587699413
1739983193829581000,3.7435810546875,-4.4520381530657405,-8.768412867188454,12.349493238615988
1739983193839564000,3.75356396484375,-4.759992341603338,-8.956890196952223,12.166751822155714
1739983193849546200,3.763546142578125,-5.210818585288524,-9.364764310878515,11.804930434352158
1739983193859528200,3.773528076171875,-5.744816740918159,-10.108670122313498,11.346415097469091
1739983193869510100,3.78351025390625,-6.239560744524002,-10.841087740528582,10.640331359428167
1739983193879493000,3.7934931640625,-6.56101738871336,-11.335092908465862,10.128872367864847
1739983193889475000,3.80347509765625,-6.519682338762283,-11.339825197684764,10.136668720829487
1739983193899457300,3.813457275390625,-6.1889095846951,-10.7949525968194,10.884859077715873
1739983193909439000,3.82343896484375,-5.520670716401934,-9.766070736852289,11.619474498236178
1739983193919421200,3.833421142578125,-4.8324108043432235,-8.406174715277553,11.833893493986128
1739983193929404000,3.84340380859375,-4.156872718952596,-6.963526760736108,11.681198840743303
1739983193939386000,3.85338623046875,-3.507123154813051,-5.636064689776301,11.136294675695895
1739983193949369000,3.863369140625,-3.1577579284787176,-4.258931702196598,10.523678325903415
1739983193959351000,3.87335107421875,-3.0138007084429264,-2.736139366838336,10.088658430898189
1739983193969333200,3.883333251953125,-2.7433950370550155,-1.288614746171236,9.818386030501127
1739983193979315000,3.89331494140625,-2.599588915927708,-0.037733226066827774,9.611279403591155
1739983193989298200,3.903298095703125,-2.642071674609184,1.0085650481253863,9.012000674277543
1739983193999280000,3.913280029296875,-2.7823420228257776,1.581698697835207,8.266877888268231
1739983194009262000,3.923261962890625,-2.9215760137319564,1.7965911563158035,7.64512546133995
1739983194019244300,3.933244384765625,-2.8899849436819554,1.8779501736193893,7.049577735248207
1739983194029227000,3.94322705078125,-2.59670342361927,1.9417182969138025,6.484204782667756
1739983194039209200,3.953209228515625,-2.1440099247574804,1.9085753212466834,5.9577720938563345
1739983194049191200,3.963191162109375,-1.520920111745596,2.019661076033115,5.495069242155552
1739983194059173000,3.973173095703125,-0.7993512198030949,2.3403666095942257,5.02095126247108
1739983194069155300,3.9831552734375,-0.3173439481735229,2.670954947005212,4.348706081146002
1739983194079138000,3.993137939453125,-0.06304539851043373,2.935615060478449,3.5682331648141146
1739983194089120300,4.003120361328125,-0.026457835347391663,3.2599440452337265,2.795070279234648
1739983194099102000,4.01310205078125,-0.200219826538302,3.6353318938359616,2.2542875780314207
1739983194109084200,4.023084228515625,-0.5171358681559562,4.024007970817387,1.9598703319370745
1739983194119067100,4.033067138671875,-0.8297041994255036,4.415100169029832,1.8279618616133928
1739983194129049000,4.043049072265625,-1.0368354493200778,4.860205696980655,1.8046125502079724
1739983194139031300,4.05303125,-1.181539761396125,5.358747047042846,1.7886837441921233
1739983194149013000,4.063012939453125,-1.3497509135268628,5.898140339714288,1.7752186979413032
1739983194158996200,4.072996337890625,-1.5328184932015836,6.424891592955589,1.8463655333101747
1739983194168978200,4.082978271484375,-1.7095299818478524,7.020724565729498,1.9121464577317238
1739983194178960100,4.092960205078125,-1.9572525506541132,7.590719332891703,1.906821463316679
1739983194188942000,4.102942138671875,-2.1072050655819474,8.14162887583375,2.0963082623839377
1739983194198924000,4.112924072265625,-2.2716733048573134,8.824341090637445,2.492530516961217
1739983194208907000,4.122906982421875,-2.5035063767448067,9.274896992948651,2.522634563323855
1739983194218889200,4.13288916015625,-2.6208941542848945,9.477721997016667,2.40623053612411
1739983194228871200,4.14287109375,-2.6349995442658662,9.75763433241844,2.3764140745311972
1739983194238853000,4.15285302734375,-2.6024752850189805,10.239149436616897,2.613144270810485
1739983194248836000,4.162836181640625,-2.7541315351247784,10.792448505043982,2.9196190344452857
1739983194258818000,4.172818115234375,-3.2650515975058076,10.898943717169761,2.8240882839262484
1739983194268800000,4.182800048828125,-3.846675427663326,10.775224983042477,2.6508862647056577
1739983194278782200,4.1927822265625,-4.2058027540773155,10.818688861715794,2.6584119840353724
1739983194288764200,4.20276416015625,-4.273205142220855,10.971852301514149,2.753698404404521
1739983194298747100,4.2127470703125,-4.273265932497382,11.387189006406068,3.0295336996257305
1739983194308729000,4.22272900390625,-4.381111974710226,11.84362695249319,3.312625834107399
1739983194318711000,4.2327109375,-4.485804521328211,12.149497905015945,3.1824580699712035
1739983194328693200,4.242693359375,-4.441120453210175,12.508480854523182,2.919308653321862
1739983194338675000,4.252675048828125,-4.348229403544962,12.975738300788402,2.6413229020684956
1739983194348657200,4.2626572265625,-4.364651838296652,13.26519120247364,2.1113900961816308
1739983194358640000,4.27264013671875,-4.322563631890714,13.262389004534482,1.203147124505043
1739983194368622000,4.2826220703125,-4.260552289135754,13.124440669524668,0.1354424896687269
1739983194378604300,4.292604248046875,-4.140167083345354,12.748389680838585,-0.9780267019987106
1739983194388586000,4.3025859375,-3.973156319980323,12.090227385401725,-1.9397066648304462
1739983194398569200,4.3125693359375,-3.7316257376819846,11.498405986356735,-2.575758250746131
1739983194408551200,4.32255126953125,-3.3701471719667313,11.020921745109558,-2.7989105880498886
1739983194418533000,4.332533203125,-2.865831037895381,10.649235965895652,-2.5118898819476363
1739983194428515000,4.34251513671875,-2.228123793727159,10.470091697144507,-1.6981892342746256
1739983194438497000,4.3524970703125,-1.6131211333200335,10.465646992695332,-0.9062059128910303
1739983194448480300,4.362480224609375,-1.1425056087985634,10.420886644470691,-0.4294534930497408
1739983194458462200,4.372462158203125,-0.81630381590873,10.273021311080456,-0.2076923178434372
1739983194468444200,4.382444091796875,-0.5238496865808964,10.205478637683392,-0.05575637401342392
1739983194478426000,4.392426025390625,-0.2712298472523689,10.15046343742609,0.0571861145555973
1739983194488409000,4.4024091796875,-0.11851093635112046,9.890507848381995,0.21455168221890925
1739983194498391000,4.41239111328125,0.018219547301530838,9.474880051589011,0.4039841207504272
1739983194508372700,4.422372802734375,0.1348833944812417,9.045056556183098,0.6511211447536945
1739983194518355000,4.43235498046875,0.18843582870960235,8.607996679782866,1.007608770313859
1739983194528338000,4.442337890625,0.31682021656036374,8.21609696457982,1.1966191840410232
1739983194538320000,4.45231982421875,0.3064870385944843,7.865470340007543,1.19207452634871
1739983194548301800,4.4623017578125,0.007445493700355291,7.654676549017429,1.1320271771430968
1739983194558283800,4.47228369140625,-0.4944985044121742,7.462604409632086,1.273209671768546
1739983194568266000,4.482265869140625,-1.0430476018331944,7.1182011896193025,1.7796926284849643
1739983194578249000,4.4922490234375,-1.5052677845835685,6.592071283146739,2.567251119163632
1739983194588231000,4.50223095703125,-1.8634205668769777,5.8339995837152,3.2142116371065375
1739983194598212900,4.512212890625,-2.109435454982519,4.899087800821662,3.7622646215736864
1739983194608194800,4.52219482421875,-2.1921930870376527,3.9421895193085073,4.508942235809564
1739983194618177800,4.532177734375,-1.865957245747745,2.9589892140641805,5.481080464291572
1739983194628159700,4.54215966796875,-1.2813646289125085,1.916131435714662,6.135014912900329
1739983194638142000,4.552141845703125,-0.8699043270625173,0.8579498315051197,6.623506870374083
1739983194648124000,4.5621240234375,-0.5103016382217407,-0.16116437542438505,6.995999874317645
1739983194658107000,4.57210693359375,-0.14801614003777502,-1.0440279911726713,7.247078913944959
1739983194668088800,4.5820888671875,0.21931845822930335,-1.7664917861282825,7.4922303170889615
1739983194678070800,4.59207080078125,0.5583165312629192,-2.345453703600168,7.616154218399524
1739983194688053000,4.602052978515625,0.8482954295836389,-2.854333200064301,7.642090623688698
1739983194698034700,4.61203466796875,0.9602316637195646,-3.2183705103516576,7.834865358385443
1739983194708018000,4.622017822265625,0.9085948538541794,-3.5612580651044845,8.168685809585451
1739983194717999900,4.631999755859375,0.9619348874408751,-4.075588228189945,8.557053843531012
1739983194727981800,4.64198193359375,1.1054991626363246,-4.489679316934943,8.913113014546036
1739983194737964000,4.651964111328125,1.3610335011720656,-4.800183189955353,9.439321246951819
1739983194747947000,4.661947021484375,1.658739851939678,-5.15366345039308,9.915355873912572
1739983194757929000,4.671928955078125,1.843452276211977,-5.378484013170003,10.356575208079814
1739983194767911000,4.681910888671875,1.8445371488392353,-5.133202846166491,11.044590205466747
1739983194777892900,4.691892822265625,1.5128876119375227,-4.748327330511808,11.718773076856136
1739983194787875800,4.701875732421875,1.0408863321460784,-4.593647640931606,12.089126146161556
1739983194797857800,4.71185791015625,0.7167278816521168,-4.767613630262017,12.314958516329526
1739983194807839700,4.72183984375,0.5881320430077612,-5.209029948306084,12.310891413021087
1739983194817822000,4.731822021484375,0.42092356511354445,-5.8642544367253775,12.133010880595444
1739983194827805000,4.741804931640625,0.14758008670806885,-6.604816198429465,11.87232814632058
1739983194837787000,4.751786865234375,-0.08276493857875467,-7.1464534706354135,11.75157176913023
1739983194847768800,4.761768798828125,-0.17094693377017975,-7.31438602502048,12.099093413424491
1739983194857750800,4.771750732421875,-0.23113646792545914,-7.1507193113863465,12.684134358549118
1739983194867732700,4.781732666015625,-0.38467487851604815,-7.059195458421111,12.964757472568749
1739983194877715700,4.7917158203125,-0.5663292303919791,-7.2162108974725,12.772279090470075
1739983194887698000,4.801697998046875,-0.5231504522703587,-7.215856092685461,12.179558696758747
1739983194897680000,4.811679931640625,-1.2446049240529538,-7.680733365815877,10.970738202792406
1739983194907661800,4.821661865234375,-1.32630369470492,-8.011856833016871,9.985547600513696
1739983194917645000,4.83164501953125,-1.3493093072392046,-8.29161076298654,9.246067204305529
1739983194927626800,4.841626708984375,-1.3252594463489948,-8.40108762127161,9.07967194249034
1739983194937609000,4.85160888671875,-0.9223813871443272,-8.110488472160696,9.540007480537891
1739983194947591000,4.8615908203125,-0.17314458994492887,-7.521603711089491,9.948737919032574
1739983194957574000,4.871573974609375,0.43401561333350835,-6.703789782878756,10.014085128211974
1739983194967555800,4.881555908203125,0.7610755574226379,-5.606110865539312,9.959993472540377
1739983194977537800,4.891537841796875,0.801386671153456,-4.27905036111772,9.880867913377285
1739983194987520000,4.90152001953125,0.6595886749781668,-3.0036884797513483,9.709782447919249
1739983194997502700,4.911502685546875,0.44446576874256133,-1.7639549611270426,9.485499645280838
1739983195007485000,4.92148486328125,0.1123415270011872,-0.6238935306102037,9.093196025452018
1739983195017467000,4.931466796875,-0.3031272067725658,0.3691583065629005,8.624867150563
1739983195027448800,4.94144873046875,-0.7971861507236957,1.1067162102758883,8.035708833247423
1739983195037432000,4.95143212890625,-1.1585516845185309,1.395350781315565,7.2909513734191655
1739983195047413800,4.961413818359375,-1.1475555856645108,1.477713422703743,6.492345419025421
1739983195057396000,4.97139599609375,-1.0643372042298316,1.631033514368534,5.861090419736504
1739983195067378000,4.9813779296875,-0.9558345978043973,1.836741964918375,5.479978056007623
1739983195077359900,4.99135986328125,-0.791945035199821,1.8916276935771106,5.016609433874487
1739983195087343000,5.001343017578125,-0.5654815275214612,2.0396742287531495,4.6991035731375215
1739983195097324800,5.01132470703125,-0.49064548224583265,2.4316718513727187,4.480529795795679
1739983195107307000,5.02130712890625,-0.6907998057998717,2.7705510472670194,4.207407851186394
1739983195117288700,5.031288818359375,-1.1472986882939935,3.092539606375992,3.8829607930094
1739983195127272000,5.04127197265625,-1.4156933121204376,3.441521678611636,3.58463426451683
1739983195137254000,5.05125390625,-1.2989596145749092,3.9216049964413044,3.229008224222064
1739983195147235800,5.06123583984375,-1.2259329568088053,4.53623590092659,2.9318554156839847
1739983195157218000,5.071218017578125,-1.2531973958313465,5.040761878356337,2.591360309025645
1739983195167200800,5.08120068359375,-1.216787527322769,5.544547851073742,2.2494722867041825
1739983195177183000,5.091182861328125,-1.1154770243585108,6.269902106773853,2.0512299342513085
1739983195187164700,5.10116455078125,-1.102853543498367,6.956607775127887,1.8218617911726236
1739983195197147000,5.11114697265625,-1.2144998547770083,7.561729969772696,1.5667922206044196
1739983195207129900,5.1211298828125,-1.439612824629247,8.242251981055736,1.3910843560427426
1739983195217111800,5.13111181640625,-1.686954869685322,9.009405397087335,1.3480851722717284
1739983195227094000,5.141093994140625,-2.02365248375684,9.666987262287735,1.1104612420231104
1739983195237075700,5.15107568359375,-2.310253795403242,10.052616811180114,0.7147808392375707
1739983195247058000,5.161057861328125,-2.5168323067858815,10.353279673665762,0.27788112183511254
1739983195257041000,5.171041015625,-2.6297604745686054,10.558707553708553,-0.2009820065498352
1739983195267022800,5.18102294921875,-2.6099030969321726,10.698106672048569,-0.6382593250930308
1739983195277005000,5.191005126953125,-2.5361595230683682,10.827643737065792,-0.9437333872526884
1739983195286987800,5.20098779296875,-2.4226269596517085,11.001969207358359,-1.0992290693908928
1739983195296970000,5.210969970703125,-2.276386889375746,11.172516328155993,-1.2317343365639448
1739983195306951700,5.22095166015625,-2.200425347201526,11.279560990858077,-1.4078952055901288
1739983195316934000,5.230933837890625,-2.109580708672106,11.288857226991652,-1.4616373171716928
1739983195326916000,5.240916015625,-2.0493100721046327,11.269095710945129,-1.4428665657281874
1739983195336898800,5.25089892578125,-1.932810475575924,11.281302866089343,-1.3333698336988686
1739983195346881000,5.260881103515625,-1.8096764094687998,11.260400363314151,-1.0991560041546822
1739983195356862700,5.27086279296875,-1.669763204126805,11.471651250422001,-0.732954793831706
1739983195366845000,5.280844970703125,-1.5200596955239771,11.9841202958107,-0.39296296052038665
1739983195376828000,5.290827880859375,-1.3258017365321517,12.438480851101875,-0.11599135474562644
1739983195386809900,5.300809814453125,-1.1677543240845203,12.674634708797932,-0.4103507331728935
1739983195396791800,5.310791748046875,-1.2114487966433167,12.709533003699779,-0.9977139837652444
1739983195406773800,5.320773681640625,-1.2730910138249396,12.451225766384601,-1.5554191781967877
1739983195416757000,5.330757080078125,-1.330594231505692,11.99571721010208,-2.1631056703716514
1739983195426739000,5.340739013671875,-1.3602480498827993,11.427644935435056,-2.7204946384608744
1739983195436721000,5.350720947265625,-1.2795485194012521,10.761218669521808,-3.0192385155826806
1739983195446702800,5.360702880859375,-1.2091653618812561,10.118986933666466,-2.9544442641109225
1739983195456685800,5.370685791015625,-1.123740702573955,9.526726558682322,-2.4388445194810626
1739983195466667800,5.380667724609375,-0.9678989834770559,9.049677786242961,-1.7059189517438411
1739983195476649700,5.390649658203125,-0.7563948522605002,8.928868802082539,-0.9830746330380439
1739983195486632000,5.4006318359375,-0.5708091522850096,8.939213670486211,-0.17925883504152296
1739983195496615000,5.410614990234375,-0.2506384562529623,8.91448839455247,0.558750319570303
1739983195506596900,5.420596923828125,0.09238032366409897,8.941562279438973,1.0555360581368207
1739983195516578800,5.430578857421875,0.42765038915053005,8.98136588203907,1.5046861853033304
1739983195526560800,5.440560791015625,0.6094013332687318,8.81530555126667,1.8983184233874082
1739983195536543700,5.450543701171875,0.5965700548768044,8.29336491317749,2.029171831700206
1739983195546526000,5.46052587890625,0.49776028268709777,7.638041056036949,2.074550604084134
1739983195556508000,5.4705078125,0.38192660272121426,6.934196621355414,2.29664261868
1739983195566489900,5.48048974609375,0.3769359548270702,6.151144794446229,2.47428466617465
1739983195576472800,5.490472900390625,0.3383201007068157,5.3840878245264285,2.5147370880723
1739983195586454800,5.500454833984375,0.2542341426573694,4.6817435652747745,2.514324415618181
1739983195596437000,5.51043701171875,0.11547361448183655,4.0517718837946655,2.5417817468643187
1739983195606419000,5.5204189453125,-0.13089315580129623,3.5012905031368136,2.55084300519824
1739983195616402000,5.53040185546875,-0.08619491302743554,3.0425755520284175,2.9130384870111943
1739983195626384000,5.5403837890625,-0.6813854962445796,2.5612673685789105,2.873689057919383
1739983195636365800,5.55036572265625,-1.3364705761931837,1.850931672181934,2.650382991358638
1739983195646347800,5.56034765625,-1.1274890953220427,1.1119637555405497,3.18446064196527
1739983195656330800,5.570330810546875,-1.3089457326687872,0.7172250175192951,3.471661965331435
1739983195666313000,5.58031298828125,-1.2234382173836231,0.23902269113063812,4.192690759047865
1739983195676295000,5.590294921875,-1.0750842236936091,-0.43912879162877794,4.6559255256682635
1739983195686276900,5.60027685546875,-0.8960780482389032,-1.1067723243772982,5.169421576017141
1739983195696260000,5.610260009765625,-0.6008019933581352,-1.7773045643046497,5.60380200407505
1739983195706241800,5.62024169921875,-0.12051000121384858,-2.289175351539254,5.525852502954006
1739983195716224000,5.63022412109375,0.2514658469878137,-2.6679119260475037,5.126748555460572
1739983195726206000,5.6402060546875,0.5583550366424024,-2.964157848873734,4.49470152901113
1739983195736189000,5.65018896484375,0.7916882839597761,-3.148836370876431,3.972281582972407
1739983195746171000,5.6601708984375,0.8444483987666666,-3.419609706532955,3.7517607632160184
1739983195756152800,5.67015283203125,0.7098048043906688,-3.758194011133909,4.115823207944631
1739983195766135000,5.680135009765625,0.4755095801733434,-4.098790240079165,5.043780933916569
1739983195776117800,5.69011767578125,0.32765725239515303,-4.545139338350296,6.1283309050917625
1739983195786100000,5.700099853515625,0.43125908116698264,-4.961440504360199,7.123031093993783
1739983195796081700,5.71008154296875,0.7070576976396143,-5.296211388152837,7.516758024623989
1739983195806063900,5.72006396484375,0.8508905606433749,-5.443379386928677,7.25472329121828
1739983195816046800,5.730046875,0.6651284811876714,-5.3162932221949095,7.049633849349617
1739983195826028800,5.74002880859375,0.20133257355317472,-5.168054379317164,7.267926471662521
1739983195836011000,5.750010986328125,-0.35903336452022194,-5.370393061172962,7.668956418782472
1739983195845992700,5.75999267578125,-0.9013925212599336,-5.91861497246623,8.113696328291297
1739983195855976000,5.769975830078125,-1.3001754201054572,-6.704028267809749,8.895690170580147
1739983195865958000,5.7799580078125,-1.345221015012264,-7.343742467886209,10.014919825470447
1739983195875939800,5.78993994140625,-1.2481319291353226,-7.4943135531038045,11.398725130420923
1739983195885922000,5.799922119140625,-1.2346294734835623,-7.289214174363017,12.531031709027289
1739983195895904800,5.80990478515625,-1.3106329551033675,-7.149325811201334,13.100945227646827
1739983195905887000,5.819886962890625,-1.5381608771428465,-7.450746214056014,12.977897524648904
1739983195915868700,5.82986865234375,-1.8899094914823769,-8.206443001049756,12.39029754269123
1739983195925851000,5.839850830078125,-2.2752125848993656,-9.166051418304443,11.370388678252697
1739983195935833900,5.849833740234375,-2.668530350206792,-9.999452207225561,10.112310524642467
1739983195945815800,5.85981591796875,-2.9157474537089465,-10.66218195670843,9.182624367442726
1739983195955798000,5.869798095703125,-2.9937329029262063,-10.812591129362582,9.020142479678988
1739983195965779700,5.87977978515625,-2.7349907813251018,-10.139562104183435,9.60765244526565
1739983195975763000,5.889762939453125,-2.222681018151343,-8.832771065330505,10.405347714555264
1739983195985745000,5.899744873046875,-1.8215040637761353,-7.345406601706147,10.829002165937423
1739983195995726800,5.909726806640625,-1.564919120208919,-5.918963347512483,10.881673433417081
1739983196005709000,5.919708984375,-1.377847565589845,-4.55857749659419,10.530094038164615
1739983196015692000,5.929692138671875,-1.2230565245896576,-3.171636231705546,10.089599511140584
1739983196025674000,5.939674072265625,-1.0007876921221612,-1.839457069095969,9.450048977193235
1739983196035656000,5.949656005859375,-0.8021601397439837,-0.7257160747498274,8.654303088405728
1739983196045638000,5.959637939453125,-0.7463993818163871,0.12636603376567362,7.893090168339014
1739983196055620900,5.969620849609375,-0.8002709649965166,0.7475023746222257,7.135040680739283
1739983196065602800,5.979602783203125,-0.9669731008037924,1.129220303028822,6.2188090483963485
1739983196075584800,5.989584716796875,-1.2382958870366214,1.3547124814569949,5.405507044652104
1739983196085568000,5.999568115234375,-1.5313995663143694,1.4854261890381575,4.859270754218101
1739983196095549700,6.0095498046875,-1.7305017504669724,1.6198071869552135,4.48916201506257
1739983196105532000,6.019531982421875,-1.8525860152602194,1.7320090862900017,4.290754827436804
1739983196115513900,6.029513916015625,-1.7985621641278267,1.8929805694907902,4.0592303831070655
1739983196125496800,6.039496826171875,-1.4828537082016466,2.074028626036644,3.711975865316391
1739983196135479000,6.04947900390625,-1.0993509422048926,2.340302604447305,3.1791479225099084
1739983196145460700,6.059460693359375,-0.7602573729075491,2.6930980974912644,2.669095875135064
1739983196155443000,6.06944287109375,-0.42667131498530503,3.0285265684098004,2.177849065995216
1739983196165425700,6.07942578125,-0.13370119895935056,3.364119874501228,1.6604764664739369
1739983196175407900,6.089407958984375,-0.017768296402692795,3.7930928905576464,1.2998334747999907
1739983196185390000,6.09939013671875,-0.12527122426629067,4.262001318900287,1.1521300539731978
1739983196195371800,6.109371826171875,-0.30533290012329817,4.7236175444081425,1.038179849666357
1739983196205355000,6.11935498046875,-0.505343723553419,5.231307831087708,0.9616080666393041
1739983196215336700,6.129336669921875,-0.7556815894246101,5.792383378735185,0.8564233525902032
1739983196225319000,6.13931884765625,-1.0533899860188365,6.431914623460173,0.7657944026380777
1739983196235300900,6.14930078125,-1.3451704538688063,7.007880866247415,0.5737503203034401
1739983196245283800,6.159283935546875,-1.5853271174654364,7.501849209305644,0.28144670536220073
1739983196255266000,6.16926611328125,-1.8043425010949372,7.967696204251051,-0.05519114134609699
1739983196265247700,6.179247802734375,-1.980912243182957,8.38542243462801,-0.3216378459751606
1739983196275231000,6.18923095703125,-2.0422063775792716,8.844106698337196,-0.48033086284995075
1739983196285213000,6.199212890625,-2.026577139031887,9.264307209873198,-0.6746873137801885
1739983196295195000,6.20919482421875,-1.952892601878941,9.558867663830519,-0.9065262308865785
1739983196305177000,6.219177001953125,-1.8658967477321624,9.848934313499926,-1.0569961938172578
1739983196315159800,6.229159912109375,-1.8288021118298172,10.078898084384202,-1.226713293531537
1739983196325142000,6.23914208984375,-1.8777444219142196,10.13457145628929,-1.3354834648519753
1739983196335123700,6.249123779296875,-1.9280872464463115,10.109412465113401,-1.368949681124091
1739983196345106000,6.25910595703125,-2.028246533548832,10.148949525731801,-1.2297668358832596
1739983196355089000,6.2690888671875,-2.198064171028137,10.096261891639232,-1.1728647989660501
1739983196365070800,6.27907080078125,-2.334140282425284,9.982937125754356,-1.094450602942705
1739983196375053000,6.289052978515625,-2.313849774068594,10.163119505381584,-0.6560919189035892
1739983196385034800,6.29903466796875,-2.0745380368635056,10.676197622579336,0.07389701085984707
1739983196395018000,6.30901806640625,-1.7259284512020647,11.196265452533959,0.6993214042991399
1739983196405000000,6.319,-1.3631222901448607,11.541840638935565,0.9804185655713081
1739983196414982000,6.32898193359375,-1.1405673342123628,11.543598880779742,0.8299111932396889
1739983196424963800,6.3389638671875,-1.0542834277272224,11.230222667193413,0.33892800347208973
1739983196434946800,6.34894677734375,-0.9687067927286028,10.8555277692914,-0.28657296233475205
1739983196444928800,6.3589287109375,-0.9171870333716273,10.494569135797024,-0.8191168275028466
1739983196454911000,6.368910888671875,-0.9684849666714668,10.070032056361436,-1.0025070632606745
1739983196464893700,6.378893798828125,-1.0132625582918524,9.585580314189196,-0.8244844920158386
1739983196474876000,6.3888759765625,-0.9412528224833309,8.978797492855787,-0.4422100987702608
1739983196484857900,6.39885791015625,-0.768167123118788,8.364634498143195,-0.139748662430048
1739983196494839800,6.40883984375,-0.5610556739032269,8.07915050008893,0.281024680557847
1739983196504823800,6.41882373046875,-0.2599965055763721,8.029605255675316,0.709534170755744
1739983196514805500,6.428805419921875,0.1499872939802706,8.036567495903371,1.0203297201991082
1739983196524787700,6.43878759765625,0.5561782771252095,7.995408387041091,1.4728209744870662
1739983196534769400,6.448769287109375,0.8723241015553473,7.844355071264505,2.1521634205967186
1739983196544752600,6.458752685546875,1.1300877335131168,7.501529475831985,3.1882506818979977
1739983196554734600,6.468734619140625,1.4509950732566415,6.663432638049125,4.1917391574114555
1739983196564716500,6.478716552734375,1.7095663683354854,5.4655742676019665,4.33684613200426
1739983196574698800,6.48869873046875,1.8902409153938293,4.512907924570143,3.6426147443205115
1739983196584681500,6.498681396484375,1.865162588238716,3.9339959837198255,2.6471342186957596
1739983196594663700,6.50866357421875,1.7269231613278389,3.4431729529500004,1.6315788732916117
1739983196604645600,6.518645751953125,1.6750877601504326,2.9363550651907917,0.8876116870582104
1739983196614628600,6.528628662109375,1.5871920345544814,2.3612217660963535,0.5670347483128308
1739983196624610600,6.538610595703125,1.4138076445043086,1.8735086840406059,0.5922948617756366
1739983196634592500,6.548592529296875,1.2871101868271826,1.505933701146394,0.7316781980246305
1739983196644574700,6.55857470703125,1.035833578801155,1.144556111587584,0.7626894223600625
1739983196654557700,6.5685576171875,0.5954559561550616,0.7529743762925267,0.7642927659034728
1739983196664539600,6.57853955078125,0.2678068870663643,0.4451803467527032,0.6925164004594088
1739983196674521600,6.588521484375,-0.0420890831887722,0.1987570970419794,0.494062451082468
1739983196684503600,6.598503662109375,-0.39705169113874433,-0.06954772960916161,0.3225894476115703
1739983196694486500,6.608486572265625,-0.6137807173967361,-0.4068279658742249,0.22793606444895267
1739983196704468700,6.61846875,-0.7031155358850956,-0.7396499075561761,0.26349428456425666
1739983196714450700,6.62845068359375,-0.7784089695394039,-0.9742685185089707,0.38896599983870983
1739983196724432600,6.6384326171875,-0.7726818240642547,-1.2148995216190814,0.5429126989692449
1739983196734415600,6.64841552734375,-0.6139104812562465,-1.4173632911592722,0.8497393447816372
1739983196744397600,6.6583974609375,-0.5936474454283714,-1.8025307754978537,1.751098986685276
1739983196754379500,6.668379638671875,-0.6389151586532592,-2.2389479700803756,2.414616087153554
1739983196764361700,6.67836181640625,-0.6541185730040073,-2.5045187686577437,2.8959026432931423
1739983196774344700,6.6883447265625,-0.6369827292859553,-2.689128317077458,3.046640317249298
1739983196784326700,6.69832666015625,-0.5061866771835833,-2.9050509953886268,2.876065139400959
1739983196794308600,6.70830859375,-0.39093751910738644,-3.150527977225184,2.838962612453103
1739983196804291800,6.718291748046875,-0.3110673521220684,-3.391202527216077,3.104737116909027
1739983196814273500,6.7282734375,-0.2601460701148957,-3.709905196522176,3.677853230962157
1739983196824255700,6.738255859375,-0.44468803319111466,-4.018966761779785,4.291884708249569
1739983196834237700,6.74823779296875,-0.8109786753632128,-4.378573396143317,5.028142050758004
1739983196844220700,6.758220703125,-1.0939245332419871,-4.824048049667478,5.680573109066486
1739983196854202600,6.76820263671875,-1.2368833898901939,-5.169433266454935,6.192293966436385
1739983196864184600,6.7781845703125,-1.3795979163885115,-5.541638101106882,7.024141096174716
1739983196874166800,6.788166748046875,-1.479251884317398,-5.892110411900282,8.057725434744357
1739983196884149500,6.7981494140625,-1.59969510390535,-6.221310217562317,9.104167501321434
1739983196894131700,6.808131591796875,-1.9584068352557717,-6.700833271160722,9.945679700505734
1739983196904113400,6.818113525390625,-2.3999580317258835,-7.197951602682471,10.719779574674368
1739983196914096600,6.8280966796875,-2.774254285699129,-7.488133987686037,11.437393591511249
1739983196924078600,6.83807861328125,-3.1951977245569227,-7.742737694308161,11.959626490545272
1739983196934060500,6.848060546875,-3.5703719304084776,-8.075910495254396,12.194531809484959
1739983196944042800,6.858042724609375,-3.8351509940862654,-8.295224861830473,11.926685174930094
1739983196954025700,6.868025634765625,-4.076000900644064,-8.422256666028499,11.399621786999703
1739983196964007700,6.878007568359375,-4.241130672568082,-8.60069833946824,10.522476548898219
1739983196973989600,6.88798974609375,-4.308706079190969,-8.950973081862927,9.474960715609788
1739983196983971600,6.8979716796875,-4.238163639456033,-9.32133608804047,8.686053148409723
1739983196993954600,6.90795458984375,-4.071206359843909,-9.328899801293016,8.179334629371763
1739983197003936500,6.9179365234375,-3.6165339621245858,-8.78050194891095,7.765278027418256
1739983197013918700,6.927918701171875,-3.086993370425701,-7.910667326083779,7.529329921427369
1739983197023901700,6.937901611328125,-2.6362463294565677,-6.847026871946453,7.311594348475337
1739983197033883600,6.947883544921875,-2.28151753026247,-5.689819660839438,7.257473466709255
1739983197043865600,6.957865478515625,-1.9935341166079044,-4.499887991738319,7.331194536480307
1739983197053847600,6.96784765625,-1.7324445550978183,-3.3125293879956006,7.293600426623224
1739983197063830500,6.97783056640625,-1.5101554104946553,-2.1493273203879593,7.2105258375734085
1739983197073812700,6.987812744140625,-1.3150469721533358,-1.1333917434945702,6.95139793152511
1739983197083794700,6.997794677734375,-1.1911996432103216,-0.3622369828671217,6.4675815646469585
1739983197093776600,7.007776611328125,-1.1111245282374322,0.1615589276999235,5.7643350958585735
1739983197103759600,7.017759521484375,-0.9896223741810768,0.46094928603172297,5.0368426590859885
1739983197113741600,7.027741455078125,-0.834661018115282,0.5793465328752995,4.5046910081058735
1739983197123723800,7.037723876953125,-0.6634813715677708,0.5813908981844782,4.137768497771025
1739983197133705700,7.047705810546875,-0.44307920975498855,0.6184516318172216,3.7948271670043465
1739983197143688700,7.057688720703125,-0.21920513404794037,0.6867021612226962,3.4793016664296386
1739983197153670700,7.067670654296875,0.05069200329594314,0.8878001953676342,3.0364041699171063
1739983197163652600,7.077652587890625,0.23775186747722327,1.172257919114083,2.633597276252508
1739983197173635800,7.0876357421875,0.30731355254650117,1.4997985593922436,2.367897590598464
1739983197183617500,7.097617431640625,0.38510998199768365,1.8911770272001622,2.1528554945141076
1739983197193599700,7.107599853515625,0.3798948776978999,2.3182507855065166,1.987389622503519
1739983197203581700,7.117581787109375,0.14318207094483076,2.740400823675096,1.877881784558296
1739983197213564700,7.127564697265625,-0.17197094305567442,3.1519758379459377,1.812550941991806
1739983197223546600,7.137546630859375,-0.35732751045040784,3.6001930681765075,1.7007295664072035
1739983197233528600,7.147528564453125,-0.5208896677315235,4.120384816771746,1.4971365005761383
1739983197243510800,7.1575107421875,-0.6502665737509727,4.729173717230558,1.4064490984350442
1739983197253493500,7.167493408203125,-0.7167723053157329,5.367011602041125,1.2613473845392464
1739983197263475700,7.177475830078125,-0.7864648502230643,5.948386425873637,1.1154279245197771
1739983197273457400,7.18745751953125,-0.8009072170734405,6.459829635345935,1.109279338762164
1739983197283440600,7.197440673828125,-0.7064215916931629,6.895640972989797,1.0602011273384093
1739983197293422600,7.207422607421875,-0.47668571128062903,7.295947282010316,0.8784832087069749
1739983197303404500,7.217404541015625,-0.2885807950258255,7.648923684579134,0.6144517485260963
1739983197313386800,7.22738671875,-0.1744610793709755,7.970095666608214,0.4502992972016334
1739983197323369700,7.23736962890625,-0.05781513317413628,8.273791028657556,0.264940976241231
1739983197333351700,7.2473515625,0.222200078080222,8.6509040936172,0.16932839265763758
1739983197343333600,7.257333740234375,0.5597147806882858,8.992684563910961,0.031929508224129675
1739983197353315600,7.267315673828125,0.864727801207453,9.24302359882593,-0.16294658266603945
1739983197363298600,7.277298583984375,0.9878699775557964,9.394666112667322,-0.4074327998995781
1739983197373280500,7.287280517578125,0.9337889163434505,9.542539044842123,-0.557138792720437
1739983197383262700,7.2972626953125,0.7781424275577068,9.774743288129567,-0.5564928960323333
1739983197393245700,7.30724560546875,0.49996378408074377,10.052768786871432,-0.559768556702137
1739983197403227600,7.3172275390625,0.13986322872042656,10.301883832949398,-0.626347353503108
1739983197413209600,7.327209716796875,-0.23881708555594086,10.43407696543336,-0.7305892337441444
1739983197423191600,7.337191650390625,-0.6234861188530921,10.577872857427597,-0.6827689134269952
1739983197433174500,7.347174560546875,-0.8414989013113081,10.86101292270422,-0.41568683350384233
1739983197443156700,7.35715673828125,-0.8990637129861861,11.132506973850726,-0.21793314135074615
1739983197453138700,7.367138671875,-0.7959797706086188,11.246502770864963,-0.2562503047853708
1739983197463120600,7.37712060546875,-0.627225889903307,11.349794803035259,-0.4828863925516605
1739983197473103600,7.387103515625,-0.5178489848613739,11.416881549358367,-0.6490940228402614
1739983197483085600,7.39708544921875,-0.4956792386293411,11.402371377968787,-0.8201432479411364
1739983197493067800,7.40706787109375,-0.5735013139784336,11.237772351920604,-0.9837181916385889
1739983197503049700,7.4170498046875,-0.8420996436834335,10.908616385400295,-0.932736192420125
1739983197513031700,7.42703173828125,-1.1437807433009146,10.359060595154762,-0.8040870161533356
1739983197523014000,7.437013916015625,-1.3153075227856634,9.660155370441078,-0.6866010389357805
1739983197532995600,7.44699560546875,-1.4753437709629535,8.96489697779715,-0.5540893420219422
1739983197542978800,7.456978759765625,-1.5619640697956085,8.429773617529868,-0.1393295602351427
1739983197552960500,7.46696044921875,-1.4296144315756856,8.174857776218651,0.5633692115426063
1739983197562942700,7.476942626953125,-1.1120366015810519,8.061136704492569,1.2656775226980448
1739983197572925000,7.486925048828125,-0.6874608706355094,7.9829791135787955,1.9304139358282089
1739983197582907600,7.49690771484375,-0.19031214397549628,7.880338823315501,2.5936913823217154
1739983197592889900,7.506889892578125,0.3161947050731629,7.695518847015499,3.150655402997136
1739983197602871600,7.51687158203125,0.6912251916050911,7.404184369367361,3.5577006648838516
1739983197612854800,7.526854736328125,0.7170867780923843,7.005322998458147,3.7256712131917475
1739983197622836700,7.536836669921875,0.4730675938487053,6.491832208806276,3.781736214762926
1739983197632818700,7.546818603515625,0.08790273985862732,5.794581765562295,3.7534599683493375
1739983197642801000,7.55680078125,-0.2880054793559015,5.020663093179464,3.670260876137018
1739983197652783900,7.566783935546875,-0.47464112677574155,4.224769612614811,3.5184278081595894
1739983197662765800,7.576765869140625,-0.4418845931429416,3.458867950209975,3.337527635651827
1739983197672747800,7.586747802734375,-0.3259563667614013,2.8349180132374165,2.9564181945323944
1739983197682729700,7.596729736328125,-0.2708382175862789,2.370334170095622,2.507822778639197
1739983197692712700,7.606712646484375,-0.23162015978917477,1.946839731580764,2.259506773984432
1739983197702694700,7.616694580078125,-0.24436872833371162,1.4555349086433649,2.0919225946456192
1739983197712676900,7.6266767578125,-0.33286651147603985,0.9349225965484976,1.9944833801567554
1739983197722659800,7.636659912109375,-0.36870121044516563,0.4225948593266308,2.114258929616213
1739983197732641800,7.646641845703125,-0.29914310557246204,-0.09151040896177291,2.3235744647473093
1739983197742623700,7.656623779296875,-0.2072130829591304,-0.6244158009186387,2.6220629058033227
1739983197752605700,7.666605712890625,-0.08701528949961065,-1.202595043580234,2.947105007264018
1739983197762588700,7.676588623046875,-0.026810703905671834,-1.8016089844778178,3.1197716044336556
1739983197772571000,7.68657080078125,0.11144377444386482,-2.265567681458592,3.350112391936779
1739983197782552800,7.696552734375,0.30127777951359747,-2.596143743909895,3.4132483548074957
1739983197792534800,7.70653466796875,0.3628057226657867,-2.8820895142570135,3.3580174659729
1739983197802517800,7.716517822265625,0.32177827735915776,-3.1975106776744124,3.3739433493793007
1739983197812499700,7.726499755859375,0.1416660403586924,-3.5034164092496036,3.3240362859159704
1739983197822482000,7.73648193359375,-0.11388692981228232,-3.768410869243741,3.2968349752575157
1739983197832464600,7.746464599609375,-0.4438344851016998,-3.972960212886333,3.533370525747537
1739983197842446800,7.75644677734375,-0.7539046428799628,-4.155882831132412,3.949925958779454
1739983197852428800,7.7664287109375,-1.0541150854229926,-4.384158502799273,4.499915464267135
1739983197862410800,7.77641064453125,-1.3290940560758113,-4.7452691119849675,5.117998847293854
1739983197872393700,7.786393798828125,-1.4922643644951283,-5.161574954169988,5.648988468757271
1739983197882375700,7.796375732421875,-1.430820592495054,-5.503994306889176,5.996013269445299
1739983197892358000,7.80635791015625,-1.2733737762890756,-5.700594152832031,6.247858032748103
1739983197902339600,7.816339599609375,-1.168266511390358,-5.826992919823527,6.550156387481093
1739983197912322800,7.82632275390625,-1.1548806678555905,-5.967495030969381,6.883795636895298
1739983197922304800,7.8363046875,-1.296113139102608,-6.092444768196344,7.2793988827914
1739983197932286700,7.84628662109375,-1.5826166894629596,-6.291936243927479,7.84259390681088
1739983197942269000,7.85626904296875,-1.903971334582567,-6.6395397212862965,8.537448979350923
1739983197952251600,7.866251708984375,-1.7653135361291468,-7.06484836961627,9.49871743877232
1739983197962233900,7.87623388671875,-1.0166565846443176,-7.45234137429297,10.630975502061844
1739983197972216800,7.886216796875,-0.04599018228054046,-7.5970274931252,11.917976967817545
1739983197982198800,7.89619873046875,0.919207433283329,-7.481460501271486,13.002906878221035
1739983197992180700,7.9061806640625,1.6334662944734095,-7.217177112156152,13.283164081537723
1739983198002163700,7.916163818359375,2.027286602475494,-7.1049600152522325,12.537370264399051
1739983198012145700,7.926145751953125,2.0501813019812105,-7.375405434128641,11.1243867957592
1739983198022127900,7.9361279296875,2.0221815344214438,-7.975404878932237,9.550709491816162
1739983198032109800,7.94610986328125,1.9617536614656448,-8.60569892423451,8.073701587033272
1739983198042092800,7.9560927734375,1.9400620541393756,-8.941949817451833,7.017521385774016
1739983198052074800,7.96607470703125,1.9408757086098194,-8.934607053473592,6.377605525645613
1739983198062056700,7.976056640625,1.7020646144032476,-8.436853931179643,6.460090332108735
1739983198072038700,7.98603857421875,1.7548517633475362,-7.561967285659909,6.6965154079616065
1739983198082021600,7.996021728515625,1.8284113589465618,-6.565451571768522,6.718524410673975
1739983198092003800,8.00600390625,1.8383165207587182,-5.544445559743046,6.6483887981742615
1739983198101985800,8.01598583984375,1.7566273947179316,-4.560262088680267,6.674942458578943
1739983198111968800,8.02596875,1.5842017666973172,-3.6997733863472937,6.590756108894944
1739983198121951000,8.035950927734374,1.336277976230532,-2.966514641132951,6.370061686137318
1739983198131932700,8.0459326171875,0.963985171034187,-2.381450315132737,6.1091977500766514
1739983198141915000,8.055914794921875,0.426389867695421,-1.900886812570691,5.909745437312126
1739983198151897600,8.065897705078125,-0.1828384470939636,-1.5073913526087999,5.78066079223752
1739983198161879800,8.0758798828125,-0.7422576058365404,-1.2249632349938153,5.634392372649907
1739983198171861800,8.08586181640625,-1.1968062310457228,-1.0508709889352321,5.345249852088093
1739983198181843700,8.09584375,-1.5838474003016947,-0.9601882629692554,4.987154206809401
1739983198191827000,8.105826904296874,-1.8213504806496201,-0.8540241824939846,4.807897709855437
1739983198201808600,8.11580859375,-1.742061109226942,-0.6699100163757801,4.871922730520367
1739983198211790800,8.125790771484375,-1.2659050478436051,-0.38982963093072176,4.7297664224267
1739983198221773800,8.13577392578125,-0.680888652638346,-0.0115352472320199,4.229630204388499
1739983198231755800,8.145755859375,-0.22505612509846687,0.41825288459956644,3.5316046851187943
1739983198241737700,8.15573779296875,-0.0028147651597857475,0.8404132980316877,2.7692706520676613
1739983198251719700,8.1657197265625,0.0765557086750865,1.319917793060094,2.0892086595118045
1739983198261702700,8.17570263671875,0.07650836240202188,1.95907231342718,1.6102385636210441
1739983198271684600,8.1856845703125,-0.07585895858258009,2.5511092549189924,1.438978910639882
1739983198281666800,8.195666748046875,-0.38273645779937504,3.016639439000189,1.4351269113868474
1739983198291648800,8.205648681640625,-0.6539981614947319,3.4802798638120294,1.53359429987967
1739983198301631700,8.2156318359375,-0.8835821392811835,4.08443847412169,1.688624702593684
1739983198311613700,8.22561376953125,-0.9701157827436924,4.721372103568911,1.76964820433259
1739983198321595600,8.235595703125,-0.9994288248591124,5.365974660208821,1.7064269012659787
1739983198331577900,8.245577880859376,-1.1161188293933868,6.00820931867361,1.6063403871387243
1739983198341560800,8.255560791015625,-1.253727849446237,6.553392885184287,1.3430764041990042
1739983198351542800,8.265542724609375,-1.3162323825456201,7.055314817595481,1.0669675527334213
1739983198361524700,8.275524658203125,-1.3487505043126642,7.538640770608186,0.8468746030002832
1739983198371506700,8.285506591796874,-1.3894728291928766,8.007499806851149,0.6834288386404513
1739983198381489700,8.29548974609375,-1.3722817481562495,8.405831600928305,0.6229980430752039
1739983198391471900,8.305471923828126,-1.3107047051653264,8.741873235309123,0.5851455745428801
1739983198401453800,8.315453857421875,-1.2483058243975043,9.039420011600852,0.6451777261793613
1739983198411435800,8.325435791015625,-1.1892480707511306,9.361372914874552,0.7890998749017715
1739983198421418800,8.335418701171875,-1.0999085760876535,9.634780690687894,0.8174690602958202
1739983198431400700,8.345400634765625,-1.0786904314920305,9.906347222548723,0.8358195405006408
1739983198441382700,8.355382568359374,-1.1747944518543778,10.203705198270082,0.847788795235753
1739983198451365600,8.36536572265625,-1.3627347521319984,10.368410607302188,0.8363187221944332
1739983198461347800,8.375347900390626,-1.508032573121786,10.463140562832354,0.9649053546190262
1739983198471329800,8.385329833984375,-1.5474303713999689,10.624461590123175,1.205040390905738
1739983198481311700,8.395311767578125,-1.4852091852866112,10.845111589217185,1.4412778352320192
1739983198491295000,8.405294921875,-1.2964252737917006,11.138073960328102,1.6659522675365208
1739983198501276700,8.415276611328125,-1.1040696412898598,11.416785687768458,1.5853455299049615
1739983198511259600,8.425259765625,-1.0604701535381376,11.527660137891768,1.2427987514138221
1739983198521241300,8.435241455078126,-1.1801567095398902,11.440540657365322,0.7161749239444732
1739983198531224600,8.445224609375,-1.3365177763357758,11.13160564109683,0.023915128594636917
1739983198541206500,8.45520654296875,-1.4244764841653406,10.663540385580061,-0.8091185805797576
1739983198551188500,8.4651884765625,-1.3756408493258059,10.137848286002873,-1.4450766429930924
1739983198561170700,8.475170654296875,-1.1447076488874852,9.620419572380184,-1.5168155990362167
1739983198571153700,8.485153564453125,-0.8962230096675455,9.0474425745368,-1.2717664872229097
1739983198581135600,8.495135498046874,-0.6646177551865577,8.479636841851473,-0.7433481775522232
1739983198591117600,8.50511767578125,-0.3394951358355582,8.058887464261055,-0.10770634148120879
1739983198601100500,8.5151005859375,0.08384849603176116,7.715377978217601,0.5403694442272186
1739983198611082500,8.52508251953125,0.6860159325242042,7.519565483260155,1.1034826351821423
1739983198621064400,8.535064453125,1.387279849193245,7.474918532282113,1.563856167152524
1739983198631046700,8.545046630859375,1.9400069629512726,7.389000828760862,1.7191373297572135
1739983198641029600,8.555029541015625,2.2779743046976626,7.131213815927505,1.4147826270163057
1739983198651011600,8.565011474609374,2.4055085054598746,6.741686090552807,1.0441168384999036
1739983198660993500,8.57499365234375,2.384220072107017,6.312583895158768,0.782813926500082
1739983198670976500,8.5849765625,2.177680869821459,5.947838728863,0.5337374588668347
1739983198680958500,8.59495849609375,1.8041981241881846,5.599817902874946,0.3154845840424299
1739983198690940700,8.604940673828125,1.5070575906097887,5.229585245078802,-0.09434066395163536
1739983198700922400,8.61492236328125,1.2389106579340994,4.887632633088529,-0.6457990729480981
1739983198710905600,8.624905517578124,0.8575064716517925,4.674676695628464,-1.0020260017454623
1739983198720887600,8.634887451171876,0.4779984743796289,4.542749812865257,-1.187546235269308
1739983198730869500,8.644869384765625,-0.011361936491727828,4.246989627729356,-1.4480688105463981
1739983198740851700,8.654851806640625,-0.5213058473169804,3.90255308996886,-1.7589976309806108
1739983198750834400,8.66483447265625,-0.9203786690197885,3.6834511970996853,-1.87300687199831
1739983198760816600,8.674816650390625,-1.1878629000030456,3.4194945557206866,-1.8100047646403312
1739983198770798300,8.68479833984375,-1.241292876895517,3.1069644375696774,-1.4044541252255438
1739983198780781600,8.694781494140624,-1.1111270855206996,2.7051120681509375,-0.6841308494299649
1739983198790763500,8.704763427734376,-0.9182955791354179,2.177441069716215,0.2257821012854576
1739983198800745500,8.714745361328125,-0.6488624060414732,1.5223082051031291,1.0152519785434007
1739983198810727700,8.724727783203125,-0.36049452311396596,0.8555888014622032,1.5843740545243024
1739983198820710700,8.734710693359375,-0.15967515977993607,0.3297477949336171,2.1578332829266786
1739983198830692600,8.744692626953125,-0.020569398363307116,-0.06352145505696535,2.601957690885663
1739983198840674600,8.754674560546874,0.03579495148062706,-0.42077743464112277,3.006682400870323
1739983198850656500,8.764656494140626,0.033032208769023415,-0.7897495709821581,3.5037434492468833
1739983198860639500,8.774639404296876,0.0885129807114601,-1.2702061060383916,4.162784865605831
1739983198870621400,8.784621337890625,0.19514847809076308,-1.8145543907687067,4.667627653899789
1739983198880603600,8.794603759765625,0.2452874506138265,-2.3681167863070964,5.068010535287857
1739983198890586600,8.804586669921875,0.19731822334527968,-2.8151380847513674,5.608390500909089
1739983198900568600,8.814568603515625,0.07224807460904122,-3.2098014194488522,6.379294209384918
1739983198910550500,8.824550537109374,-0.040970308291912075,-3.6983956682533026,7.179394786250591
1739983198920532500,8.834532470703126,-0.07867299309000372,-4.2579292471557855,8.115045989334583
1739983198930515500,8.844515380859375,0.12219327812567353,-4.8177843130975955,9.09099003984034
1739983198940497700,8.85449755859375,0.5169045436181128,-5.400179127627611,9.930309112894534
1739983198950479600,8.864479736328125,1.060573175521195,-6.023815468606353,10.564003322029112
1739983198960462600,8.874462646484375,1.5668179395675659,-6.735376761275529,11.028065771645307
1739983198970444500,8.884444580078124,1.708509552758932,-7.545244698917865,11.026840613764524
1739983198980426500,8.894426513671876,1.6061606466576457,-8.301735266637802,10.617211180603503
1739983198990408700,8.90440869140625,1.3626314378879965,-8.898400014060735,10.390758048188685
1739983199000391400,8.914391357421875,1.1908321250721812,-9.41839127164781,10.695144315111637
1739983199010373600,8.92437353515625,1.2531715307377278,-9.712883921065925,11.205108099681139
1739983199020355600,8.93435546875,1.3038717904053627,-9.603564299169182,11.837258001983166
1739983199030337500,8.944337646484374,1.4172501861736178,-9.238076205551623,12.346184844720362
1739983199040320500,8.954320556640624,1.2285562910497188,-8.649615222850441,12.737072168010473
1739983199050302500,8.964302490234376,1.1238964776575564,-8.065724032282828,12.42623394846916
1739983199060284700,8.97428466796875,0.8606067757546901,-7.692463551098108,11.521667619478702
1739983199070267400,8.984267333984375,0.3425535004928708,-7.695913983812928,10.196461803013086
1739983199080249600,8.99424951171875,-0.17827654600590467,-7.965510092383623,8.70267870451808
1739983199090231600,9.0042314453125,-0.5268576362252235,-8.17128050225377,7.601286319613457
1739983199100213500,9.014213623046874,-0.748494016008079,-8.155759692516922,6.958378291931748
1739983199110196500,9.024196533203124,-0.8576853353500365,-7.691624762186407,6.816642255076766
1739983199120178400,9.034178466796876,-0.8888871138215064,-6.864382495895028,6.993354328244924
1739983199130160600,9.04416064453125,-0.9154358057901263,-5.840040617445111,7.2062278481185436
1739983199140143600,9.0541435546875,-0.8951143177732824,-4.761124852764606,7.441706583032012
1739983199150125600,9.06412548828125,-0.8873185493305324,-3.74455945353508,7.529381943875551
1739983199160107500,9.074107421875,-0.8967457183673977,-2.7952836297243833,7.497013459712266
1739983199170089500,9.08408935546875,-0.8025365718409418,-1.8835791194170712,7.337590374997258
1739983199180072400,9.094072509765626,-0.6772256000861525,-1.0175485650479792,7.0904749783039085
1739983199190054700,9.1040546875,-0.5743254898428917,-0.21523294248133895,6.7288540815085165
1739983199200036600,9.11403662109375,-0.5417112142249941,0.4334834792181849,6.244671803927421
1739983199210019600,9.12401953125,-0.5504559539556503,0.8924816311821341,5.52946251014471
1739983199220001500,9.13400146484375,-0.6465374702252448,1.0407017693594098,4.583951591825485
1739983199229983500,9.1439833984375,-0.713189478392899,1.094072125019133,3.7882945503652095
1739983199239965400,9.15396533203125,-0.7382765733763575,1.1769444694951177,3.1095179214447737
1739983199249948400,9.163948486328126,-0.743740099479258,1.3463885974869132,2.6386989833056926
1739983199259930600,9.1739306640625,-0.7557448639191686,1.6449965732693672,2.439914194539189
1739983199269912600,9.18391259765625,-0.8261576859250664,2.085521057040244,2.316930788949132
1739983199279895600,9.1938955078125,-0.9319280909076333,2.379728167515248,2.1609721654742953
1739983199289877800,9.203877685546875,-1.0201849049009382,2.5106752454608676,1.7995476680338383
1739983199299859500,9.213859375,-1.1461769907876849,2.699064896941185,1.4898568649619817
1739983199309841700,9.223841552734376,-1.270523793685436,3.040856180889904,1.3546891005814075
1739983199319824400,9.233824462890626,-1.4049366480454801,3.480462234641611,1.2996183707445859
1739983199329806600,9.243806640625,-1.4812614705741405,3.9719153800085185,1.3369640587985514
1739983199339788500,9.25378857421875,-1.6199723143890499,4.5184293183401225,1.3168500760525463
1739983199349770500,9.2637705078125,-1.7886404895722865,5.073261879944801,1.2337287252515554
1739983199359753700,9.273753662109375,-1.9255930915430186,5.605911543574929,1.0960551155298948
1739983199369735400,9.2837353515625,-1.8944472810424864,6.1375669354707,0.9759674313813448
1739983199379717600,9.293717529296876,-1.6737126724049447,6.687137338763475,0.795216311955452
1739983199389700600,9.30370068359375,-1.4004459124974906,7.138017650723457,0.4933464117676019
1739983199399682600,9.3136826171875,-1.2182372877396643,7.496451149654388,0.11272855355739593
1739983199409664500,9.32366455078125,-1.0856266604959963,7.73751849835515,-0.3400993853390217
1739983199419646500,9.333646484375,-0.967830009894073,7.894565501588582,-0.6651192749679088
1739983199429629400,9.34362939453125,-0.9082549543753266,8.046050194519758,-0.8630629367351531
1739983199439611400,9.353611328125,-0.8878212381556629,8.228458433502912,-0.9041203387886285
1739983199449593600,9.363593505859376,-0.851440303480625,8.446721245199441,-0.810878575989604
1739983199459576600,9.37357666015625,-0.8004489519119262,8.672213423627614,-0.644475130867958
1739983199469558500,9.38355859375,-0.7202842589594424,8.885993536952137,-0.465115758061409
1739983199479540500,9.39354052734375,-0.602794043958187,9.133462569388747,-0.28854747727811336
1739983199489522400,9.4035224609375,-0.5333817772969603,9.425376892751455,-0.13869476946294307
1739983199499505400,9.41350537109375,-0.6393009431004524,9.665931031233072,-0.1216530337691307
1739983199509487400,9.4234873046875,-0.8215642206549644,9.776804896834491,-0.28036124821305275
1739983199519469600,9.433469482421875,-0.9567701250888406,9.936302800351381,-0.2858674444139004
1739983199529452500,9.44345263671875,-0.9869631649091839,10.215240153241156,-0.13920447255074977
1739983199539434500,9.4534345703125,-0.8769384634830057,10.505829365479945,-0.08908639668524265
1739983199549416400,9.46341650390625,-0.666168053368479,10.711600944393872,-0.18111644560694692
1739983199559398400,9.4733984375,-0.48198067588359117,10.878043552482128,-0.34452772317528724
1739983199569381400,9.48338134765625,-0.3477523843102157,10.974841546458006,-0.5599105955213308
1739983199579363600,9.493363525390626,-0.27709391698017716,10.9626168556571,-0.8522925363957882
1739983199589345500,9.503345458984375,-0.44283378362655634,10.698225914514063,-1.346338620865345
1739983199599328500,9.51332861328125,-0.7481028247334063,10.100963785719872,-1.827442806175351
1739983199609310500,9.523310546875,-1.004067152184248,9.407095970651508,-1.9615204372316597
1739983199619292400,9.53329248046875,-1.1056807297483087,8.665375686562061,-1.8449398844212292
1739983199629274600,9.543274658203124,-1.1271908430278301,8.0153125264287,-1.6356190885931252
1739983199639257300,9.55325732421875,-1.1193266855239867,7.505061157089472,-1.3062480180174112
1739983199649239600,9.563239501953126,-0.8844961853861808,7.23792062497735,-0.661291825634241
1739983199659221500,9.573221435546875,-0.4398047911942005,7.239537412524223,0.07507891412079334
1739983199669204500,9.58320458984375,0.07679229390993714,7.317842302954197,0.7351683782279491
1739983199679186700,9.593186767578125,0.5772599358595908,7.244737903776764,1.2797498871922492
1739983199689168400,9.60316845703125,0.8437329439736903,7.061892442420125,1.5844558875888586
1739983199699151600,9.613151611328124,0.9598154841341078,6.793236245048046,1.618051283198595
1739983199709133300,9.62313330078125,0.9144096776127815,6.3699582257628435,1.5214964503288269
1739983199719115500,9.633115478515625,0.6769818544581532,5.71601910097897,1.3466466639012098
1739983199729097700,9.64309765625,0.44631168887019157,4.948614925056695,1.134223810404539
1739983199739080400,9.65308056640625,0.3932615050755441,4.310353261876106,0.9965496161609887
1739983199749062700,9.663062744140625,0.32583149827271696,3.8373794837906954,0.9485516011893749
1739983199759044400,9.67304443359375,0.2557794724032283,3.4205729986071582,0.8507260177314281
1739983199769027600,9.683027587890624,0.14263503152132034,3.044831222000718,0.7385305481374264
1739983199779009500,9.693009521484376,0.020745704778283833,2.7995199521198866,0.6409679995298385
1739983199788991500,9.702991455078125,-0.11936141570061444,2.682518251287937,0.7068313415378332
1739983199798973400,9.712973388671875,-0.3819103822387755,2.5005659393787383,0.8213152143299579
1739983199808956400,9.722956298828125,-0.6629824090696871,2.110034005397558,0.8868301812916993
1739983199818938400,9.7329384765625,-0.7779211860224604,1.639977429933101,0.9833435131072997
1739983199828920600,9.742920654296874,-0.6753766112186014,1.2789708656437695,1.2452853075325487
1739983199838903600,9.752903564453124,-0.4019850558876991,0.9270464563459158,1.6265999158352613
1739983199848885500,9.762885498046876,-0.14924144404903053,0.4849883332669735,2.0433353816092015
1739983199858867500,9.772867431640625,-0.033562223992496726,-0.06067074180096387,2.3185148432701825
1739983199868850400,9.782850341796875,0.1041499641738832,-0.619476590950787,2.524745856389403
1739983199878832600,9.79283251953125,0.1596950335241854,-1.1226558299466967,2.762090969696641
1739983199888814300,9.802814453125,0.07939429310187697,-1.5122113201111553,3.0391397323608396
1739983199898796500,9.812796630859374,-0.024829320830106735,-1.8320488386660814,3.46445364138782
1739983199908779500,9.822779541015626,-0.025564503236860034,-2.14703248744905,3.721920920747518
1739983199918761500,9.832761474609375,-0.013147066342830657,-2.552939100694656,3.7498119672358032
1739983199928743700,9.84274365234375,0.044308951195329425,-2.924642707826197,3.8359208094149824
1739983199938726400,9.852726318359375,0.09801964472532272,-3.1807775695383547,4.038884345170855
1739983199948708600,9.86270849609375,0.11788754375576972,-3.4170079996019598,4.200314678055047
1739983199958690300,9.872690185546874,0.13960034000054,-3.6995237955003977,4.633329662978649
1739983199968672500,9.882672607421876,0.35211057951971886,-3.995934261238575,5.285563152888417
1739983199978655500,9.892655517578126,0.6343346989952028,-4.334800305390358,5.901526475021242
1739983199988637400,9.902637451171875,0.7721275511823594,-4.719652440169454,6.586109159871936
1739983199998619600,9.91261962890625,0.855579741372913,-5.016638659968972,7.258992054578662
1739983200008602600,9.9226025390625,0.9346106079898774,-5.260649076384306,7.781504939597845
1739983200018584600,9.93258447265625,1.0186708470761776,-5.731756183815002,8.231012794160842
1739983200028566500,9.94256640625,1.0617046637691556,-6.366734587541222,8.515325410348176
1739983200038549500,9.952549560546874,0.978164795295149,-7.029526880866289,8.703937764668463
1739983200048531500,9.962531494140626,0.8513609546341001,-7.36201871381104,9.162132199034094
1739983200058513400,9.972513427734375,0.8822655037246644,-7.252929393538833,10.194188012862204
1739983200068495600,9.98249560546875,1.0370352096758781,-7.052932890895009,11.455078885805607
1739983200078478600,9.992478515625,1.0137547257229684,-6.987753439497947,12.405633058989046
1739983200088460500,10.00246044921875,0.8476372579358518,-7.12171182808876,12.859974909579753
1739983200098442500,10.0124423828125,0.6906311712346971,-7.365819859659672,12.863302008175848
1739983200108425700,10.02242578125,0.4477447904132306,-7.749325840526819,12.366869905352592
1739983200118407400,10.032407470703125,0.04576791783198714,-8.335284485018253,11.316369503295421
1739983200128389600,10.0423896484375,-0.27863793155178423,-8.981398615264892,10.034190343129634
1739983200138372400,10.052372314453125,-0.25453590208292004,-9.480349422910809,8.762976813614367
1739983200148354600,10.0623544921875,0.05528276515230536,-9.504254030111431,7.665414216130971
1739983200158336500,10.07233642578125,0.44896629503220314,-8.902085424575208,7.198783961853384
1739983200168318500,10.082318359375,1.0139351968564092,-7.7332018041998145,7.21604372421205
1739983200178301700,10.0923017578125,1.5733156310237943,-6.476248855227231,7.304193132308125
1739983200188283400,10.102283447265625,1.937805653514713,-5.351574378934503,7.231310266926884
1739983200198265600,10.112265625,2.1566053485669197,-4.406264536145329,7.130863102793693
1739983200208248600,10.12224853515625,2.2780068917930123,-3.574102933630347,6.867694981443882
1739983200218230500,10.13223046875,2.2778701136708257,-2.7316876481264827,6.590430530202388
1739983200228212500,10.14221240234375,1.998542300158739,-1.8968840066701174,6.2800277794688935
1739983200238195500,10.152195556640624,1.5410944463767111,-1.1280705484718083,6.089973409646749
1739983200248177400,10.162177490234376,1.0779320143401623,-0.4341097944229841,6.004145722496509
1739983200258159400,10.172159423828125,0.7270899934515357,0.049807402481138706,5.755282605352997
1739983200268141600,10.1821416015625,0.40055195434466,0.26906419365108014,5.233120433467627
1739983200278124500,10.19212451171875,0.02961991610750556,0.30994974626898764,4.42379376309514
1739983200288106500,10.2021064453125,-0.2666764217317104,0.4237885991558432,3.688634737217426
1739983200298088400,10.21208837890625,-0.5240799882054329,0.5666945565730332,3.215990337216854
1739983200308071700,10.22207177734375,-0.6848840058848261,0.706686087848246,2.966674215608835
1739983200318053400,10.232053466796875,-0.6949722691789268,0.9829667887493967,2.7588895433068275
1739983200328035600,10.24203564453125,-0.6453146504320204,1.3839943977817892,2.717953137284517
1739983200338018300,10.252018310546875,-0.5229293568655848,1.7200021298930048,2.601637957412004
1739983200348000500,10.26200048828125,-0.49239013395607467,1.8623945848301051,2.0794600034356114
1739983200357982500,10.271982421875,-0.5445394233882427,2.020539904694259,1.645769311207533
1739983200367964400,10.28196435546875,-0.6469327531531452,2.378423953048885,1.4649106397539375
1739983200377947600,10.29194775390625,-0.7851978990271687,2.8879946466475723,1.3616981025606394
1739983200387929300,10.301929443359375,-0.9508648465678096,3.42329277895987,1.3608447006016968
1739983200397911600,10.31191162109375,-1.1340683275818824,3.9695954126283524,1.5404577559083699
1739983200407894500,10.32189453125,-1.217626900756359,4.514774887485802,1.7458154933243988
1739983200417876500,10.33187646484375,-1.2092609312102198,5.114818463692068,1.759254236090183
1739983200427858700,10.341858642578124,-1.2430047953799366,5.716764366388321,1.7771873676657675
1739983200437841400,10.35184130859375,-1.3383423614144325,6.258809634873271,1.6322727007746696
1739983200447823600,10.36182373046875,-1.4549921800687908,6.669741967326402,1.3144728255271911
1739983200457805300,10.371805419921875,-1.6246207247167825,6.996724681460857,0.9780325472176075
1739983200467788500,10.38178857421875,-1.7975868893548845,7.291997667601704,0.6960100877940655
1739983200477770500,10.3917705078125,-1.9083646011054514,7.608233362272381,0.5362357054233551
1739983200487752400,10.40175244140625,-1.8851953224420546,8.010918675383925,0.5878636013299227
1739983200497734700,10.411734619140624,-1.7856120816618204,8.531569273662567,0.8420219022721052
1739983200507717400,10.42171728515625,-1.6202645753338931,9.04371215583682,1.0943588330060243
1739983200517699600,10.431699462890625,-1.4915736057519913,9.430136069977284,1.1605524298816918
1739983200527681300,10.441681396484375,-1.4148212054610252,9.769788880592584,1.1147609850436448
1739983200537664500,10.45166455078125,-1.381729083198309,10.057819055998324,0.9793938986986875
1739983200547646200,10.461646240234375,-1.5063400899901984,10.242158555305004,0.7361585583090782
1739983200557628400,10.47162841796875,-1.5900316418945788,10.338836137771606,0.4672925175786018
1739983200567611400,10.481611328125,-1.519852044122666,10.533546224445104,0.49464405036270614
1739983200577593300,10.49159326171875,-1.2355696769431233,10.925815357482433,0.7746195141285658
1739983200587575600,10.501575439453125,-0.8362517944380641,11.323017855268716,1.002189083352685
1739983200597558300,10.511558349609375,-0.5143211029961705,11.512839000856875,1.0149018499314784
1739983200607540500,10.52154052734375,-0.36699352974444627,11.529565679252148,0.7373439687013625
1739983200617522400,10.5315224609375,-0.4413528974190354,11.356473550146818,0.11981646599173545
1739983200627504400,10.54150439453125,-0.6778792416892946,11.031071383202075,-0.6269026492983102
1739983200637487400,10.5514873046875,-0.9530689324833452,10.619869586157797,-1.2406015336304903
1739983200647469300,10.56146923828125,-1.121531648222357,10.074490789335966,-1.6592086384952067
1739983200657451300,10.571451171875,-1.0753858369886875,9.447568850815296,-1.9146014496684074
1739983200667434500,10.5814345703125,-0.8071125014543533,8.784069286003708,-2.0052982041597365
1739983200677416400,10.59141650390625,-0.4966531982280314,8.250007417488098,-1.955341456335783
1739983200687398400,10.6013984375,-0.15106515234485268,7.857524349439144,-1.518614757412672
1739983200697381400,10.61138134765625,0.3508173248387873,7.556038480132818,-0.7667243769645691
1739983200707363300,10.62136328125,0.8247558563031255,7.3109811850130555,-0.29717502036988735
1739983200717345500,10.631345458984375,1.181198473677784,7.21389969792068,0.058711716687679286
1739983200727328300,10.641328369140625,1.4503331022165715,7.156632334822416,0.32416707219183444
1739983200737310500,10.651310546875,1.6342776108562946,7.1192287791013715,0.5656143601208925
1739983200747292200,10.661292236328125,1.728677896040678,6.9688424028009175,0.6776695444613695
1739983200757274400,10.6712744140625,1.7548796742677688,6.588982084959745,0.6553308714032173
1739983200767257300,10.68125732421875,1.7674268750213085,6.071864921504258,0.6875035407334565
1739983200777239300,10.6912392578125,1.7817710421942174,5.363410947200656,0.7961386874973774
1739983200787221500,10.701221435546875,1.7676012086749076,4.715271448606252,0.9707885674387216
1739983200797204500,10.71120458984375,1.8566915508829056,4.157241260004043,0.8709779476433992
1739983200807186400,10.7211865234375,1.8720890265010297,3.5697464919865127,0.46226738289296626
1739983200817168400,10.73116845703125,1.830589287507534,3.0733652425676583,-0.16526830361187458
1739983200827151400,10.7411513671875,1.7900081246636808,2.779645623348653,-0.8069985196858644
1739983200837133300,10.75113330078125,1.8067641752839088,2.73315684389621,-1.2712240509092807
1739983200847115300,10.761115234375,1.8028654142796992,2.71591432493329,-1.5947954952955246
1739983200857098200,10.77109814453125,1.722888791245222,2.639842600382864,-1.7512737587302922
1739983200867080400,10.78108056640625,1.5891383463166653,2.5086343872830272,-1.6124480563640593
1739983200877062400,10.7910625,1.3846154522895813,2.2684201482802626,-1.4256114795446395
1739983200887045400,10.80104541015625,1.2122411160647868,1.9919757812499999,-1.245132162797451
1739983200897027600,10.811027587890624,1.044064669921249,1.749585513382405,-0.9339660264760256
1739983200907009300,10.82100927734375,0.8817020246230065,1.5494108776926994,-0.5968512099057436
1739983200916992500,10.830992431640626,0.7312054659463465,1.2621373658731578,-0.4363140264689922
1739983200926974200,10.84097412109375,0.6605109043896198,0.8664278831236064,-0.3005336831480265
1739983200936956400,10.850956298828125,0.685233988366276,0.5028647662192582,0.03204465903639793
1739983200946938400,10.8609384765625,1.0431729817785322,-0.14708265857994557,0.6108078390657902
1739983200956921300,10.87092138671875,0.4618634782671928,-0.412248383487761,1.4422241761714218
1739983200966903600,10.880903564453124,-0.3992388259194791,-0.6310358035802841,2.156118295702338
1739983200976885200,10.89088525390625,-0.1269686758339405,-1.19444300904572,3.3821728330641982
1739983200986868500,10.900868408203126,0.2003624133467674,-1.0376435508325694,4.261192632865906
1739983200996850400,10.910850341796875,0.2647169582270086,-1.8085306004345416,4.684989123067259
1739983201006832400,10.920832275390625,0.17566972450837492,-2.3944255320399996,4.932592011016607
1739983201016815400,10.9308154296875,0.21936975002512335,-2.7682266959726807,5.134424496915936
1739983201026797300,10.94079736328125,0.33315511915907264,-2.9038299291610716,5.454502838489413
1739983201036779500,10.950779541015624,0.29112697237730023,-2.8891140060663223,5.991532324638962
1739983201046762500,10.960762451171876,0.05747603741288185,-2.7295424527913332,6.861765591394901
1739983201056744400,10.970744384765625,-0.3024643589496612,-2.646933727687597,7.9192644740372895
1739983201066726400,10.980726318359375,-0.6839993320047855,-2.8911241768449543,8.908396507418155
1739983201076709400,10.99070947265625,-1.0844120240092276,-3.475373094809055,9.875576821231842
1739983201086691300,11.00069140625,-1.4305356380738317,-4.349117000034451,10.655852753686904
1739983201096673500,11.010673583984374,-1.686992279086262,-5.337192802360653,11.280625989741086
1739983201106656300,11.02065625,-1.9017222404815255,-6.273870425882935,11.700933468782901
1739983201116638500,11.030638427734376,-1.828857495278865,-7.060011450979113,12.213580208826064
1739983201126620400,11.040620361328125,-1.4739070161581038,-7.468595174479484,12.705350165057181
1739983201136602400,11.050602294921875,-1.0235447367228567,-7.6105901545315975,12.917258054769038
1739983201146585300,11.06058544921875,-0.6937164238989353,-7.806283407023549,12.696207073658703
1739983201156567300,11.0705673828125,-0.46441959249079223,-8.026214444193243,12.096720254552364
1739983201166549500,11.080549560546874,-0.3158618929222226,-8.23655756880641,11.182829632377624
1739983201176532200,11.0905322265625,-0.26837387329936024,-8.340299682831764,10.266147333657742
1739983201186514400,11.100514404296876,-0.204874630074203,-8.4450629565984,9.363180841079354
1739983201196496400,11.110496337890625,-0.18870003260374069,-8.615514215806126,8.277446044033764
1739983201206479400,11.120479248046875,-0.10608619293347,-8.66390619853139,7.219775311955809
1739983201216461300,11.13046142578125,0.09169131848663091,-8.406763328820466,6.545942569178343
1739983201226443300,11.140443359375,0.3591477846801281,-7.790154109999537,6.368602719500661
1739983201236426200,11.15042626953125,0.7013083403326571,-6.869695215350389,6.553706188917159
1739983201246408400,11.160408447265626,1.130864124713093,-5.793536640423536,6.86001494833529
1739983201256390400,11.170390380859375,1.4068508111037312,-4.807994740489125,7.006756830653548
1739983201266373400,11.180373291015625,1.5187046276532112,-3.9812592546761034,7.07676501738131
1739983201276355300,11.190355224609375,1.5800937468565999,-3.2496868551135063,6.93431703286469
1739983201286337300,11.200337158203125,1.5296541839517652,-2.618777892783284,6.663335607415437
1739983201296320500,11.210320556640625,1.3833460168756544,-2.016468417471647,6.553627862983942
1739983201306302200,11.22030224609375,1.0819875733412803,-1.4799930580735206,6.463187129080295
1739983201316284400,11.230284423828126,0.624339666942507,-1.092460890430212,6.255445126876235
1739983201326267400,11.240267333984375,0.06582856295555829,-0.9153905053436756,5.87476881647706
1739983201336249300,11.250249267578125,-0.4545569546461105,-0.862268571487069,5.390534516447782
1739983201346231600,11.2602314453125,-0.8413689913213253,-0.7688032290652393,4.992700735020637
1739983201356214300,11.27021435546875,-1.0563514661729334,-0.7089937802687287,4.739337968370318
1739983201366196500,11.280196533203124,-0.9426948379851877,-0.638874534381926,4.476398979601264
1739983201376178200,11.29017822265625,-0.6032083238475024,-0.37781302992254495,4.215554917284846
1739983201386161400,11.300161376953126,-0.17361951398029923,0.03024316257238388,3.790235163038969
1739983201396143400,11.310143310546875,0.1760766978740692,0.4939490538358688,3.044314504650235
1739983201406125300,11.320125244140625,0.4044397555634379,0.9963815661177039,2.2150889555871487
1739983201416108300,11.3301083984375,0.412513171903789,1.5840389773510395,1.5939958693504332
1739983201426090500,11.340090576171875,0.28898762226104735,2.203082583712041,1.0930208624005318
1739983201436072400,11.350072509765624,0.13418503695353864,2.748865577420592,0.7584224125653505
1739983201446055400,11.360055419921874,0.044696343077719206,3.2778254466220735,0.528876574832201
1739983201456037400,11.370037353515626,-0.02405775193572044,3.843576000343263,0.32254736203551293
1739983201466019300,11.380019287109375,-0.107991295902431,4.414392897543311,0.0714379272699356
1739983201476001300,11.390001220703125,-0.17179682859778403,5.0186096677809955,-0.2834662284910679
1739983201485984300,11.399984375,-0.30643560066819187,5.59623010751605,-0.6465940227180719
1739983201495966500,11.409966552734375,-0.47575303354039783,6.154802732431889,-0.9826064310044049
1739983201505949200,11.41994921875,-0.5382755406878889,6.647294573196769,-1.3603846818745136
1739983201515932400,11.429932373046874,-0.6419990961432457,6.993024073377251,-1.8201053028941154
1739983201525914000,11.4399140625,-0.7280662911377846,7.213131051635742,-2.1747131060570477
1739983201535896300,11.449896240234375,-0.7931587949037552,7.420920400112867,-2.362731586137414
1739983201545879300,11.45987939453125,-0.8414685061730444,7.685517677482962,-2.355839488536119
1739983201555861200,11.469861328125,-0.9707109721578657,7.977374717700481,-2.209271209219098
1739983201565843500,11.479843505859375,-1.1270647324301302,8.245328904283046,-1.9081126721709964
1739983201575826200,11.489826171875,-1.2890142668828368,8.546794315323233,-1.5043693744391202
1739983201585808400,11.499808349609374,-1.5029939944326878,8.836839337682724,-1.1440677435487507
1739983201595790000,11.5097900390625,-1.7635443344995378,9.075035514861344,-0.8132400444239377
1739983201605773300,11.519773193359375,-2.0746797834217547,9.34498409013152,-0.4963374102771282
1739983201615755300,11.52975537109375,-2.3366768151655792,9.570660977476834,-0.2609142049431801
1739983201625737200,11.5397373046875,-2.3840768642440437,9.717097154846787,-0.027656068688631057
1739983201635720200,11.54972021484375,-2.0663037308730186,9.912781639510392,0.33596447749137875
1739983201645702400,11.559702392578124,-1.344372581489384,10.225115066045522,0.5270598807990551
1739983201655684400,11.569684326171876,-0.6196719673924148,10.49809964801073,0.48526656568646426
1739983201665667300,11.579667236328126,-0.13376432732343674,10.75942418732047,0.4309346715182066
1739983201675649300,11.589649169921875,0.050773909425735474,10.924288586306572,0.21538521043360231
1739983201685631200,11.59963134765625,0.001204115092754364,10.962892749989033,-0.0026776947766542435
1739983201695614500,11.609614501953125,-0.2207506829895079,10.731181258654594,-0.18156126676499842
1739983201705596200,11.61959619140625,-0.5671884775698185,10.127339751470089,-0.3297334741473198
1739983201715578400,11.629578369140624,-0.8838403518259524,9.299003844723105,-0.15053484486043453
1739983201725561000,11.63956103515625,-0.9777081375688313,8.510302613750099,0.13608546374738215
1739983201735543300,11.649543212890626,-0.9133309424653648,7.792790303722024,0.4832376902073621
1739983201745525200,11.659525146484375,-0.6727122143149376,7.275695936620235,0.8855033166021108
1739983201755508200,11.66950830078125,-0.2856651998400688,7.016446450018882,1.3838520667016505
1739983201765490200,11.679490234375,0.24749387461692093,6.970394308418035,2.01840318492651
1739983201775472000,11.68947216796875,0.8061044934555888,6.848194162160158,2.4028315413355825
1739983201785455000,11.699455078125,1.2449100444793701,6.708478817477822,2.5254823539704083
1739983201795437300,11.709437255859376,1.5372987073555588,6.648869275167584,2.4583722267717123
1739983201805419300,11.719419189453125,1.6604207907639443,6.44971389952302,2.284350707861781
1739983201815402200,11.72940234375,1.5616989891186355,6.0065124516278505,1.9182254853844642
1739983201825384200,11.73938427734375,1.3046902671813965,5.361872485587001,1.4632161107957362
1739983201835366100,11.7493662109375,0.9290963746130466,4.684911966177821,1.1643483150333165
1739983201845349400,11.759349365234375,0.5004889769986272,4.083900421722233,0.9683902741253375
1739983201855331000,11.7693310546875,0.1981473676458001,3.529128065872192,0.7430512404322623
1739983201865313300,11.779313232421876,-0.0668985302746296,2.993217646880448,0.48552843149304387
1739983201875296300,11.789296142578126,-0.2887260487154126,2.5089222643136977,0.023050620719790457
1739983201885278200,11.7992783203125,-0.5048145851127803,2.0850622073568403,-0.40526422368884085
1739983201895260400,11.809260498046875,-0.6493965129181742,1.8615043579921124,-0.6331710620433092
1739983201905243100,11.8192431640625,-0.6947846376523376,1.733396156734228,-0.72720309843719
1739983201915225300,11.829225341796874,-0.6352066595241427,1.5835137844331562,-0.7786778496086597
1739983201925207000,11.83920703125,-0.6422326126381754,1.3308018829070032,-0.7746691984891891
1739983201935190300,11.849190185546876,-0.6737891958966851,0.9964398721762001,-0.6979916170001029
1739983201945172200,11.859172119140625,-0.5940205165244639,0.6608233313396573,-0.5836661496400832
1739983201955155200,11.8691552734375,-0.4701505373582244,0.30999241636693475,-0.24039222591817377
1739983201965137200,11.87913720703125,-0.2599672794818878,-0.06293196473121643,0.31172786185741425
1739983201975119400,11.889119384765625,-0.0808770790055394,-0.5887406764253974,0.6537602610856295
1739983201985102000,11.89910205078125,-0.009413140511512756,-1.2158560916915535,0.753624656894803
1739983201995084300,11.909084228515624,0.013746785801649094,-1.641201857161522,0.9757155024468899
1739983202005066200,11.919066162109376,0.05206248793154954,-1.9195365679830312,1.4477496615946293
1739983202015049200,11.92904931640625,0.04263502663373947,-2.1462664715126154,2.069789088770747
1739983202025031400,11.939031494140625,0.1570396967098117,-2.448476855701208,2.6740888611167666
1739983202035013000,11.94901318359375,0.28301848472356794,-2.8109289426237343,3.199667563447356
1739983202044996400,11.958996337890625,0.3554363629415631,-3.2425340607494113,3.5566023482531306
1739983202054978300,11.968978271484374,0.3411433414340019,-3.62421048810184,3.8181133500456808
1739983202064960300,11.978960205078126,0.4188976122438907,-3.7967204334050413,4.514122853317857
1739983202074943200,11.988943115234376,0.5219467755690217,-3.7734412646263835,5.43958817795217
1739983202084925200,11.99892529296875,0.6559893353119493,-3.6987832062661647,6.545183275243639
1739983202094907400,12.008907470703125,0.8667337342023849,-3.6499493249922987,7.6903943436086175
1739983202104890400,12.018890380859375,1.0119488453447818,-3.800437992623448,8.696693200367688
1739983202114872300,12.028872314453125,1.0636467377476393,-4.27524570813775,9.378165644243358
1739983202124854300,12.038854248046874,1.0169570288956165,-5.055830852672457,9.61136474378705
1739983202134837200,12.048837158203124,0.9263535056456923,-6.020334056231379,9.600213235175609
1739983202144819200,12.058819091796876,0.8439980246506631,-7.006335974892973,9.80689082301855
1739983202154801400,12.068801513671875,0.9359484324648976,-7.853756521338224,10.2169492952466
1739983202164784000,12.0787841796875,1.3027052308440208,-8.375247662094235,10.896581079691648
1739983202174766300,12.088766357421875,1.9895783647194503,-8.393366671630739,12.081066758346557
1739983202184748300,12.098748291015625,2.694118672710657,-8.264820955738426,13.0427689330101
1739983202194731300,12.108731201171874,3.131402713255584,-8.305106788897513,13.173555705827473
1739983202204713500,12.11871337890625,3.402563879185915,-8.42675163936019,12.773865482878684
1739983202214695200,12.128695068359375,3.4933179168224333,-8.440916942834853,12.063533439743518
1739983202224678400,12.138678466796875,3.226369107890129,-8.430980070710183,10.927065065282582
1739983202234660000,12.14866015625,2.6541230546697974,-8.546070092701912,9.434012619149684
1739983202244642300,12.158642333984375,2.1253882263958452,-8.656261821258068,8.10550191591978
1739983202254625300,12.168625244140625,1.5676842010080814,-8.633789877209066,6.955285002091527
1739983202264607200,12.178607177734374,1.6913535430356859,-8.090744491770863,6.811098649474978
1739983202274589200,12.188589111328126,1.7090845761679112,-6.914159795498848,7.331144267597794
1739983202284572400,12.198572509765626,1.5174737706840038,-5.7336862750947475,7.7953066704571246
1739983202294554000,12.20855419921875,1.284881843253225,-4.774951718065142,7.903266694438457
1739983202304536300,12.218536376953125,0.9904957229495048,-3.872030233672261,7.985863729104399
1739983202314519000,12.22851904296875,0.7483575301468371,-2.9088971494227644,8.018850052905082
1739983202324501200,12.238501220703125,0.5608673117242753,-1.8359926078557967,8.046320828154682
1739983202334483200,12.248483154296874,0.4106301346361637,-0.7499106048077344,8.132201122274994
1739983202344466200,12.258466064453126,0.24288170464634895,0.22926176009476185,7.94539201798439
1739983202354448400,12.268448486328126,0.019824352149665353,0.9738169753491878,7.305144733944535
1739983202364430000,12.27843017578125,-0.2760220499649644,1.3673685494124888,6.32673458558619
1739983202374413300,12.288413330078125,-0.5021823369130491,1.444713947160542,5.273061398711801
1739983202384395300,12.298395263671875,-0.6938955798581242,1.4353060673460363,4.288267102274299
1739983202394377200,12.308377197265624,-0.8432304012790321,1.472216871114075,3.6321599858015774
1739983202404360200,12.318360107421874,-0.9332450187250971,1.5195724965289235,3.3148511089414354
1739983202414342100,12.328342041015626,-0.9088003132984042,1.611760366360843,3.185069713774323
1739983202424324400,12.338324462890625,-0.7302382283493876,1.7312553453132509,3.0751556331157683
1739983202434307300,12.348307373046875,-0.532227931086719,1.8284122357293962,2.702368030139804
1739983202444289300,12.358289306640625,-0.37643063565343615,1.9694643819734452,2.1087293525397777
1739983202454271200,12.368271240234375,-0.2711857158496976,2.2348529558517036,1.5879337928324937
1739983202464254200,12.378254150390624,-0.3643758945919573,2.533074708795547,1.1860165414839983
1739983202474236200,12.388236083984374,-0.5386646861359476,2.8196044165104626,0.8812456591576338
1739983202484219400,12.398219482421876,-0.7181519231058656,3.2091397406697273,0.6994809787750244
1739983202494201000,12.408201171875,-0.942991628974676,3.7818411364421247,0.5785802246779204
1739983202504183300,12.418183349609375,-1.143826628269255,4.38905767301768,0.6092278763979673
1739983202514165200,12.428165283203125,-1.2247288417160511,5.055566648778319,0.6490542753517627
1739983202524147200,12.438147216796875,-1.1727893956422806,5.731463338348269,0.6076128424167633
1739983202534129200,12.448129150390624,-1.1655277340762316,6.305441622188687,0.38059798446595666
1739983202544112000,12.458112060546876,-1.1993923020161688,6.780968299627304,0.0965086556404829
1739983202554094300,12.46809423828125,-1.2527537437170744,7.272592709907889,-0.19726035567820072
1739983202564076300,12.478076171875,-1.2882665172554553,7.720106175783276,-0.5072527720451354
1739983202574059300,12.488059326171875,-1.261948565302789,8.064290784609318,-0.8129255716472864
1739983202584041500,12.49804150390625,-1.165686285638809,8.373046937179565,-0.9732242701530456
1739983202594023200,12.508023193359374,-0.9759452195495366,8.762546020981668,-0.9079460345566273
1739983202604006400,12.51800634765625,-0.7016663599900901,9.2542697999835,-0.6723568250060081
1739983202613988000,12.527988037109376,-0.45111149036735293,9.766819509392976,-0.399624171975255
1739983202623970300,12.53797021484375,-0.4302656862154603,10.15484735159874,-0.2569891404539347
1739983202633953300,12.547953369140625,-0.6526525921046733,10.317613317000866,-0.23229659774601458
1739983202643935200,12.557935302734375,-0.8996034458860754,10.255452921164036,-0.3445926051050424
1739983202653917400,12.56791748046875,-1.0433858938768505,10.206634821981192,-0.4274655341029167
1739983202663900200,12.577900146484374,-1.1616288269415498,10.3417552400887,-0.24798808787465093
1739983202673882400,12.58788232421875,-1.1370236702561378,10.632466032880544,0.2569873868882656
1739983202683864300,12.5978642578125,-0.9416855148121714,11.074439400285481,0.8593851250052451
1739983202693847300,12.607847412109376,-0.61889747588858,11.521119337946176,1.1677999167919157
1739983202703829200,12.617829345703125,-0.3729508307136595,11.74761689402461,1.2558213145941495
1739983202713811200,12.627811279296875,-0.26937808190584184,11.827461415112017,1.0507657749950885
1739983202723794200,12.637794189453125,-0.3766764271080494,11.689561010897158,0.4463099353045225
1739983202733776400,12.6477763671875,-0.6981576212167739,11.173749669343232,-0.41900048809647555
1739983202743759000,12.657759033203124,-0.9242590175844728,10.36335332391262,-1.3095143263369797
1739983202753741300,12.6677412109375,-1.1339373946785927,9.456431956228613,-1.8369623296707867
1739983202763723000,12.677722900390625,-1.2191080792248248,8.588367850205302,-1.9459055194705723
1739983202773706200,12.687706298828125,-1.1108370895981787,7.845261080193519,-1.7242343606352806
1739983202783688200,12.697688232421875,-0.8105730171717703,7.404269709563255,-1.155572887903452
1739983202793670100,12.707670166015625,-0.2771649363897741,7.264255674195289,-0.33307167865931986
1739983202803653000,12.717653076171874,0.3571098491117358,7.287115156257152,0.3994154976606369
1739983202813635300,12.72763525390625,0.9138391842484473,7.381845111787319,1.0296014064133168
