time,seconds_elapsed,z,y,x
1740251542205906000,0.048906005859375,6.138910751295089,3.544333818310499,4.553145826934278
1740251542215888000,0.058887939453125,5.869461942240595,4.682355851954221,4.516305165793002
1740251542225868800,0.068868896484375,4.089582851272821,3.737110598833859,1.3274693774834274
1740251542235850800,0.078850830078125,4.8643864897966385,2.5876073862329125,1.48069360755831
1740251542245833000,0.0888330078125,5.129059170490503,1.700218109753728,0.7830126639425754
1740251542255815000,0.09881494140625,4.338746412667632,-0.5359919597953557,-0.10149608866423368
1740251542265796900,0.108796875,2.5643314323246478,-4.753012273457646,-3.3528900399565695
1740251542275777800,0.11877783203125,0.3694026367127895,-5.548976188910007,-5.8356876829326145
1740251542285760000,0.128760009765625,3.4300223794758318,-0.7760267505779862,-2.4842554405689237
1740251542295741700,0.13874169921875,5.119450799667835,0.6223921861365437,-0.9560948561757803
1740251542305724000,0.148723876953125,4.816773674750328,0.09939122533947228,-2.77710558347702
1740251542315704800,0.158704833984375,2.9220728573381898,-1.8400696480363605,-7.768054506394266
1740251542325687000,0.16868701171875,2.657894682163,-2.83938785212785,-5.8664218438923355
1740251542335668700,0.178668701171875,1.1399112083911895,-4.051687712642551,-3.969853479042649
1740251542345651000,0.18865087890625,0.4623655825704336,-3.2332343174844977,-1.5130556619808078
1740251542355633000,0.1986328125,2.3190952735066412,-0.8313954404480755,0.3082455726996064
1740251542365613800,0.20861376953125,4.0291304283976555,-0.20633323138467966,-1.2183192669346927
1740251542375595800,0.218595703125,4.341088591879606,-0.21325367829762398,-3.1800302583023905
1740251542385578000,0.228577880859375,3.950308820617199,0.25340887081436814,-3.6403412464305758
1740251542395559700,0.2385595703125,3.8277608838349577,0.647772053521499,-2.623116506509483
1740251542405542000,0.2485419921875,1.8759832574605941,0.5729343277454376,-1.8451225475117563
1740251542415522800,0.258522705078125,0.9210428320169448,-0.2594225050806999,-0.4606622857838869
1740251542425505000,0.268505126953125,2.0763941861242055,-0.6704793406963347,0.7958405813336372
1740251542435486700,0.27848681640625,2.2058067479789254,-0.1946604023128748,1.2374068292424083
1740251542445469000,0.288468994140625,3.0684926680952307,0.5825548639299347,1.5053092856377361
1740251542455451000,0.298450927734375,2.059352450430393,0.8203236460093408,2.435307577526569
1740251542465431800,0.308431884765625,0.5193465299427509,0.6856289790332317,3.2359704644501206
1740251542475413800,0.318413818359375,0.7152934649348258,1.1834165881186722,2.233111080620438
1740251542485396000,0.32839599609375,1.1528589527696371,1.4638947407096623,2.0917260491602123
1740251542495377700,0.338377685546875,0.24823884776532648,1.4230357838377357,2.6028105083227158
1740251542505360000,0.34835986328125,-1.72354520932734,1.9910162885680793,2.0341648176819085
1740251542515340800,0.3583408203125,-3.2466888423413036,3.2370968381315466,1.0273118341714143
1740251542525323000,0.368322998046875,-3.6792327026218175,4.847534723716974,0.5795274424001574
1740251542535304700,0.3783046875,-3.8171816221535204,6.399710389947891,1.2056626144573093
1740251542545287000,0.388286865234375,-4.462086376610398,7.640106171873211,2.286186106595397
1740251542555268900,0.398268798828125,-5.215830275970697,8.885392648449539,4.113630081814527
1740251542565249800,0.408249755859375,-3.641270928496122,7.783717939472198,2.74750831759274
1740251542575231700,0.418231689453125,-2.442688919949531,5.577099875110387,-1.3810253188431263
1740251542585214000,0.4282138671875,-0.07455459798574447,3.7695983254626393,-3.145520378196239
1740251542595195600,0.438195556640625,0.5405202508747577,2.575735162131488,-4.525719767609238
1740251542605176800,0.4481767578125,1.2853425926327704,2.119618410822749,-3.620675884234905
1740251542615158800,0.45815869140625,1.7050117737710475,2.214426400025189,-0.044100423011183734
1740251542625140700,0.468140625,0.14429858081936836,2.3053677769273517,4.341326492288708
1740251542635122700,0.478122802734375,-1.878599869699776,1.1601917798757553,6.479234008517861
1740251542645105000,0.48810498046875,-2.976243715725839,0.03830576525777578,6.5227551703363655
1740251542655085800,0.4980859375,-2.8736434652119875,0.4176385520935058,5.127187531399726
1740251542665067800,0.50806787109375,-1.7453595662504433,1.7435975250139832,3.261835558068752
1740251542675049700,0.5180498046875,-0.7009592346340418,2.3088126566842195,1.916056909173727
1740251542685032000,0.528031982421875,-0.3021773587018251,2.2463499168999492,0.5230664272487163
1740251542695014000,0.538013916015625,0.10577449663579463,2.3247090217351913,-0.6468044505983591
1740251542704994600,0.54799462890625,0.7403618552178144,2.4157256558306512,-1.2792811006367206
1740251542714976800,0.557976806640625,1.2537012537002563,2.0921011660829185,-1.5954115813672543
1740251542724959000,0.567958984375,1.192919160479307,2.0555656253680588,-1.6809984454989433
1740251542734940700,0.577940673828125,0.18490239388644694,2.2910317930608985,-1.0688117192953825
1740251542744923000,0.5879228515625,-1.3132517592996358,2.805290059953928,-0.2327273903787136
1740251542754903800,0.59790380859375,-2.701485402086377,3.5383699414700267,-0.491665911334753
1740251542764885800,0.6078857421875,-3.255574744108319,3.8826585951924324,-1.3393582604587078
1740251542774867700,0.61786767578125,-2.6961107233107087,3.5410952747806905,-1.5416694697856903
1740251542784850000,0.627849853515625,-1.9231506668269633,3.1106939794868227,-1.4436457334071398
1740251542794832000,0.637831787109375,-1.5095689889088273,2.330673483097553,-1.4677309578716755
1740251542804812500,0.6478125,-1.727232373407483,1.4996939299739895,-1.6471224793821573
1740251542814794800,0.657794677734375,-2.0378294776692987,1.0250272303655743,-1.6513859820455312
1740251542824777000,0.66777685546875,-2.0160931544184684,0.6026178106084465,-0.7204781740963458
1740251542834758700,0.677758544921875,-1.6040724422067403,0.15372867246568203,0.5395213029652833
1740251542844740900,0.687740966796875,-0.6383475878983735,-0.24206103591322897,1.2308622299045324
1740251542854721800,0.6977216796875,0.40424481751322744,-0.7331053082183003,1.266197162657976
1740251542864704000,0.7077041015625,1.278532620356977,-1.3735738337934016,0.85948800085783
1740251542874685700,0.717685791015625,1.9911112733751535,-1.9578829575121401,0.7486193959534168
1740251542884668000,0.72766796875,2.6112515889316796,-2.2140727642819282,1.2272183204442262
1740251542894649900,0.73764990234375,2.7157348767131566,-1.7400944853290914,1.4386270284622906
1740251542904630800,0.747630859375,1.9713456656754016,-0.9137465375289321,2.1125918731868265
1740251542914612700,0.75761279296875,0.7541068874537944,-0.31627193502783774,3.4434646293729543
1740251542924595000,0.767594970703125,0.184297998252511,0.06955225965380668,3.7064375204116105
1740251542934576600,0.77757666015625,-0.7431389187157154,-0.10707681140601634,3.75528309212327
1740251542944558800,0.787558837890625,-1.3069780858576296,-0.5338643001168966,4.007630544251203
1740251542954539800,0.797539794921875,-1.2465373534202575,-0.7443494635492562,4.237445262053608
1740251542964522000,0.80752197265625,-0.8963643178343772,-0.5621189192205667,4.5951843489795925
1740251542974503700,0.817503662109375,-0.38775194787383077,-0.05307400306165218,4.626852575919032
1740251542984486000,0.82748583984375,0.28548034479245543,0.43666240151524544,4.3041596679329865
1740251542994467800,0.8374677734375,1.2350478450261055,0.7783207067340612,4.045340389442444
1740251543004448800,0.84744873046875,2.3038309227488933,1.0950316177010535,4.0217227824896575
1740251543014430700,0.8574306640625,2.9592823517918583,1.1292454374700784,4.466900498893857
1740251543024413000,0.867412841796875,2.810388552136719,1.0949316644579172,5.095784677398204
1740251543034394600,0.87739453125,2.2809482059419155,1.4454460608273745,5.4451867286115885
1740251543044376800,0.887376953125,1.872155661996454,2.311016596469283,5.271313093739748
1740251543054357800,0.897357666015625,1.3758455781176686,3.116502958026528,4.719847085958719
1740251543064340000,0.907340087890625,0.9031389265358447,3.693019235911965,4.019166668266058
1740251543074321700,0.91732177734375,0.42114802151918407,3.620002515017986,3.223950356310606
1740251543084304000,0.927303955078125,-0.13780673458203674,3.3404566748410462,2.86957285477221
1740251543094285800,0.937285888671875,-0.44477322725653645,3.3898546197384594,3.010893881085515
1740251543104267000,0.94726708984375,-0.4203507336616516,3.4516678095728155,3.4829724638968704
1740251543114248700,0.957248779296875,-0.08764788831472396,3.845349732017517,4.428647632867097
1740251543124231000,0.96723095703125,0.34929289175048467,4.2184377792447805,4.97417723633647
1740251543134212600,0.977212646484375,0.42631417211070655,4.0766789460361,4.739340890979767
1740251543144194800,0.98719482421875,0.30877602631449697,3.215722041669488,3.7586294799417255
1740251543154176800,0.9971767578125,-0.01799976707100868,2.0070973625361916,2.497548637384176
1740251543164158000,1.007157958984375,-0.4968773623727262,0.7430939105302095,1.3789935207545756
1740251543174139600,1.0171396484375,-1.0323545045137406,-0.678476184669137,0.7783253829091787
1740251543184121900,1.027121826171875,-1.6473909210599957,-2.232794123625755,0.5445218877315521
1740251543194103800,1.037103759765625,-2.1498902149677277,-3.4163469053447244,0.6089028822273016
1740251543204085800,1.047085693359375,-2.5858500211715696,-4.09980497007966,1.3812094432383775
1740251543214066700,1.057066650390625,-3.137133658123016,-4.805894553339481,3.0357419066160913
1740251543224049000,1.067048828125,-3.0893443174660202,-5.525234078794718,4.664198263972997
1740251543234030800,1.07703076171875,-2.5754244887471196,-6.296211437028646,6.21705197559595
1740251543244012800,1.0870126953125,-1.905944680482149,-7.203072014436126,7.4718363483577965
1740251543253994800,1.096994873046875,-1.270792673754692,-8.401798399889469,7.475157017213106
1740251543263976000,1.106975830078125,-1.2442542109191417,-9.37607597848773,6.515369736260175
1740251543273957600,1.11695751953125,-1.3898504303336143,-9.829086288213729,5.764254431837797
1740251543283939800,1.12693994140625,-1.2479448821306227,-9.69305284691453,5.663761090475321
1740251543293921800,1.136921875,-0.8441261810749768,-9.256115720111131,5.714603973484039
1740251543303903700,1.14690380859375,-0.4244662792216986,-8.799763698741794,5.759919617503881
1740251543313884700,1.156884765625,0.05337612781338393,-8.350296176189184,5.620298380845785
1740251543323867000,1.166866943359375,0.42175424378402526,-8.025797680085898,5.702184052371979
1740251543333848800,1.176848876953125,0.6054181088514625,-7.886292178761958,5.915321776139736
1740251543343830800,1.186830810546875,0.9213754249721765,-7.788195961669087,5.903744151070714
1740251543353812700,1.196812744140625,1.292147011950612,-7.548558353510499,5.545639737963676
1740251543363794000,1.2067939453125,1.4977465952984987,-7.244606386351585,4.639436747682094
1740251543373775600,1.216775634765625,1.5851711962513624,-7.073686925110221,3.558186987096071
1740251543383757800,1.2267578125,1.4735590795032678,-7.024702237188816,2.573430684581399
1740251543393739800,1.23673974609375,1.513880568497628,-7.034792254048585,1.624175903558731
1740251543403721700,1.2467216796875,2.0172639517635105,-6.913510391679406,0.9259756122440099
1740251543413702700,1.25670263671875,2.009578511827439,-6.339502881744504,1.2709674457997082
1740251543423684900,1.266684814453125,1.6839583182178437,-5.793456560924649,1.972463856050372
1740251543433666800,1.276666748046875,1.267911565360427,-5.470623952206969,2.7675574184089897
1740251543443648800,1.286648681640625,0.993298505410552,-5.099200038799643,3.767692491841316
1740251543453630700,1.296630615234375,0.8197891007412225,-4.589945279282331,4.435639099189639
1740251543463612700,1.30661279296875,0.7101461651742458,-4.027496689715981,4.4374885264486075
1740251543473593600,1.316593505859375,0.5560322927832603,-3.635112990388274,3.76367565741539
1740251543483575800,1.326575927734375,0.43640418897047634,-3.252152368444204,2.9618185922712086
1740251543493557800,1.336557861328125,0.11284954958856105,-2.4865882674306627,2.5459073023617265
1740251543503539700,1.346539794921875,-0.34984917392637577,-1.821968758678436,2.08621415387094
1740251543513521700,1.356521728515625,-1.1164175200790165,-1.4572826290935277,2.3652783480107784
1740251543523502800,1.3665029296875,-1.27406015111804,-1.4654647665053606,2.394871522241831
1740251543533484800,1.37648486328125,-1.3754986643761395,-1.1850742921978235,3.538981351366639
1740251543543466800,1.386466796875,-1.209370529064536,-1.1985299860984087,4.416643306818604
1740251543553448700,1.39644873046875,-0.772720402508974,-1.5019371788561344,4.9694186436325305
1740251543563431000,1.406430908203125,-0.23712241046726704,-1.2097668349057435,5.579361390301585
1740251543573411600,1.41641162109375,0.18253098857998848,-0.3510240994572639,6.138696231761575
1740251543583393800,1.426393798828125,0.3105716775596142,0.6458136859953403,6.238665256989002
1740251543593375700,1.436375732421875,0.13071896827816962,1.5925187825351952,5.833528459072113
1740251543603357700,1.446357666015625,-0.42430915243122724,2.580986799049377,5.4113785670340055
1740251543613339600,1.456339599609375,-1.2374398547291754,3.5725916522845624,5.225209514212608
1740251543623320800,1.46632080078125,-2.070584476932138,4.244318654954434,5.396428835183381
1740251543633303000,1.476302978515625,-2.7063839877828952,4.815308862894773,5.735281435331702
1740251543643284700,1.48628466796875,-3.0085224757790563,5.281802923572063,6.017784371748566
1740251543653267000,1.496266845703125,-3.091001144762337,5.557110980048775,6.498637212646007
1740251543663249000,1.506248779296875,-3.170929544740915,5.648724264863133,6.818038677871227
1740251543673230800,1.51623095703125,-3.1121102760255335,5.711418329185247,7.272270053824782
1740251543683211800,1.526211669921875,-2.775636387707293,5.729291839528083,7.770856119811534
1740251543693194000,1.536194091796875,-2.4419018612250682,5.646607711100578,7.915629332405328
1740251543703176000,1.546176025390625,-2.293931313894689,5.487187548995018,7.504302447676658
1740251543713158000,1.556157958984375,-2.2888737382441757,5.016166366282105,6.577877922621369
1740251543723140000,1.56614013671875,-2.2105288080647587,4.294072573682666,5.19107518942058
1740251543733121000,1.57612109375,-1.9799676558092236,3.6255019892171023,3.853016321122646
1740251543743102700,1.586102783203125,-1.723787493650615,3.1947637170538306,2.863659246814251
1740251543753085000,1.5960849609375,-1.5169813109919428,3.020382132659852,2.329434881213307
1740251543763067000,1.60606689453125,-1.2592773002669215,3.2134669562190767,2.192446915668249
1740251543773048800,1.616048828125,-0.911322232991457,3.6369697241708634,2.074384599867463
1740251543783029800,1.62602978515625,-0.6192074186205864,4.13242479865551,1.7369857056587934
1740251543793012000,1.636011962890625,-0.5054898540258407,4.618060782176256,1.2431985643863677
1740251543802994000,1.645993896484375,-0.5162731138467789,5.090180281519889,0.7442687995284796
1740251543812975900,1.655975830078125,-0.5964883679427206,5.458128043249249,0.22462240985631943
1740251543822958000,1.6659580078125,-0.6835188550114631,5.6769870672732585,-0.5389174918532371
1740251543832939000,1.67593896484375,-0.7777111965335906,5.769249171385169,-1.3461959975242614
1740251543842921000,1.6859208984375,-0.9520274606063961,5.734332171782851,-1.9774550884664057
1740251543852903000,1.69590283203125,-1.1692717429101467,5.5976767991930245,-2.4945599769622087
1740251543862885000,1.705885009765625,-1.3502673386164008,5.408101737320423,-2.892262240964174
1740251543872866800,1.71586669921875,-1.4400586687006056,5.191042456194758,-3.040228696641326
1740251543882849000,1.72584912109375,-1.3920587540328502,5.052437703102827,-3.0534757162272927
1740251543892830000,1.735829833984375,-1.2897202231951057,4.828869770735502,-3.1026983045578
1740251543902812000,1.74581201171875,-1.2406959339156747,4.499603329578042,-3.2218747190803287
1740251543912793900,1.7557939453125,-1.2384297425493598,4.205963789857924,-3.3031168320059776
1740251543922776000,1.765776123046875,-1.2388529363974927,4.030642586526274,-3.3818817411631343
1740251543932757800,1.7757578125,-1.1967205985888838,3.8812510664820667,-3.636916824939847
1740251543942739000,1.785739013671875,-1.1393139731504023,3.734914842355251,-3.8500872819334266
1740251543952721000,1.795720947265625,-1.106353952834755,3.6020895494475957,-4.045000197702646
1740251543962703000,1.805703125,-1.1095838746666908,3.5040672743737695,-4.301491910028457
1740251543972684800,1.815684814453125,-1.1605492150112986,3.4536978540956973,-4.396616417834163
1740251543982667000,1.8256669921875,-1.1612377817973494,3.3989877742648122,-4.252652768057584
1740251543992648000,1.83564794921875,-1.117061224810034,3.4461510919779537,-4.046161058175564
1740251544002630000,1.8456298828125,-1.0567018870458007,3.600246844190359,-3.8439182379096746
1740251544012611800,1.85561181640625,-1.051039331239462,3.8718016856133937,-3.574295241332054
1740251544022594000,1.865593994140625,-1.1327718580305575,4.175577127161622,-3.4025381602227687
1740251544032575700,1.87557568359375,-1.369505561441183,4.261664926552772,-3.5770793190926313
1740251544042558000,1.885557861328125,-1.4340671732008456,4.065007505203783,-3.7842005590498444
1740251544052539000,1.895538818359375,-1.3015011157512664,3.972524159556627,-3.834776315554976
1740251544062519800,1.905519775390625,-1.1529879859767853,4.1887905367389315,-3.791847858932614
1740251544072502000,1.915501953125,-1.1797054586410523,4.506893486586213,-3.5783132448017594
1740251544082484000,1.92548388671875,-1.0871208445765077,4.8385912465438246,-3.251608178564906
1740251544092466000,1.9354658203125,-0.9284053236089647,5.115837869867682,-3.198091107910871
1740251544102447900,1.94544775390625,-0.8380803250394762,5.421521190863848,-3.175661249437928
1740251544112428800,1.9554287109375,-0.6198128371678292,5.77588583292067,-3.007072276970744
1740251544122411000,1.965410888671875,-0.3875894507884979,6.249995044776797,-2.933081742608547
1740251544132393000,1.97539306640625,-0.3464332645356655,6.703548959860205,-2.8992274038016794
1740251544142375000,1.985375,-0.39991833261623977,7.00119510487318,-2.860094832330942
1740251544152356900,1.99535693359375,-0.3659668170452118,7.431896552157402,-2.673689632666111
1740251544162339000,2.005339111328125,-0.33715807119011876,7.9433871079027645,-2.630464238923788
1740251544172320000,2.015320068359375,-0.3960052508257329,8.128527402198314,-2.699191153669357
1740251544182302000,2.025302001953125,-0.22095760373845696,8.05027979491353,-2.546319390293956
1740251544192284000,2.035283935546875,0.1011303240917623,8.080763195982575,-2.2236878571063277
1740251544202265900,2.045265869140625,0.560758736783266,8.411268239024281,-1.6780436873465776
1740251544212247800,2.055247802734375,1.0079213433943688,8.82300662716329,-0.987722166582942
1740251544222229000,2.06522900390625,0.8913187248826027,8.499415309032797,-0.6110510001718997
1740251544232211000,2.0752109375,1.0692179620087146,8.42529384176731,0.05337444731295109
1740251544242193000,2.08519287109375,1.2744893363155423,8.57707021112144,0.7613684028893709
1740251544252174800,2.0951748046875,1.527083310550451,8.846233773493767,1.168847964540124
1740251544262157000,2.105156982421875,1.5160159730911253,8.950751548066735,1.3260299923300742
1740251544272138000,2.115137939453125,1.059850268074125,8.64643016307354,1.271838967937231
1740251544282120000,2.125119873046875,0.48931014198884365,8.291513147830962,1.683531763368845
1740251544292102000,2.135101806640625,-0.1822584552489221,7.819534518262744,2.6609301043361424
1740251544302084000,2.145083984375,-1.2224749253094196,7.388571205171942,4.370823220407963
1740251544312065800,2.155065673828125,-1.9855762894712388,6.74925097284913,6.442093487647176
1740251544322048000,2.165048095703125,-2.400106500285864,5.880732108795643,7.229888125169277
1740251544332029000,2.17502880859375,-2.7328362336397167,4.826913960492611,7.623313442504405
1740251544342011000,2.185010986328125,-3.092901717686653,3.466730938670039,8.535941497397422
1740251544351992800,2.194992919921875,-3.419585156613588,1.7037860313683748,9.77820833389163
1740251544361975000,2.20497509765625,-3.6286604532480236,-0.29180823263972994,10.89122335205078
1740251544371956700,2.214956787109375,-4.034581679540873,-2.47570213175714,11.484475660681724
1740251544381938000,2.22493798828125,-4.841028995084763,-4.334826316614449,11.69375553997755
1740251544391919900,2.234919921875,-5.024109434241056,-6.211942085236311,10.751730710208415
1740251544401902000,2.244902099609375,-4.9566754819154735,-6.999937798288464,10.397938315081596
1740251544411883800,2.2548837890625,-4.745608134680986,-6.061410162985324,11.437648443055153
1740251544421866000,2.264865966796875,-4.563801953244209,-7.606540002357959,9.75894073884189
1740251544431848000,2.274847900390625,-4.475431595873832,-8.316125026518106,8.73372909182012
1740251544441828900,2.284828857421875,-4.736382041174173,-8.081887231576442,7.23639093119204
1740251544451810800,2.294810791015625,-4.940850136274099,-7.438816122287512,5.232970211341977
1740251544461793000,2.30479296875,-4.718779748988151,-6.26837942725122,3.648465808436274
1740251544471774700,2.314774658203125,-4.20208285677135,-5.129273690024018,2.6304139700412748
1740251544481757000,2.3247568359375,-3.5115795497000217,-4.444874252785742,1.765539599969983
1740251544491737900,2.33473779296875,-2.654828280329704,-4.125830807217955,1.560735989305377
1740251544501720000,2.344719970703125,-1.9600100326687095,-3.922337110108137,1.365598032608628
1740251544511701800,2.35470166015625,-1.3336071495860815,-3.915256796458363,0.9682505733937025
1740251544521684000,2.36468408203125,-0.7062355676017701,-4.026742071956396,0.6114952368080616
1740251544531666000,2.374666015625,-0.1247321489535272,-4.161244650426506,0.05370704026818275
1740251544541648000,2.38464794921875,0.4945630940809846,-4.198683861982822,-0.7357078919321298
1740251544551628800,2.39462890625,0.9342477660268544,-4.281469112697243,-1.4278367543786763
1740251544561611000,2.404611083984375,1.0048277612932026,-4.198498568543791,-2.038688432586193
1740251544571592700,2.4145927734375,1.0158972907096147,-4.281314798918366,-2.2933856627106666
1740251544581575000,2.424574951171875,1.065535474103689,-4.508077727934718,-2.447563247987628
1740251544591556900,2.434556884765625,0.9392351990506053,-4.70994060897231,-2.547290865674615
1740251544601538000,2.4445380859375,0.8192913072869181,-4.799290040507913,-2.5071155071526765
1740251544611519700,2.454519775390625,0.7138499881282449,-4.900906832942367,-2.4722470228672027
1740251544621502000,2.464501953125,0.6680185035407543,-5.042603706830739,-2.174796108165383
1740251544631484000,2.47448388671875,1.2056807346358895,-4.544042775285244,-1.4469985509663819
1740251544641465900,2.4844658203125,1.6646958377346395,-4.230871144360304,-1.101953525918722
1740251544651447800,2.49444775390625,1.8507117458209394,-4.315657798025012,-0.9712287124216556
1740251544661429000,2.504428955078125,1.98777891408205,-4.602280444720387,-0.5737193406432867
1740251544671410700,2.51441064453125,1.868663582096994,-4.887607790908217,0.15498539452850818
1740251544681393000,2.524392822265625,1.4318518352389336,-4.997279294982552,1.133291497990489
1740251544691374800,2.534374755859375,0.6929086146473884,-5.389177841141819,2.059065450182557
1740251544701356800,2.544356689453125,-0.49817923875153064,-6.043551265689731,2.8460668915003535
1740251544711337700,2.554337646484375,-2.2507722633868457,-6.439494703325629,3.2240076394557953
1740251544721320000,2.56431982421875,-3.2989182112723587,-6.643134530907869,2.4636568891763684
1740251544731302000,2.574302001953125,-3.1954619284510613,-6.845266292014718,2.5402584828197954
1740251544741283800,2.584283935546875,-3.0396751544117926,-7.138248536869883,4.261239979138971
1740251544751265800,2.594265869140625,-3.088524525515735,-6.979335155242681,6.146652743723988
1740251544761248000,2.604248046875,-3.252140970267355,-6.585222440165281,7.302869774749874
1740251544771228700,2.614228759765625,-3.641996320161223,-6.005109014570713,7.47315386069715
1740251544781211000,2.6242109375,-4.035108626024424,-5.230056369721889,6.76680182710886
1740251544791192800,2.63419287109375,-4.0196395464748145,-4.733766890239715,5.348111671259999
1740251544801174800,2.6441748046875,-3.8569513224840164,-4.54578348147273,3.800865278124809
1740251544811156700,2.65415673828125,-4.094969220486283,-4.453741157591343,3.6216947058886286
1740251544821139000,2.664138916015625,-5.127645212039351,-4.2454573035955425,5.242301518788933
1740251544831120000,2.674119873046875,-6.58343321866095,-3.991870080539584,7.868181937053799
1740251544841101800,2.684101806640625,-7.483115867263078,-3.5753158165514467,10.348064569365977
1740251544851083800,2.694083740234375,-7.421053086581826,-3.206245772793889,10.963121882569789
1740251544861066000,2.70406591796875,-6.478708523339033,-3.197897631165385,10.261426734876633
1740251544871047700,2.714047607421875,-5.0142088024735445,-3.019722499707341,9.049932637786865
1740251544881028900,2.72402880859375,-3.793295135131478,-2.4429256513148543,7.528873994353413
1740251544891010800,2.7340107421875,-2.9461726948499676,-1.778001314397156,6.144844232997298
1740251544900992800,2.74399267578125,-2.0304127716720104,-1.2627204264581202,4.705097845116257
1740251544910974700,2.753974609375,-1.1816928330659866,-0.764790486292541,3.6001655956476926
1740251544920957000,2.76395703125,-0.893988820874691,-0.3634218087375164,3.319779797515273
1740251544930938600,2.773938720703125,-1.3873790717840193,-0.06451806487888097,3.828683843898773
1740251544940919800,2.783919921875,-2.1954677247941494,0.2941977581247687,4.8931034657150505
1740251544950901800,2.79390185546875,-2.625139244508743,0.8270330074548721,5.575757228329778
1740251544960884000,2.803884033203125,-2.736592371302843,1.1947405306875705,5.689283069744706
1740251544970865700,2.81386572265625,-2.73193490088582,1.5693863287508487,5.47987342658937
1740251544980847900,2.823847900390625,-2.530567109888792,2.032792652545869,5.019574128898978
1740251544990828800,2.833828857421875,-2.086584156227112,2.4636913759678603,4.3743420421838755
1740251545000810800,2.843810791015625,-1.7305391598679125,2.7587533497065304,3.5284015051633117
1740251545010792700,2.853792724609375,-1.500917772680521,2.807656789085269,2.7672318397164344
1740251545020775000,2.86377490234375,-1.1443550360575319,2.8035785798609254,2.2253835551083085
1740251545030756600,2.873756591796875,-0.7181178747057915,2.841551459902525,1.7749971641451119
1740251545040738800,2.88373876953125,-0.39919001834169027,2.919099686746299,1.431800397312641
1740251545050719700,2.8937197265625,-0.3114320937812328,3.1403447291240094,1.3790081338018179
1740251545060702000,2.903701904296875,-0.4238084729000926,3.540699261200428,1.5644430271297691
1740251545070683600,2.91368359375,-0.8613926654353737,3.6184599617511033,1.0521645358771086
1740251545080665900,2.923665771484375,-1.5353789913393556,3.4338585966378448,0.6650345192939042
1740251545090647800,2.933647705078125,-2.1557740123093128,3.4044095070526,0.5227227283775806
1740251545100629800,2.943629638671875,-2.3682193698987364,3.529501283098757,0.6023480537563562
1740251545110610700,2.953610595703125,-2.279131219647825,3.854555074997246,0.6471949112206697
1740251545120593000,2.963593017578125,-2.1078584149241446,4.243440703076124,0.7013643083035945
1740251545130574600,2.97357470703125,-1.8334826708614824,4.580947441573441,0.7735054154068232
1740251545140556800,2.983556884765625,-1.6248749917387961,4.875926120942831,0.7299433370560408
1740251545150539000,2.9935390625,-1.5893053734466434,5.241013232544065,0.49722354546189307
1740251545160520000,3.00352001953125,-1.659336941049993,5.567800716367364,0.28783319152891634
1740251545170501600,3.013501708984375,-1.79872831447497,5.858353688248991,0.09272095379531382
1740251545180483800,3.02348388671875,-1.9224995094418524,6.086704763239622,-0.056499885857105255
1740251545190466000,3.033466064453125,-2.020636204675585,6.433257270240784,-0.048123687177896494
1740251545200447700,3.04344775390625,-2.09283985562101,6.818714385175705,0.08061550545990466
1740251545210430000,3.053429931640625,-2.1573300095796584,7.278525022566318,0.28341011438965796
1740251545220411000,3.063410888671875,-2.3061256095573306,7.780333557730913,0.48334816484451293
1740251545230392800,3.073392822265625,-2.5367934370577334,8.143247416946291,0.5366694206655025
1740251545240374800,3.083374755859375,-2.779615520471334,8.035333570194243,0.41253216886520383
1740251545250357000,3.09335693359375,-2.979426729676127,8.447045070326327,0.6896487360686063
1740251545260338700,3.103338623046875,-3.109574620068073,9.179034818518161,1.1649860284149647
1740251545270321000,3.11332080078125,-3.133732617507875,9.906119259011746,1.6320710407227277
1740251545280301800,3.1233017578125,-3.1407632467970252,10.746935292625427,1.9842811350941656
1740251545290284000,3.133283935546875,-2.8719404606863854,11.636015298670529,1.7297972554594276
1740251545300265700,3.143265625,-2.704392521704733,11.9703536362648,0.9214631032556295
1740251545310248000,3.153248046875,-2.9362323155939576,11.48707327595949,-0.5150999784141779
1740251545320230000,3.16322998046875,-3.2358328095450997,10.838469082462787,-1.9508201795190572
1740251545330210800,3.1732109375,-3.2396631814882157,10.568312417399882,-2.8954508078724146
1740251545340192800,3.18319287109375,-3.0361387969791886,10.723727435517311,-3.188092860987782
1740251545350175000,3.193175048828125,-2.6054420258700848,11.111931803333759,-3.359078957724571
1740251545360156700,3.20315673828125,-2.04813079919219,11.294787786084413,-3.631269174441695
1740251545370139000,3.213138916015625,-1.6488307446047663,11.17951656230688,-4.066114297401905
1740251545380120800,3.223120849609375,-1.3322209559246896,10.926079561376572,-4.679659452477098
1740251545390102000,3.23310205078125,-1.1451558310464023,10.749663840806484,-5.057230782598257
1740251545400083700,3.243083740234375,-0.8464715751573443,10.536814870852231,-5.468096479555964
1740251545410066000,3.25306591796875,-0.697299543082714,10.35576272265315,-5.59268673582077
1740251545420048000,3.2630478515625,-0.6718529671370983,10.019105002200602,-5.661910494172573
1740251545430029800,3.27302978515625,-0.6510144695088267,9.363236955180763,-5.5978615081101655
1740251545440011800,3.28301171875,-0.6670613489463925,8.646321442002057,-5.165284330081939
1740251545449993000,3.292992919921875,-0.7320569682091475,8.079102569293976,-4.2950382038444275
1740251545459974700,3.302974609375,-0.8008055102646351,7.74432467123866,-3.1097698503792284
1740251545469956900,3.312956787109375,-0.8088122911095619,7.443116449829936,-1.8634855949372051
1740251545479938800,3.322938720703125,-0.7767299304112791,7.248916650766134,-0.3812807060331106
1740251545489920800,3.332920654296875,-0.6927095849439502,7.179109539568424,1.1547253311634063
1740251545499902700,3.34290283203125,-0.5876153256572783,7.298076110732555,2.5940824274659153
1740251545509884000,3.3528837890625,-0.5767248060695827,7.486079393243789,3.7585219279140234
1740251545519865900,3.362865966796875,-0.7039620697118342,7.502868615481257,4.637362864017486
1740251545529847800,3.372847900390625,-0.9374585447669028,7.326119132912159,5.253557656818628
1740251545539829800,3.382829833984375,-1.1092157720066607,7.204309447276592,5.84668137063384
1740251545549812000,3.39281201171875,-1.2439679413236677,7.079930203413963,6.49797904099822
1740251545559793700,3.402793701171875,-1.4259728602029382,6.868762902936339,7.264077395018934
1740251545569774800,3.41277490234375,-1.5864939692877231,6.525596531242132,8.092505071702599
1740251545579756800,3.4227568359375,-1.7532184630572796,6.028571138700842,8.889528725340963
1740251545589738800,3.43273876953125,-2.0488580905534324,5.398888503295183,9.421129172179102
1740251545599720700,3.442720703125,-2.5197686524987217,4.391144123902917,9.416627184584737
1740251545609703000,3.452702880859375,-3.037768444007635,3.1952637755304574,9.39177740548849
1740251545619684900,3.462684814453125,-3.5146646562337875,2.005575267535448,9.519712296006082
1740251545629666600,3.47266650390625,-3.8145571188688274,0.9231932880491017,9.914064080536365
1740251545639648800,3.482648681640625,-3.819843534839153,-0.08448153323829173,10.247636694455146
1740251545649630500,3.49263037109375,-3.587465688550472,-1.0632494089931248,10.637435637986659
1740251545659612700,3.50261279296875,-3.177147688603401,-2.183358769327402,10.772108312326669
1740251545669594600,3.5125947265625,-2.7729963945925236,-3.227449888864159,10.756881517100334
1740251545679576600,3.52257666015625,-2.4072433664284647,-4.133827066668868,10.56731171592474
1740251545689557500,3.5325576171875,-2.0120517700731755,-4.836525253924727,10.360299781560897
1740251545699539700,3.542539794921875,-1.527324133569002,-5.231609444382786,9.92767058108449
1740251545709521400,3.552521484375,-0.9997978043019771,-5.615601162940264,9.322463046243787
1740251545719503600,3.562503662109375,-0.6090249742370099,-6.076940325072408,8.529528707745671
1740251545729485600,3.572485595703125,-0.44243404371924694,-6.252537714996934,7.766784924849867
1740251545739467500,3.582467529296875,-0.3065887454032898,-6.084416944563388,6.927892552775144
1740251545749448400,3.592448486328125,-0.11186817386839538,-5.9389943281501525,6.289034092745185
1740251545759430700,3.6024306640625,0.11303014858616516,-5.998776304417849,5.842381627613306
1740251545769412600,3.61241259765625,0.43395138899087904,-6.172803084024786,5.511718763661384
1740251545779394600,3.62239453125,0.8694681276023387,-6.267822962412238,5.483266576159
1740251545789376500,3.63237646484375,1.4119950421243905,-6.233247323593497,5.576164640086889
1740251545799358700,3.642358642578125,1.9265759651005268,-6.286150061741471,5.512992436859012
1740251545809339600,3.652339599609375,2.2747978666186333,-6.289234583753347,5.331444614097475
1740251545819321600,3.662321533203125,2.373921088671684,-6.169369017922878,5.222188705086708
1740251545829303600,3.672303466796875,2.239795526820421,-6.117601421284675,5.246848514568805
1740251545839285500,3.682285400390625,2.0008353795319795,-6.2401949507743115,5.530764240393042
1740251545849267500,3.692267333984375,1.857473202779889,-6.36750206478238,6.133496909552812
1740251545859249700,3.702249755859375,1.7709680547595024,-6.369982191160321,7.043731931829452
1740251545869230600,3.712230712890625,1.5258756883263587,-6.334903863516449,7.880108521690964
1740251545879212500,3.722212646484375,1.0658499468803404,-6.445515278789401,8.402022271773218
1740251545889194500,3.732194580078125,0.3979635452866554,-6.753927147966623,8.770242420703172
1740251545899176700,3.7421767578125,-0.24879713923521338,-7.120193240219354,9.346635948991775
1740251545909158400,3.752158447265625,-0.6549731440067291,-7.518824894025921,10.167534983736276
1740251545919139600,3.7621396484375,-0.6907691914658993,-7.821034401431679,11.135313847965001
1740251545929121500,3.77212158203125,-0.5682009425479918,-7.901871440687775,12.096865215981007
1740251545939103500,3.782103515625,-0.3452208930712193,-7.611804206496477,13.057768933743239
1740251545949085400,3.79208544921875,-0.24241058000326154,-6.988952878415584,13.780557138347625
1740251545959067600,3.802067626953125,-0.3641664896249771,-6.114791624560952,14.004771551924943
1740251545969049300,3.81204931640625,-0.4923651456452906,-5.3169858806341885,13.743726414078473
1740251545979031600,3.822031494140625,-0.6513210512399673,-4.806036592158675,12.909893078958987
1740251545989012500,3.832012451171875,-0.8093174641527235,-4.66790530179739,11.955122164863347
1740251545998994700,3.84199462890625,-0.7161890986002981,-4.563543010047078,10.963967101222275
1740251546008977700,3.851977783203125,-0.5505260965824127,-4.16094069904387,10.097704491662979
1740251546018959600,3.861959716796875,-0.38699455363526936,-3.457710012346506,9.608577743417024
1740251546028941600,3.871941650390625,-0.42340661410093305,-2.4969658690601584,9.217943518105148
1740251546038922500,3.881922607421875,-0.4279261373519897,-1.44215286450088,9.04971870277524
1740251546048904700,3.89190478515625,-0.33282807916179297,-0.34137539662420746,9.02810191425085
1740251546058886700,3.90188671875,-0.3413188441313803,0.5928863979279995,9.092683399754762
1740251546068868600,3.91186865234375,-0.37309213888049125,1.310733638998866,9.008826720416545
1740251546078850600,3.9218505859375,-0.458676811055094,2.0051883140444753,8.790313148829341
1740251546088832500,3.93183251953125,-0.655799657958746,3.01703895971179,8.704033041736484
1740251546098813400,3.9418134765625,-0.8751344828009605,4.206007336738705,8.721580388864874
1740251546108795600,3.951795654296875,-1.334973177242279,5.16770775783658,8.359581890928744
1740251546118777600,3.961777587890625,-1.9197969724848865,5.706241803330182,7.632054382842779
1740251546128759600,3.971759521484375,-2.674066064763069,5.771251158857345,6.68157093680799
1740251546138741500,3.981741455078125,-3.1489667192578312,5.599918440639972,6.178516785496473
1740251546148723700,3.9917236328125,-3.0833517990529535,5.630563754272461,5.945298396730423
1740251546158704600,4.00170458984375,-2.6032322408661246,5.847813005012274,5.653648861783743
1740251546168686600,4.0116865234375,-1.9354557293877004,6.03853431431055,5.197089919665456
1740251546178668500,4.02166845703125,-1.4654498611971736,6.143531981354951,4.604690428471565
1740251546188650500,4.031650390625,-1.293974811899662,6.23081688157618,3.885818520528078
1740251546198632400,4.041632568359375,-1.216263503448665,6.300975290429592,3.2241186986148356
1740251546208614700,4.05161474609375,-1.1727929027736186,6.35172523445785,2.89553380998075
1740251546218595600,4.061595703125,-0.9340957903355359,6.476990613505244,2.6996926734507083
1740251546228577500,4.07157763671875,-0.7482090615868568,6.664138740491866,2.5695354307085276
1740251546238559500,4.0815595703125,-0.6897635946199298,6.914055750602484,2.6339070728540417
1740251546248541700,4.091541748046875,-0.756545220516622,7.18267746118307,2.5728268734693525
1740251546258523400,4.1015234375,-1.0547975147292017,7.331239544665813,2.189223861968517
1740251546268505600,4.111505615234375,-1.4484247843772171,7.425885329043865,1.7613947552502154
1740251546278487800,4.12148779296875,-1.8127765674412248,7.547814257144927,1.437861889308691
1740251546288468500,4.131468505859375,-2.045570008793473,7.7346993492811915,1.3084557571947575
1740251546298450400,4.141450439453125,-2.156257119651139,8.011160082924366,1.3675316310197114
1740251546308432600,4.1514326171875,-2.2315610746994614,8.29508106944561,1.3233680796444416
1740251546318414600,4.16141455078125,-2.289518173627555,8.484412970212102,1.1405635348200798
1740251546328396500,4.171396484375,-2.398665946088731,8.61714970805347,0.9549386718779802
1740251546338378800,4.181378662109375,-2.5739608459353445,8.747123410922288,0.7409913852930069
1740251546348359700,4.191359619140625,-2.7704510940238833,8.882515047186613,0.6299824951350689
1740251546358341400,4.20134130859375,-2.8765283729985356,9.046135583591461,0.5700929668396711
1740251546368322600,4.211322509765625,-2.8022259962081906,9.2208877548635,0.6290846695125103
1740251546378304500,4.221304443359375,-2.7003137279585,9.532072595885396,0.7593354357570409
1740251546388286500,4.231286376953125,-2.596364400923252,9.905184023988246,0.8958084375172853
1740251546398268400,4.241268310546875,-2.5964266525045034,10.375953277766705,1.0883809276401997
1740251546408250600,4.251250732421875,-2.6896450344279406,10.923325294232368,0.9856997208446263
1740251546418231600,4.2612314453125,-2.8912396199181676,11.228264518862963,0.5629436796069145
1740251546428213500,4.271213623046875,-3.1925314279571175,11.23063650869131,-0.11373393120765686
1740251546438195500,4.281195556640625,-3.5284970744922757,11.14098604838252,-0.7227005263209343
1740251546448177700,4.291177734375,-3.7650788022115824,11.21625727020502,-1.0598889926493167
1740251546458159600,4.30115966796875,-3.7465778076201675,11.435048489689827,-1.2682839058041573
1740251546468141600,4.3111416015625,-3.5453096776053306,11.709451121759415,-1.4382418285369871
1740251546478123800,4.321123779296875,-3.263543823291361,11.972671850079298,-1.6441642140984534
1740251546488104700,4.331104736328125,-3.092010029543936,12.145490422940254,-2.024112794744968
1740251546498086400,4.34108642578125,-3.005188655181229,12.299801863729954,-2.4270932914108037
1740251546508068600,4.351068603515625,-3.0196286839440463,12.438504231977461,-3.0184295372873544
1740251546518050600,4.361050537109375,-3.1575135983288285,12.485880900180339,-3.6125188812643287
1740251546528032500,4.371032470703125,-3.234888222171366,12.408576711225509,-4.226384938856959
1740251546538014700,4.3810146484375,-3.1793174338579178,12.036868720179795,-5.025695826649666
1740251546547995600,4.39099560546875,-3.0153520295381546,11.506416274332999,-5.7095765007108445
1740251546557977600,4.4009775390625,-2.724621070741117,11.001590437173842,-6.037202188923954
1740251546567959600,4.41095947265625,-2.354353341631591,10.492834274828434,-5.764999112725257
1740251546577941800,4.420941650390625,-1.9762465894594787,10.155675034594536,-4.922966104537248
1740251546587923500,4.43092333984375,-1.5394026938974856,10.123166265177726,-3.708840489900112
1740251546597905700,4.44090576171875,-1.1070087634816765,10.093147559010982,-2.313392677950859
1740251546607887600,4.4508876953125,-0.6831739870965481,9.862052153748273,-0.8979390198051929
1740251546617868500,4.46086865234375,-0.08899638031423092,9.267332695174217,0.281601019141078
1740251546627850000,4.47085009765625,0.7008347314715385,8.571018655997515,1.7867881397038696
1740251546637832200,4.480832275390625,1.7940213058277963,7.954239341306686,3.5078906320542096
1740251546647814100,4.490814208984375,2.669500948804617,7.7640709897160525,4.806666122233867
1740251546657796000,4.500796142578125,2.484838793414831,8.282270103189349,5.66275454378128
1740251546667778300,4.5107783203125,1.4795193030819296,8.920929241254925,6.508396974638104
1740251546677759200,4.52075927734375,0.27819208748042584,8.95320127930641,6.748070238631963
1740251546687741000,4.530740966796875,-0.8878057483255862,8.321450605455041,6.310743235728144
1740251546697723100,4.54072314453125,-1.7959084347486496,7.4326581841796635,5.969842470878362
1740251546707705300,4.550705322265625,-2.0092232686489817,6.58647331700921,7.167641220092773
1740251546717687000,4.56068701171875,-1.1720844622433184,6.2977896461308,8.914816311332583
1740251546727669200,4.570669189453125,-0.21791414438933132,6.33009207932055,9.949689520668983
1740251546737651200,4.580651123046875,0.3815598152354359,6.212157773813605,10.541604443216324
1740251546747632400,4.59063232421875,0.5321037201851606,5.782565164554119,10.236037442076206
1740251546757614000,4.600614013671875,0.15528876138925551,5.038338450601697,9.373094332328439
1740251546767596300,4.61059619140625,-0.3764543087899685,4.254709116065502,8.526202193671464
1740251546777578200,4.620578125,-0.8701511414304375,3.448838139104843,7.788908493852615
1740251546787560200,4.630560302734375,-1.6954793907940386,2.4762255711093544,7.238475920772552
1740251546797542100,4.640542236328125,-2.5204703710272907,1.4599205763816832,7.137660507848858
1740251546807523300,4.6505234375,-2.9861610063672064,0.65292936321944,7.365633981698751
1740251546817505000,4.660505126953125,-3.343400034816563,0.30715485485345123,7.742913050875067
1740251546827487200,4.6704873046875,-3.4128646161869165,0.11576806738376617,8.879266859045623
1740251546837469200,4.68046923828125,-3.1220170452728864,-0.3312573227137327,10.139109684240818
1740251546847451100,4.690451171875,-2.945881018427014,-0.93433076813519,10.772371347177028
1740251546857433000,4.70043310546875,-3.1292566411375997,-1.6841349899590015,11.018651462090014
1740251546867415300,4.710415283203125,-3.3695001062348484,-2.4926462522953745,11.100250717890262
1740251546877396200,4.720396240234375,-3.3705811794698235,-3.408134372794628,11.243836182004213
1740251546887378200,4.730378173828125,-3.0966064174234864,-4.2026065883845085,11.259921055364607
1740251546897360100,4.740360107421875,-2.6941721564635635,-4.627664476823806,11.15348195734024
1740251546907342000,4.750342041015625,-2.212548331193626,-4.9216129363626235,11.253250491559506
1740251546917324000,4.760323974609375,-1.6900700790964065,-5.245886391538381,11.044945594775676
1740251546927306200,4.77030615234375,-1.2438836240410804,-5.4845215446561575,10.375080002063513
1740251546937288000,4.780287841796875,-0.8582662039779126,-5.750038859480619,9.628869420817495
1740251546947269000,4.79026904296875,-0.42415830925107,-6.0890305758386845,9.005985944032668
1740251546957251000,4.8002509765625,0.11199220210686325,-6.367413801977038,8.52882318982482
1740251546967233300,4.8102333984375,0.7234113780040293,-6.4441135952979325,8.257234446132182
1740251546977215000,4.820215087890625,1.2908406055271624,-6.457260077118873,8.103894480723142
1740251546987197200,4.830197265625,1.616409945732355,-6.405030123665928,8.275724042546749
1740251546997179400,4.840179443359375,1.807000322127342,-6.465278548401594,8.833532697352766
1740251547007161000,4.8501611328125,1.9723627337634562,-6.779044053566455,9.583712182229757
1740251547017142000,4.86014208984375,2.1184908680975436,-7.478638429588079,10.495925226581097
1740251547027124200,4.870124267578125,2.625734287792444,-8.285499002107978,11.253940227389334
1740251547037106000,4.88010595703125,3.400193642923236,-8.799440458136797,11.546406923937797
1740251547047088000,4.890088134765625,4.010391241136193,-8.996728286343812,11.648068140035868
1740251547057070300,4.9000703125,4.282777272686362,-8.799673097848892,11.984383330661057
1740251547067052000,4.910052001953125,4.297580874064565,-8.150272785538435,12.39479251602292
1740251547077033000,4.920032958984375,3.9487662673503157,-7.518908480656147,12.751705088996886
1740251547087015200,4.93001513671875,3.4206653530657287,-7.441075883913039,12.923733388262987
1740251547096997400,4.939997314453125,2.8384079011797905,-7.754988688594103,12.831811475890873
1740251547106979000,4.94997900390625,2.3839058915913105,-8.020541659253835,12.588770781290531
1740251547116961300,4.959961181640625,2.221156292802095,-8.162599767670034,12.250735927265882
1740251547126943200,4.969943115234375,2.3600375247478484,-8.238670615437627,11.708593043625354
1740251547136925200,4.97992529296875,2.4387469043254852,-8.013439133772254,10.966605633032321
1740251547146906000,4.989906005859375,2.2874118489980697,-7.533251478785276,10.356764593172073
1740251547156888300,4.999888427734375,2.098407865011692,-6.856994723731279,9.898969387257099
1740251547166870000,5.0098701171875,1.8376397905409334,-6.029781099012494,9.536924712091684
1740251547176852200,5.019852294921875,1.511813260704279,-5.052102187538146,9.257149739333986
1740251547186834200,5.029834228515625,1.1795640774089842,-3.94310809545815,8.993297727373243
1740251547196816100,5.039816162109375,0.8413714024741202,-2.966556726709008,8.736838163751363
1740251547206798000,5.049798095703125,0.6117909318190068,-2.0102362450838087,8.369777706250549
1740251547216779300,5.059779296875,0.42330607633590694,-1.1200409712731838,8.100252324828505
1740251547226761200,5.06976123046875,0.06535773057341575,-0.23283377336263655,7.904670131495594
1740251547236743200,5.0797431640625,-0.2812591469008475,0.6296317820012569,7.803609219378233
1740251547246725000,5.08972509765625,-0.6625238516472279,1.427005564251542,7.688475942766666
1740251547256707000,5.09970703125,-1.1198479329191147,2.4244769714325667,7.670632243040203
1740251547266689000,5.10968896484375,-1.6173348054923116,3.3246541255533693,7.368423904678225
1740251547276671200,5.119671142578125,-2.1943642935968932,3.815123812840879,6.736767923372984
1740251547286652200,5.129652099609375,-2.7073569244682787,4.0754830142498015,6.214600490790605
1740251547296634000,5.139634033203125,-3.1009646126329895,4.21812944394797,6.02350274939537
1740251547306616000,5.149615966796875,-3.0784801013633607,4.343775054484605,5.994471885222196
1740251547316598300,5.159598388671875,-2.6199507359549403,4.681086562670767,6.103208154273033
1740251547326580000,5.169580078125,-2.022807849626243,5.229558357071876,6.296994111838936
1740251547336562200,5.179562255859375,-1.5263447671428323,5.786241222718358,6.3219017586022614
1740251547346544400,5.18954443359375,-1.2831599878966808,6.331114992627501,6.217644680792093
1740251547356525000,5.199525146484375,-1.2864055456891654,6.719010148364305,5.792201592427491
1740251547366507000,5.209507080078125,-1.4278443531632423,6.7897250220566985,5.251383235388994
1740251547376489200,5.2194892578125,-1.5076435738041996,6.820772486749291,4.955419344374537
1740251547386471200,5.22947119140625,-1.4917483777970075,7.043795644715428,5.103084771278501
1740251547396453000,5.239453125,-1.4165049207642673,7.402206931814551,5.293978514534235
1740251547406435300,5.249435302734375,-1.4398428339928389,7.621337758517265,5.370969399756193
1740251547416417000,5.2594169921875,-1.5656588326603174,7.727072507664561,5.175787603917717
1740251547426398000,5.26939794921875,-1.7626292654812334,7.737768673723935,4.629387062832713
1740251547436380200,5.279380126953125,-2.0950036095261573,7.783534984120726,4.10620080859661
1740251547446362400,5.2893623046875,-2.507619949543476,7.890912824299931,3.6887621629893776
1740251547456344000,5.299343994140625,-2.82469121825546,7.9356217345982785,3.3039573744833466
1740251547466326300,5.309326171875,-3.0354920235082505,7.956856245806812,3.0027240186333652
1740251547476308200,5.31930810546875,-3.2315175766944884,8.11838945454359,2.737347573584318
1740251547486290200,5.329290283203125,-3.4903558521464464,8.401993630200623,2.4653087480366227
1740251547496271000,5.33927099609375,-3.8052234733343124,8.718916722613573,2.1968910355955362
1740251547506253300,5.34925341796875,-4.096609973430633,8.972290595179796,1.8658885644257068
1740251547516235000,5.359235107421875,-4.293955377043783,9.142574681127071,1.529823549169302
1740251547526217200,5.36921728515625,-4.278630382139981,9.281604966154694,1.3749988981604575
1740251547536199200,5.37919921875,-4.043698175193369,9.610452889639138,1.3701555497825144
1740251547546181000,5.38918115234375,-3.695517190207541,10.080905332553385,1.3653133704483509
1740251547556163000,5.3991630859375,-3.3167186563789843,10.465609583294391,1.2462871780514717
1740251547566144300,5.409144287109375,-2.8655791089609264,10.78406178497076,1.161984508511424
1740251547576126200,5.419126220703125,-2.5318302616924044,11.149836878836155,1.11769820753932
1740251547586108200,5.429108154296875,-2.5577006160080433,11.45533139926195,1.1772528047919273
1740251547596090000,5.439090087890625,-2.5020950486421585,11.617213567566871,1.0587491749644278
1740251547606072000,5.449072021484375,-2.2382455208994445,11.782318789571523,0.29449031133055686
1740251547616054000,5.459053955078125,-1.987342860752344,11.839687274956702,-0.7002098775714636
1740251547626036200,5.4690361328125,-1.8437199872374535,11.724150678241251,-1.6716390810012816
1740251547636018200,5.47901806640625,-1.8193045079052448,11.598797620910405,-2.5714970861703157
1740251547645999000,5.4889990234375,-1.8107384857423603,11.506264298641682,-3.366184405815601
1740251547655981300,5.498981201171875,-1.7967536534011364,11.356984422278403,-4.021303680294752
1740251547665963300,5.50896337890625,-1.7485843735158442,11.264246517348289,-4.51603657798469
1740251547675945200,5.5189453125,-1.5864762875005602,11.238162812542914,-4.851143561863899
1740251547685927400,5.528927490234375,-1.3160332067117093,11.289190404468775,-4.831485506191849
1740251547695909400,5.538909423828125,-1.3432041222319007,11.177304731476307,-4.516594211867451
1740251547705891300,5.548891357421875,-1.5673030927360057,10.852621526455879,-4.4337727207958695
1740251547715872300,5.558872314453125,-1.6935794023916124,10.354463915014266,-4.531270971995592
1740251547725854500,5.5688544921875,-1.7363737112402915,9.834835645520686,-4.455844851872325
1740251547735836200,5.578836181640625,-1.7972855683207511,9.484216619732976,-4.265905048340559
1740251547745818400,5.588818359375,-1.8116458098456263,9.440985965293645,-3.7041812659174203
1740251547755800300,5.59880029296875,-1.593735172587633,9.521690902602671,-2.838248326703906
1740251547765782300,5.6087822265625,-1.3236452891506254,9.362165526556968,-2.0562895557284353
1740251547775764200,5.61876416015625,-1.0616497187115252,9.187817844432592,-1.2347165672451257
1740251547785745400,5.628745361328125,-0.7731167083501815,9.125201521521806,-0.4659516243636608
1740251547795727400,5.638727294921875,-0.6097405020952225,9.123229929187893,0.29872926407456396
1740251547805709300,5.648709228515625,-0.734371236500889,9.25783304542303,1.0438467893868684
1740251547815691300,5.658691162109375,-0.9076702863551676,9.610421909978985,1.944356536462903
1740251547825673200,5.668673095703125,-0.9542927751898765,9.957250895833969,2.9133488681346176
1740251547835655200,5.6786552734375,-1.1635900440119207,10.061123942762613,3.95877386662364
1740251547845637400,5.688637451171875,-1.5278455270946025,9.862375978875159,4.943467625296115
1740251547855619000,5.698619140625,-1.7886976265870034,9.421418510514497,5.659852392598986
1740251547865600300,5.708600341796875,-2.01463053452,9.036843439111113,6.599571283513307
1740251547875582200,5.718582275390625,-2.096442556288093,8.85363148252964,7.603874582540988
1740251547885564400,5.728564453125,-2.1444776883997023,8.619202548930048,8.508037006905674
1740251547895546000,5.738546142578125,-2.1914763170704243,8.04899267771244,9.029417088502646
1740251547905528300,5.7485283203125,-2.216451768372953,7.102862166190147,9.206648801630735
1740251547915510300,5.75851025390625,-2.166667308375984,5.912278170660138,9.399521151483059
1740251547925492200,5.7684921875,-1.9408895910046993,4.7089337700173255,9.550116202098131
1740251547935473200,5.77847314453125,-1.3743851501762867,3.5556904941052196,9.709662036409973
1740251547945455400,5.788455322265625,-0.5963748245656489,2.533015672084689,9.787014156159758
1740251547955437000,5.79843701171875,0.1500843246139586,1.6542384488672017,9.751196992847323
1740251547965419300,5.808419189453125,0.7686823791645467,0.7790420067459345,9.696683896893262
1740251547975401200,5.818401123046875,1.3484404154501854,-0.11429507222175597,9.35283714171946
1740251547985383200,5.828383056640625,1.8058336164355278,-0.8582879774183034,8.880251193907856
1740251547995365400,5.838365478515625,2.214799032729864,-1.3606816189944744,8.516014561656117
1740251548005347300,5.848347412109375,2.6348738720595835,-1.8333412165641783,8.002253138369321
1740251548015328300,5.858328369140625,3.0066052439808844,-2.3599217894136904,7.443558932900428
1740251548025310200,5.868310302734375,3.3872160879284143,-2.8839941788345573,6.981731694990396
1740251548035292400,5.87829248046875,3.7133588441073893,-3.3632366619259115,6.617144349604844
1740251548045274400,5.8882744140625,3.914768720680475,-3.7284628897368908,6.505894051906466
1740251548055256300,5.89825634765625,3.973896616953611,-4.022095122933387,6.692717769244313
1740251548065238300,5.90823828125,3.9525978083372113,-4.417254132193326,7.067355384001136
1740251548075220200,5.91822021484375,3.8580361951112745,-4.796039514279365,7.390643335270881
1740251548085201200,5.928201171875,3.5530256588101383,-5.087956760251521,7.643976875826716
1740251548095183400,5.938183349609375,3.17936887178421,-5.339085484239459,7.871816494163871
1740251548105165300,5.948165283203125,2.7982909948468206,-5.613670487138629,8.095922771191596
1740251548115147300,5.958147216796875,2.4961750109434124,-5.8565679738759995,8.4624852160424
1740251548125129200,5.968129150390625,2.3029817585736514,-6.146706519737839,8.933296555396915
1740251548135111400,5.978111328125,2.214059174147993,-6.436328932771087,9.302124607092141
1740251548145093000,5.988093017578125,2.2082272531241176,-6.900836203545332,9.449290852302312
1740251548155075300,5.998075439453125,2.250840067926049,-7.109293076020479,9.72225789861083
1740251548165056300,6.00805615234375,2.2012772878557443,-7.198315759819746,10.051723661732673
1740251548175038500,6.01803857421875,2.2296043876737355,-7.2810238536447285,10.498992797458172
1740251548185020200,6.028020263671875,2.2830144908219574,-7.359818573418259,10.944008016777039
1740251548195002400,6.03800244140625,2.330487605136633,-7.5898817130237815,11.44333934817314
1740251548204984000,6.047984130859375,2.2679297344148157,-7.990418323668837,11.618963626104593
1740251548214966300,6.05796630859375,2.119069544768333,-8.401480419981478,11.570787331956625
1740251548224948200,6.0679482421875,2.0085165816843507,-8.545155900466442,11.733128934466839
1740251548234930200,6.07793017578125,1.8489058654427528,-8.365206745073198,12.040974401932955
1740251548244911000,6.0879111328125,1.5920184317976236,-8.073270794400573,12.328785966151951
1740251548254893300,6.097893310546875,1.4674194077044724,-7.874532767385244,12.69917761390209
1740251548264875300,6.107875244140625,1.7109931862682104,-7.6119105894804,12.758685449403524
1740251548274857200,6.117857177734375,2.040816676786542,-7.2793415996462105,12.30462066218853
1740251548284839400,6.12783935546875,2.3275474600315094,-7.019740815389156,11.692619229423999
1740251548294821400,6.1378212890625,2.5599475181519984,-6.7957584570020435,10.79541787624359
1740251548304803300,6.14780322265625,2.5465888548851012,-6.51580929672122,9.645418404558301
1740251548314784300,6.1577841796875,2.226190195316076,-6.186829855811595,8.692200565123558
1740251548324766500,6.167766357421875,1.7501228351294993,-5.798119292038678,8.116755131340026
1740251548334748200,6.177748046875,1.3094693181514738,-5.474896222698688,7.786280483436584
1740251548344730400,6.18773046875,0.9445499643325805,-5.286630489858984,7.442650585883856
1740251548354712300,6.19771240234375,0.5841360321741551,-4.903751700979471,7.281499654462933
1740251548364694300,6.2076943359375,0.2841395246427506,-4.431069891577959,7.161631166023016
1740251548374676200,6.21767626953125,-0.0642846214491874,-3.5478994018375873,7.283264326047897
1740251548384658400,6.227658447265625,-0.4394962367016822,-2.5821897450983524,7.457309810355305
1740251548394639400,6.237639404296875,-0.8303191895186901,-1.7657675635069607,7.680860791587829
1740251548404621300,6.247621337890625,-1.2111727561809122,-0.9335948550760745,7.936389796361326
1740251548414603300,6.257603271484375,-1.4338462239265442,-0.20283903259336947,8.2633941378057
1740251548424585200,6.267585205078125,-1.5303870282709597,0.39830549059212206,8.622961609202623
1740251548434567200,6.277567138671875,-1.5602419221781194,0.9875924027234315,8.85627936668992
1740251548444549400,6.28754931640625,-1.457556915990263,1.564959744480252,8.971782645657658
1740251548454531000,6.297531005859375,-1.4106220002055168,2.21158007068336,8.979881196439266
1740251548464513300,6.30751318359375,-1.4450880411699414,2.823922864231467,8.846136158338188
1740251548474495200,6.3174951171875,-1.5821978795289993,3.3140289789035915,8.559498898595571
1740251548484476400,6.327476318359375,-1.644883176022768,3.7720033407777547,8.360708849132061
1740251548494458000,6.3374580078125,-1.606626218342781,4.315439479099214,8.289470243826509
1740251548504440300,6.3474404296875,-1.5209864549800753,4.919169050341845,8.228339775559306
1740251548514422300,6.35742236328125,-1.5166449186444282,5.569386524254083,8.033461346581579
1740251548524404200,6.367404296875,-1.625315428982675,6.138245565384626,7.812802579659223
1740251548534386400,6.377386474609375,-1.750558011676371,6.581689589864015,7.479823255458474
1740251548544368400,6.387368408203125,-1.8405422339841722,6.931792482823133,7.070527584296465
1740251548554350300,6.397350341796875,-1.8441072329893706,7.3677797615557905,6.714134651282429
1740251548564331300,6.407331298828125,-1.7724264368742704,7.816288668209314,6.422801927199959
1740251548574313200,6.417313232421875,-1.7064873992815612,8.202207555437088,6.1795239167124025
1740251548584295200,6.427295166015625,-1.615779831135273,8.596144913947581,5.9359723499804735
1740251548594277400,6.43727734375,-1.5637901161789893,9.041199880754947,5.601253488636017
1740251548604259300,6.44725927734375,-1.6601023724645376,9.436457089692354,5.206884168449044
1740251548614241300,6.4572412109375,-1.8421710042297839,9.800355283769965,4.718285827991366
1740251548624222500,6.467222412109375,-2.0752476464375853,10.079787726700305,4.199989683884382
1740251548634204700,6.47720458984375,-2.3560499164164064,10.33127476260662,3.657155310848355
1740251548644185600,6.487185546875,-2.634711082713306,10.50304236510992,3.065143357667327
1740251548654167300,6.497167236328125,-2.844343136447668,10.57816745646,2.503445294207334
1740251548664149500,6.5071494140625,-2.8760557870507237,10.781577566939593,2.1596382865220307
1740251548674131700,6.517131591796875,-2.790453433088958,11.184448758012056,1.9864993956655264
1740251548684113400,6.527113525390625,-2.734596229049563,11.480048491889237,1.5160177266567945
1740251548694095600,6.537095703125,-2.7222403130844235,11.55833818475008,0.9643868837028742
1740251548704077600,6.54707763671875,-2.642547475427389,11.651128696650266,0.45477848844230173
1740251548714059500,6.5570595703125,-2.514393973723054,11.818413016259669,-0.03695522743165493
1740251548724040400,6.56704052734375,-2.3959883974425495,11.993792964041232,-0.5094710326164961
1740251548734022700,6.577022705078125,-2.3198200806498526,12.17173779387474,-0.94406598020792
1740251548744004600,6.587004638671875,-2.2644167578577994,12.27386779652834,-1.3454291048049927
1740251548753986600,6.596986572265625,-2.215989119297266,12.393210799789427,-1.6391355722814798
1740251548763968500,6.606968505859375,-2.2185747518762944,12.472153988122939,-1.9059604625731705
1740251548773950500,6.616950439453125,-2.220945572660863,12.459879028439522,-2.230184817910194
1740251548783932400,6.626932373046875,-2.2178452685579657,12.43878947865963,-2.5351871709048748
1740251548793914600,6.63691455078125,-2.31984346152544,12.309058352375029,-2.845873999276757
1740251548803895600,6.6468955078125,-2.4431810873806477,12.162182030022144,-2.996327595594525
1740251548813877500,6.65687744140625,-2.58726690223217,12.165200501060486,-2.8614351410239935
1740251548823859500,6.666859375,-2.549058167608082,12.08841069136858,-2.9671938555687665
1740251548833841700,6.676841552734375,-2.6706840211093423,12.049350600612163,-2.9053730669498443
1740251548843823400,6.6868232421875,-2.595817872956395,12.177864752322435,-2.7943127388656137
1740251548853805600,6.6968056640625,-2.4371833082705736,12.367378439396619,-2.7296330536842346
1740251548863787500,6.70678759765625,-2.3578341694846747,12.439507271540164,-2.8653718959510326
1740251548873769500,6.71676953125,-2.2833049982011318,12.222780583369731,-3.233914700964093
1740251548883751700,6.726751708984375,-2.2199846186742187,11.897400628256797,-3.438189319318533
1740251548893732600,6.736732666015625,-1.9742621376439928,11.378021365088223,-3.6983313708454366
1740251548903714300,6.74671435546875,-1.7887129702866076,10.828439855879544,-3.7025966270744797
1740251548913696500,6.756696533203125,-1.4536647308573125,10.452004251790045,-3.676021923881769
1740251548923678700,6.7666787109375,-1.1171733068823815,10.021610263019799,-3.463608422735333
1740251548933660400,6.776660400390625,-0.7777532821096479,9.711502111318707,-2.8165128802359103
1740251548943642600,6.786642578125,-0.15154635999053714,9.687276601600646,-1.853784285134077
1740251548953624600,6.79662451171875,0.5228691511109471,9.910851548230648,-0.8592378254890441
1740251548963606500,6.8066064453125,1.09932303128466,10.21478656425476,-0.11917290739119052
1740251548973587500,6.81658740234375,1.4774853130362926,10.257710344702005,0.20324585982859134
1740251548983569700,6.826569580078125,1.452757845145464,10.096243186938763,0.45290041961073874
1740251548993551600,6.836551513671875,1.2036043667532503,9.961526088935136,0.960078957375884
1740251549003533600,6.846533447265625,0.6523088932335377,9.637895607838034,1.678893582174182
1740251549013515500,6.856515625,-0.05777648166418075,9.244937323492765,3.0472505581021307
1740251549023497500,6.86649755859375,-0.3147567081592977,8.881370553326606,4.92359621913433
1740251549033479400,6.8764794921875,-0.18134660110101103,8.428069736221433,6.506285097050666
1740251549043461600,6.886461669921875,-0.16428579538054763,7.854597063815593,7.482512056151032
1740251549053443300,6.896443359375,-0.2543770582593977,7.234944824036956,7.864142890796065
1740251549063424500,6.906424560546875,-0.33055516579374666,6.601347645536065,7.694417023253441
1740251549073406500,6.916406494140625,-0.3771836459778249,5.960420562538504,7.274273794862627
1740251549083388700,6.926388671875,-0.45635012167319655,5.352113892638683,6.9475698976695535
1740251549093370400,6.936370361328125,-0.7000456269204616,4.73390659097135,6.884291311457753
1740251549103352600,6.9463525390625,-1.0783296353556215,4.068630956397951,7.052230295583605
1740251549113334500,6.95633447265625,-1.4623792215801774,3.3078292474806306,7.459642637217044
1740251549123316500,6.96631640625,-1.7569617412388323,2.590354931375384,8.096380451831221
1740251549133298700,6.976298583984375,-1.8953459834478794,1.81974231480062,8.79139626789093
1740251549143279600,6.986279541015625,-1.9110477027095853,0.9482254379749298,9.423024776667356
1740251549153261300,6.99626123046875,-1.8455694144964216,0.36832302478253837,10.185216770899295
1740251549163243500,7.006243408203125,-1.7067827289663253,-0.24546529139876364,10.676825399088859
1740251549173225700,7.016225830078125,-1.6631914245210586,-1.0454618233680724,10.871440793216228
1740251549183207400,7.02620751953125,-1.7695782078363,-1.8921219068348407,10.807608664774895
1740251549193189600,7.036189697265625,-1.884672759872675,-2.735467166665196,10.603868883949518
1740251549203171600,7.046171630859375,-1.8993641330480575,-3.549607959321141,10.39683006157875
1740251549213153500,7.056153564453125,-1.6837890991307793,-4.227610681259632,10.067760604298114
1740251549223135500,7.066135498046875,-1.3519896323643623,-4.731705281534791,9.744389650920033
1740251549233117700,7.07611767578125,-1.1011258429229258,-5.068258372569084,9.473886948898434
1740251549243098600,7.0860986328125,-0.9557188624702393,-5.384935965788364,9.356500924924015
1740251549253080600,7.09608056640625,-0.8378256196260452,-5.6604427597075695,9.185310830047726
1740251549263062500,7.1060625,-0.7065441951595246,-5.92738163176775,9.000542876195906
1740251549273044500,7.11604443359375,-0.5888600650213659,-6.201054780519009,8.720962549227476
1740251549283026400,7.1260263671875,-0.5353903406403958,-6.5388195854306215,8.237509754964709
1740251549293008600,7.136008544921875,-0.4302805915236473,-6.88552757525444,7.845870736524462
1740251549302990300,7.145990234375,-0.17986673780679702,-7.123645426499843,7.7805451546549795
1740251549312972500,7.15597265625,0.1331200380705297,-7.18163467413187,7.877951635918021
1740251549322954500,7.16595458984375,0.3997511593557894,-7.127845800799131,7.9427733599185935
1740251549332935700,7.175935791015625,0.5332103662528097,-7.111539978164434,8.004668382817506
1740251549342917400,7.18591748046875,0.5221474127076566,-7.133901447576284,8.283281910580396
1740251549352899600,7.195899658203125,0.4282661829613149,-7.158102991896867,8.646676246789097
1740251549362881500,7.205881591796875,0.28652430088743563,-7.43907915713787,8.80183699788451
1740251549372863500,7.215863525390625,0.2563537651598453,-7.789003770920634,9.06131561706662
1740251549382845700,7.225845703125,0.3072282123506069,-7.903584089824557,9.41997591049075
1740251549392827400,7.235827392578125,0.32005949074253437,-7.679615175440907,9.88813001333475
1740251549402809600,7.2458095703125,0.15474398698806763,-7.285867202022671,10.329721103423834
1740251549412791600,7.25579150390625,-0.20257409804686902,-7.095273318496346,10.413435159420967
1740251549422772700,7.265772705078125,-0.5538030724264681,-7.20427554500699,10.29960770471096
1740251549432754400,7.27575439453125,-0.8150934172056615,-7.258523268023133,10.255656334781646
1740251549442736600,7.285736572265625,-0.9386999231301247,-7.155558568111061,10.337269619107246
1740251549452718600,7.295718505859375,-0.9941101140543818,-6.918745369723439,10.346909554111956
1740251549462700500,7.305700439453125,-1.083094511669874,-6.764679428127407,10.010003996378183
1740251549472682500,7.3156826171875,-1.0794634616911412,-6.8393439162284135,9.37007060059309
1740251549482664700,7.325664794921875,-0.9833864754661917,-6.8575693087488405,8.599663151201606
1740251549492646400,7.335646484375,-0.7977721339181065,-6.612436610305309,8.051075913727283
1740251549502628600,7.345628662109375,-0.5828783602632582,-6.135912738522887,7.817348406395316
1740251549512609500,7.355609619140625,-0.3715981009304523,-5.479970457223057,7.689657261505722
1740251549522591500,7.365591552734375,-0.11696984438896178,-4.7183729217529295,7.613063851168751
1740251549532573400,7.375573486328125,0.0017922902442514895,-3.833564601677656,7.452996623331308
1740251549542555600,7.3855556640625,-0.016957272280752656,-2.9663468833506106,7.25064099034071
1740251549552537300,7.395537353515625,-0.18550050591006875,-2.0492869834899903,7.2167591790050265
1740251549562519600,7.40551953125,-0.38150136304646726,-1.0238801061570644,7.398874572521447
1740251549572501500,7.41550146484375,-0.5768751743257046,-0.11880933477580546,7.664879963123798
1740251549582483500,7.4254833984375,-0.6401004229150712,0.5164893869459629,7.909865362051129
1740251549592465700,7.435465576171875,-0.5499053343355655,1.0092314030796288,8.035058844906091
1740251549602446600,7.445446533203125,-0.4209741262570023,1.5525006604015825,7.941089936876296
1740251549612428500,7.455428466796875,-0.3655613049842417,2.18706434584707,7.754664278945326
1740251549622410500,7.465410400390625,-0.3291759863950312,2.7714149706199764,7.490029007652401
1740251549632393500,7.4753935546875,-0.21147052120789883,3.292921893467009,7.042203991609812
1740251549642375700,7.485375732421875,-0.09241758693456649,3.8355741879343985,6.646755644014477
1740251549652357600,7.495357666015625,0.024454057776927947,4.360610453951359,6.281808233144879
1740251549662339600,7.505339599609375,0.013906214147061108,4.922368723165989,6.017592064046859
1740251549672321800,7.51532177734375,-0.12428016740232706,5.35472962809503,5.573174226099252
1740251549682303700,7.5253037109375,-0.34037557193189855,5.6013493502259255,5.0090959895044564
1740251549692285700,7.53528564453125,-0.6103107031986117,5.742775005957484,4.552826970243454
1740251549702266600,7.5452666015625,-0.7541340677216649,5.9486073751479385,4.448750509697199
1740251549712248800,7.555248779296875,-0.7257426704958081,6.358972136846185,4.331787095049023
1740251549722230800,7.565230712890625,-0.6569103956796228,6.730808138185739,4.066695312160253
1740251549732212700,7.575212646484375,-0.6157062786318361,7.126414891213178,3.7314936357349153
1740251549742194700,7.585194580078125,-0.670279434210062,7.522244347080588,3.3652515088796613
1740251549752176600,7.5951767578125,-0.777957426379621,7.770405453434586,2.8163685033291577
1740251549762158600,7.60515869140625,-0.9164056737355888,7.910116121941805,2.261910912516713
1740251549772140800,7.615140869140625,-1.0431402485527097,8.085581994441151,1.8878537279963492
1740251549782122500,7.62512255859375,-1.161274752806872,8.294872979652881,1.6437456964254378
1740251549792104700,7.635104736328125,-1.2772352740228174,8.443319327801465,1.4305039277613163
1740251549802085600,7.645085693359375,-1.3854872666880487,8.537410985428094,1.2235486920207739
1740251549812067800,7.65506787109375,-1.417026022028923,8.695876038765906,1.0968535724312067
1740251549822049500,7.665049560546875,-1.397665195737779,8.928750144138931,0.971231635031104
1740251549832031700,7.67503173828125,-1.354023914670944,9.144933811473846,0.7761579757422208
1740251549842013700,7.685013671875,-1.3324191088452935,9.306014015746117,0.44294776539504527
1740251549851995600,7.69499560546875,-1.3920742438629268,9.475823469918966,0.07989420544803143
1740251549861977600,7.7049775390625,-1.4490204121828079,9.62589245083332,-0.2849585128754377
1740251549871959800,7.714959716796875,-1.4781798711717127,9.739684249708056,-0.6308546017944813
1740251549881941800,7.724941650390625,-1.4688976635634898,9.901452436244487,-0.8344985210299491
1740251549891922700,7.734922607421875,-1.446627379566431,10.15022144536376,-0.9886188231617211
1740251549901904600,7.744904541015625,-1.4397656771034002,10.439980636519193,-1.1935188799381256
1740251549911886600,7.754886474609375,-1.5177873666778205,10.607629697787761,-1.5578811843961475
1740251549921868800,7.764868896484375,-1.6849138653770088,10.62070662150383,-1.9917098237901925
1740251549931850800,7.774850830078125,-1.8911819956362246,10.586900213491916,-2.449564066416025
1740251549941832700,7.784832763671875,-2.0117878584399818,10.616860467469692,-2.777756740862131
1740251549951814700,7.794814697265625,-2.0904396626114843,10.758476092815398,-3.004586305373907
1740251549961796900,7.804796875,-2.073079362487793,10.929801796770095,-3.160542006239295
1740251549971778600,7.814778564453125,-1.9679332268834113,10.99538515279293,-3.439309847781062
1740251549981760800,7.8247607421875,-1.856803632955253,10.938964761912823,-3.7655396977216005
1740251549991741700,7.83474169921875,-1.6915315299510956,10.904680214995144,-3.9175212342590093
1740251550001723600,7.8447236328125,-1.4651248670265078,10.922044022250175,-3.950254460081458
1740251550011706600,7.85470654296875,-1.1900874441847205,10.8945831838727,-4.065701040425896
1740251550021688600,7.8646884765625,-1.0116609683141111,10.564108535969257,-4.401401314023137
1740251550031670800,7.8746708984375,-0.9438593517199159,10.1325419962883,-4.612627066689729
1740251550041652700,7.88465283203125,-0.8207615259699523,9.71500281291604,-4.472954392105341
1740251550051634700,7.894634765625,-0.6818596896275878,9.325832230415939,-3.8783518379092214
1740251550061616600,7.90461669921875,-0.5240224127992987,8.842737748071551,-3.1615052983134984
1740251550071597800,7.914597900390625,-0.3300400558784604,8.342481118524073,-2.469911857917905
1740251550081579800,7.924579833984375,-0.11588994019776581,8.010880681461096,-1.842821577093005
1740251550091561700,7.934561767578125,0.13167670739442108,7.793063275444507,-1.3332587745398283
1740251550101543700,7.944543701171875,0.3593579202994704,7.8226447592377655,-0.7382827108561992
1740251550111526000,7.95452587890625,0.5840541260443628,8.073245659959316,-0.07434124749600887
1740251550121507600,7.964507568359375,0.7984874425806104,8.403597558265924,0.6669032357752323
1740251550131489800,7.97448974609375,1.000962318036705,8.623029413741827,1.5736737968116998
1740251550141471700,7.9844716796875,1.127564790906757,8.500371002322435,2.4676772307336328
1740251550151453700,7.99445361328125,1.1979567162550986,8.168163247016071,3.1639801639944314
1740251550161435600,8.004435546875,1.2147077984392642,7.83179486489892,3.718907710406184
1740251550171416800,8.014416748046875,1.1509982734642923,7.446358792752027,4.2617379917889835
1740251550181398500,8.0243984375,0.9992331561565398,6.985588370418548,4.667032610616087
1740251550191380700,8.034380615234374,0.7039804821513593,6.545264523786306,4.905921446233988
1740251550201362700,8.04436279296875,0.275897839063406,6.228190040203929,5.298112253338099
1740251550211344600,8.0543447265625,-0.21237682239785788,5.851495492917299,5.541559775173663
1740251550221326600,8.06432666015625,-0.8769163977816701,5.1633115687042475,5.692113909256458
1740251550231308800,8.074308837890625,-1.4863465187534688,4.268560531285405,5.862951537433267
1740251550241290800,8.084290771484374,-1.9380607973195612,3.3551164838343857,6.035007309228181
1740251550251272700,8.094272705078126,-2.1902789239794016,2.504876788315177,6.320022520726919
1740251550261255000,8.1042548828125,-2.2696400454640386,1.5166381966426967,6.612687370195984
1740251550271235600,8.114235595703125,-2.191581823271513,0.6562628915563226,6.824966431307792
1740251550281217800,8.1242177734375,-2.0354387831404805,-0.02383037292063236,6.952770388922095
1740251550291199700,8.13419970703125,-1.9207672788217662,-0.6441504289582372,7.025289097166061
1740251550301181700,8.144181640625,-1.8661331868365405,-1.1374357581883667,7.100597728389501
1740251550311163600,8.15416357421875,-1.831956191946566,-1.6163433102369307,7.1648682482481
1740251550321145900,8.164145751953125,-1.7613997236862777,-2.179803707194328,7.172136777946353
1740251550331127600,8.17412744140625,-1.514010186226666,-2.6631734993487597,7.181175239926576
1740251550341109800,8.18410986328125,-1.2747253370285034,-3.082636928781867,7.0470613685131065
1740251550351091700,8.194091796875,-1.1977338672846556,-3.4889363407373426,6.693925975990295
1740251550361073700,8.20407373046875,-1.30057143368572,-3.8572336465567347,6.223504512736201
1740251550371054600,8.2140546875,-1.484252176822722,-4.128853369909525,5.840429324501753
1740251550381036800,8.224036865234375,-1.7567118581309913,-4.344888568684459,5.531100340479612
1740251550391018800,8.234018798828124,-2.035559194649756,-4.614367772877216,5.367476296943426
1740251550401000700,8.244000732421876,-2.229726845009625,-4.932146605336666,5.43798366536498
1740251550410982700,8.253982666015625,-2.1987068528458473,-5.29659834164381,5.630773013108969
1740251550420964600,8.263964599609375,-1.90425511996001,-5.592908854138851,5.824025302189588
1740251550430945500,8.273945556640625,-1.5219246126130221,-5.773422073155642,5.881628180852532
1740251550440927700,8.283927734375,-1.3424378140345214,-5.793935284352302,5.805538628384471
1740251550450909700,8.29390966796875,-1.388465405716002,-5.638898451897502,5.831176342988014
1740251550460891600,8.3038916015625,-1.6213900722324848,-5.5276142519295215,5.889046348154545
1740251550470873600,8.31387353515625,-1.990233613757789,-5.597072988080978,6.117878484660387
1740251550480855800,8.323855712890625,-2.3993510057434437,-5.726241804307699,6.530386688128114
1740251550490837800,8.333837646484374,-2.7137919259518384,-5.861791261482239,6.957230875462293
1740251550500819700,8.34381982421875,-2.8390055748119947,-5.9776171965330835,7.584906847220659
1740251550510802000,8.353802001953126,-2.748985696668923,-6.131649820381402,7.982361858463287
1740251550520783600,8.36378369140625,-2.698324015446007,-6.265158127117156,7.951371092393994
1740251550530764500,8.3737646484375,-2.8107711217135187,-6.205168645578622,8.137146761983633
1740251550540746800,8.383746826171874,-2.8674069089099765,-5.998339082044363,8.475159404176473
1740251550550728700,8.393728759765626,-2.85178059297204,-5.767258289828896,8.770993531331419
1740251550560710700,8.403710693359375,-2.835916961146891,-5.675153422105312,8.944446310442686
1740251550570692900,8.41369287109375,-2.9304937719419595,-5.667545285189151,9.090628220790624
1740251550580674600,8.423674560546875,-2.9882509643837807,-5.617784936720133,9.30080475666523
1740251550590656800,8.43365673828125,-2.8863045016035436,-5.544361388590931,9.504422372415661
1740251550600638700,8.443638671875,-2.6240564177080987,-5.695480755341053,9.393349184849857
1740251550610620700,8.45362060546875,-2.2671128650739787,-6.047453533825278,8.606676829355955
1740251550620602600,8.4636025390625,-1.9456150120913982,-6.2649757562875745,7.612311571496725
1740251550630583800,8.473583740234375,-1.771625349624455,-6.140189685189724,6.940456850793957
1740251550640564700,8.483564697265624,-1.6349822519943118,-5.706095088335871,6.534325196620822
1740251550650546700,8.493546630859376,-1.483336231021583,-5.227870842376351,6.266186301121115
1740251550660529000,8.50352880859375,-1.372958039982617,-4.747380989572406,6.148818397325277
1740251550670510800,8.5135107421875,-1.3163669687107205,-4.257368106141686,6.20798954821825
1740251550680492800,8.523492919921875,-1.162930995581299,-3.648057812157273,6.193537244495749
1740251550690474800,8.533474853515624,-0.988096845114231,-2.980314618426561,6.096343529200554
1740251550700457000,8.54345703125,-0.8798048126995563,-2.103111512658,6.237316764989495
1740251550710438700,8.553438720703125,-0.8500390583805739,-1.1855354799687863,6.237877906003594
1740251550720420900,8.5634208984375,-0.9278580649897455,-0.4393161308944225,5.934954112848639
1740251550730402800,8.57340283203125,-1.1152467227339744,0.03983049060702323,5.509188368400931
1740251550740384800,8.583384765625,-1.2269988324746488,0.4682745143532753,5.238883234778046
1740251550750365700,8.59336572265625,-1.1399907033681869,0.908550722451508,5.131141821983456
1740251550760348000,8.603347900390625,-0.8798384227082133,1.3053311954334377,5.0461692903578275
1740251550770329600,8.61332958984375,-0.5766776059269905,1.653202676078677,4.942039638319612
1740251550780311800,8.623311767578125,-0.3001052286028862,2.011882550986111,4.797072948980331
1740251550790293800,8.633293701171874,-0.12370602077618241,2.3250123885959386,4.576615257588029
1740251550800275700,8.643275634765626,-0.07798793343529105,2.6069845791369675,4.288303342631459
1740251550810257700,8.653257568359376,-0.08601473415493964,2.8091733311280604,3.9465252104252575
1740251550820240000,8.663239990234375,-0.02178045465350151,2.957590453182161,3.6827924409300086
1740251550830221800,8.673221923828125,0.1901908556833863,3.2126620695769783,3.5573224792212246
1740251550840203800,8.683203857421875,0.4946005034819245,3.587265782064199,3.4986493409782646
1740251550850186000,8.69318603515625,0.7530582551836967,4.03257150876224,3.3737598095059393
1740251550860167000,8.7031669921875,0.8456358549855649,4.469113791029155,3.090858229160309
1740251550870148900,8.71314892578125,0.7244678282544016,4.831662616324424,2.8006372657120226
1740251550880130800,8.723130859375,0.50795302926898,5.100813903737068,2.6481471951305866
1740251550890112800,8.73311279296875,0.39595863520503044,5.362219691589474,2.570228089147806
1740251550900094700,8.7430947265625,0.4798854571700096,5.732549964541197,2.4775246710091827
1740251550910077000,8.753076904296876,0.5729907341077923,6.181258193159103,2.312387884822488
1740251550920058600,8.76305859375,0.4807235154293477,6.646017392867803,2.0673919645011423
1740251550930040800,8.773040771484375,0.193157742664963,7.023759987902641,1.6489999636918304
1740251550940022800,8.783022705078125,-0.1258710898555815,7.229632689103484,1.2124620653390883
1740251550950004700,8.793004638671874,-0.2792997564613819,7.335445764183998,0.9047545450389385
1740251550959986700,8.802986572265626,-0.1816333090879023,7.4683905918180935,0.6526046613097191
1740251550969969000,8.812968994140626,0.03352569137439131,7.659248679238558,0.43998365489244456
1740251550979949800,8.82294970703125,0.3021813042245805,7.931333097493648,0.2287269225656986
1740251550989931800,8.832931884765625,0.47660161319375033,8.273696920633316,-0.05652911195158958
1740251550999913700,8.842913818359374,0.46099721682667727,8.543755386018752,-0.48095863935947414
1740251551009895700,8.852895751953126,0.3291313435357064,8.705645737630128,-0.9373521617829799
1740251551019877600,8.862877685546875,0.1766997982084751,8.879271535220742,-1.260805532747507
1740251551029859800,8.87285986328125,0.09330613327212631,9.106953917169571,-1.4623860897123813
1740251551039841800,8.882841796875,0.09212072287984192,9.387034594875573,-1.6514157926619053
1740251551049823700,8.89282373046875,0.13906944799423218,9.648285484427213,-1.8772399795234203
1740251551059806000,8.902805908203124,0.14944471153616903,9.800860895204544,-2.245543130561709
1740251551069787600,8.91278759765625,0.1693640302265994,9.842660055536031,-2.736748438647389
1740251551079769900,8.922769775390625,0.15748892004834486,9.868751943647862,-3.224960410135984
1740251551089750800,8.932750732421875,0.0846235811906401,9.88798271381855,-3.656412968048453
1740251551099733000,8.94273291015625,0.015184700517123563,9.880234291648865,-4.008417310714721
1740251551109714700,8.952714599609376,0.01185760648760479,9.898833778178691,-4.15737803812623
1740251551119697000,8.96269677734375,0.15392682538628577,10.021249028491972,-4.209700346037745
1740251551129678800,8.972678955078125,0.3454617891550064,10.123313564693927,-4.218339579567313
1740251551139660800,8.982660888671875,0.539070636588335,10.109425324594975,-4.33210916661024
1740251551149642800,8.992642822265625,0.7502934666454791,10.077946482747793,-4.430687029740214
1740251551159624700,9.002624755859374,0.8769242888271808,10.088644402372836,-4.470671249604225
1740251551169606700,9.012606689453126,0.9983855994164943,10.13766942230463,-4.432832809597254
1740251551179588900,9.0225888671875,1.133729304885864,10.117828411281108,-4.420186093991995
1740251551189570600,9.032570556640625,1.236323417919874,9.913369668531418,-4.443652894297242
1740251551199552800,9.042552734375,1.2332137614667416,9.638859484434127,-4.345394180119038
1740251551209533700,9.05253369140625,1.1064075827181339,9.290440014517307,-4.106263936960697
1740251551219516000,9.062515869140626,0.8723182563364505,8.858478338038921,-3.7447184434890746
1740251551229497600,9.07249755859375,0.5499368985176086,8.477525548785925,-3.0633652420789
1740251551239479800,9.082479736328125,0.3788262986183166,8.151621277537942,-2.217116077500582
1740251551249462000,9.0924619140625,0.3891325885772705,7.843118222945928,-1.2635820117235184
1740251551259443700,9.102443603515624,0.5813046812057495,7.680783634698391,-0.11263678362071514
1740251551269426000,9.112426025390626,0.8417372401118278,7.530563847136497,1.110435523059964
1740251551279407600,9.12240771484375,1.0919266374230385,7.3712664346277705,2.06478558139503
1740251551289389800,9.132389892578125,1.2142939569413662,7.3617106707751745,2.8079408667236563
1740251551299371800,9.142371826171875,1.111357387145236,7.500534619575738,3.4574586679339405
1740251551309353700,9.152353759765624,0.8491887251615524,7.5296473168134685,3.9168028568565845
1740251551319335700,9.162335693359376,0.4819885669291019,7.393499309223889,4.313919429925084
1740251551329318000,9.17231787109375,0.08766659301519393,7.044421083137393,4.870979896712303
1740251551339298800,9.182298828125,-0.19508776087947188,6.570742663913965,5.427062458378076
1740251551349280800,9.19228076171875,-0.4356665223456919,5.949502862682938,5.821872508069872
1740251551359262700,9.2022626953125,-0.5720763957418501,5.241313092273473,6.08245645814538
1740251551369245000,9.212244873046876,-0.7703158255852759,4.493185863751172,6.218977975222468
1740251551379226600,9.2222265625,-1.1041771933175624,3.6634804222166535,6.032916474428773
1740251551389208800,9.232208740234375,-1.3904045570850372,2.7426415883392092,5.594952342665195
1740251551399190800,9.242190673828125,-1.6460826149404049,1.8099840141132473,5.301823382815718
1740251551409172700,9.2521728515625,-1.868259531340748,0.9390393842175603,5.192525388228893
1740251551419155000,9.262155029296874,-1.992139447379112,0.2700356690317392,5.319405216735601
1740251551429136600,9.27213671875,-1.9525766677975653,-0.21767916658967731,5.413541298025846
1740251551439118800,9.282118896484375,-1.9419044671356678,-0.6522349512144923,5.368911298182606
1740251551449100800,9.292100830078125,-2.0443730540938674,-1.0533131213903426,5.243208696761727
1740251551459082000,9.30208203125,-2.1861716347910463,-1.3494669820189475,5.098008198666572
1740251551469063700,9.312063720703126,-2.3527510210014877,-1.544500893819332,4.992960262739658
1740251551479046000,9.3220458984375,-2.5207412969231604,-1.7244845360040664,5.076604176110029
1740251551489027800,9.33202783203125,-2.5891303580164906,-1.937135353037715,5.3291790072530505
1740251551499009800,9.342009765625,-2.5866110686719415,-2.2490619523376223,5.696022607132792
1740251551508991700,9.35199169921875,-2.415386925395578,-2.742554494577646,6.11265052087903
1740251551518974000,9.361973876953124,-2.120784678123146,-3.4291479347288605,6.214112999534606
1740251551528955600,9.37195556640625,-1.807367255743593,-3.969200568091869,6.167583888071775
1740251551538937900,9.381937744140625,-1.4903870263159273,-4.317034931597114,6.053972121939062
1740251551548919600,9.39191943359375,-1.146481380561739,-4.613350120267271,5.987031506088376
1740251551558901800,9.40190185546875,-0.7447428467810153,-4.857765610352159,5.81221679097414
1740251551568884000,9.411884033203124,-0.36603476771488785,-5.144187766039371,5.518840578365325
1740251551578865000,9.421864990234376,-0.09419804061055183,-5.413783874610066,5.447204498174786
1740251551588846600,9.4318466796875,0.13796820875406265,-5.618937029364705,5.676021437111497
1740251551598828800,9.441828857421875,0.24712175336889922,-5.704366657108068,6.208235047411918
1740251551608810800,9.451810791015625,0.2109714125793427,-5.814091937196254,6.981579719299077
1740251551618792700,9.461792724609374,0.04373173582926392,-5.932130872121453,7.732568182471394
1740251551628775400,9.471775390625,-0.16399930658936498,-6.131558634966612,8.256530681777
1740251551638757000,9.481757080078125,-0.44676191685572264,-6.456606581646204,8.586982533326745
1740251551648739300,9.4917392578125,-0.7767617868542671,-6.768175453549623,8.900023815870284
1740251551658721300,9.50172119140625,-1.0373943983770906,-7.055780681541561,9.143362616634368
1740251551668703200,9.511703125,-1.1276036616124212,-7.319091426232457,9.484815170148014
1740251551678685200,9.521685302734374,-1.0842413436174392,-7.394011934921145,10.076738860523701
1740251551688667400,9.53166748046875,-1.0593291668094693,-7.303376555228233,10.709653317457438
1740251551698649000,9.541649169921875,-1.0419875713862479,-7.255216043171286,11.262990964329243
1740251551708630300,9.55163037109375,-0.9159842334531247,-7.307926473617553,11.626816093170643
1740251551718612200,9.5616123046875,-0.6656720865450799,-7.510127208307385,11.846392910075187
1740251551728594200,9.57159423828125,-0.20829203730225562,-7.634078582146763,11.822383088934421
1740251551738576100,9.581576171875,0.22801614394783973,-7.6134017048209905,11.397012481284142
1740251551748558300,9.591558349609375,0.3734253163576126,-7.598468924105167,10.602537343084812
1740251551758540300,9.601540283203125,0.2468387717090547,-7.525697117882967,9.718819156333804
1740251551768522200,9.611522216796875,0.0801870509147644,-7.253135145244002,8.87472337039709
1740251551778504400,9.62150439453125,-0.03554462998136878,-6.854402369150519,8.39732213125825
1740251551788486100,9.631486083984376,-0.0449156849168241,-6.148375329732895,8.248558972245455
1740251551798468400,9.64146826171875,-0.02651186708956957,-5.119349677380919,8.303777586120367
1740251551808450300,9.6514501953125,-0.08252849947437643,-3.905518661776185,8.519604110580682
1740251551818432300,9.661432373046875,-0.13140285888910294,-2.6845740147739647,8.552771051645278
1740251551828414200,9.671414306640624,-0.30359234006628394,-1.517732713881135,8.3846181325078
1740251551838396400,9.681396484375,-0.5535996588088572,-0.516123476243019,8.07484432732761
1740251551848377300,9.69137744140625,-0.8497839145757258,0.1928945616841316,7.568330975472927
1740251551858359300,9.701359375,-1.1328832094505428,0.9265940364032983,7.210891748276352
1740251551868341200,9.71134130859375,-1.2975637763023375,1.6476012028098106,7.0584215514391655
1740251551878323200,9.7213232421875,-1.4178105965353547,2.154693815857172,7.057255430269241
1740251551888305200,9.73130517578125,-1.4572038647688925,2.572054720053077,6.9811512647539375
1740251551898287400,9.741287353515625,-1.4200887706004082,2.904396038611233,6.658760554584861
1740251551908269000,9.75126904296875,-1.3640097405038774,3.138610744938254,6.264337458384037
1740251551918251300,9.761251220703125,-1.3230161974668502,3.4320316734716294,5.8296899038225405
1740251551928233500,9.7712333984375,-1.3254875560164452,3.7599037376612423,5.326548658749461
1740251551938215200,9.781215087890626,-1.2939466087184845,4.0921892343789334,4.883977325451374
1740251551948197400,9.791197265625,-1.228890491440147,4.45233742827326,4.511483736985921
1740251551958179300,9.801179443359375,-1.1135270593345166,4.7335459409654135,4.12690282036364
1740251551968161300,9.811161376953125,-0.9189081580758094,4.975418760830164,3.793787302562594
1740251551978142200,9.82114208984375,-0.6727578070223331,5.3311617055028675,3.5383979985207317
1740251551988124400,9.83112451171875,-0.4994632872126996,5.7407741875290865,3.2893045797526836
1740251551998106400,9.8411064453125,-0.4592331297636032,6.100254565164446,2.925735471498966
1740251552008088300,9.85108837890625,-0.5591559777617454,6.342392173445225,2.5377538065224883
1740251552018070300,9.8610703125,-0.7517651466332376,6.582241378527879,2.235496952843666
1740251552028052200,9.87105224609375,-0.9524995350975543,6.815885299229621,1.9908388861745594
1740251552038034200,9.8810341796875,-1.0868846977330744,6.9123431014657015,1.86946350030303
1740251552048016400,9.891016357421876,-0.97595055331178,7.038049794539809,1.8101462189376354
1740251552057998000,9.900998046875,-0.6835258692741394,7.353059162285923,1.7330290769875047
1740251552067980300,9.910980224609375,-0.4715433068908751,7.701004000428319,1.6019517967909573
1740251552077962200,9.920962158203125,-0.40268414406776426,8.049448020264506,1.3729694381594657
1740251552087944200,9.930944091796874,-0.4824561844408512,8.331592644762992,0.8841811280876397
1740251552097926400,9.940926513671876,-0.6937059755701571,8.50582459155321,0.40141163991391654
1740251552107908400,9.950908447265626,-0.900785787538439,8.621397428625821,0.16112696602344512
1740251552117889300,9.96088916015625,-0.9726187785405666,8.79189778767228,0.16431611745357513
1740251552127871200,9.970871337890625,-0.8680162482935935,8.994189123255014,0.19212182374596595
1740251552137853400,9.980853515625,-0.6459060404539108,9.18841990197897,0.3059557081967592
1740251552147835100,9.990835205078126,-0.22021160767674444,9.34744668085277,0.3601882336437702
1740251552157817300,10.0008173828125,0.25936529500074684,9.577074351650475,0.18733868112266064
1740251552167799300,10.01079931640625,0.7302187199313193,9.897515096795559,-0.04830488896369934
1740251552177781200,10.02078125,1.0461200680810958,10.081657027703523,-0.5180488913476466
1740251552187763200,10.03076318359375,1.0583376715540884,10.068686486971378,-1.0648556751459837
1740251552197745400,10.040745361328124,1.0021078348100185,10.05587142906189,-1.7230998036473988
1740251552207727000,10.05072705078125,1.0904454589545727,10.132532643938063,-2.2742490005642173
1740251552217709300,10.060709228515625,1.169849250537157,10.333631554865837,-2.605504569712281
1740251552227691300,10.070691162109375,1.0217442631721496,10.590899512261151,-2.7399855208724735
1740251552237673200,10.080673095703125,0.7808464258193969,10.898118372261523,-2.579067813685536
1740251552247655400,10.090655517578124,0.49759066174123434,11.346665272837877,-2.360292376291752
1740251552257636400,10.10063623046875,0.2377461318561807,11.683154650986195,-2.471474284929037
1740251552267618300,10.110618408203125,-0.04182721738219261,11.786266650414467,-2.816429878127575
1740251552277600300,10.120600341796875,-0.25952538093328475,11.810236724066733,-3.336381972748041
1740251552287582500,10.13058251953125,-0.37682314210236073,11.799883672356605,-3.9970910300582645
1740251552297564200,10.140564208984374,-0.3187655054092407,11.49528113233447,-4.830355625379085
1740251552307546400,10.15054638671875,-0.22843813221957532,10.981291160988807,-5.667661020523309
1740251552317528300,10.1605283203125,-0.05973229190707206,10.461314516448974,-6.41709465546906
1740251552327510300,10.17051025390625,0.18693653006255626,10.005499670696258,-6.7401721788585185
1740251552337492200,10.1804921875,0.4987590114008635,9.638736734837293,-6.536283344951272
1740251552347474400,10.190474365234374,0.9268881239790469,9.19102686960697,-5.9643824519068
1740251552357456100,10.2004560546875,1.4299842878013849,8.824141184151172,-5.112337168270349
1740251552367438300,10.210438232421875,1.9865040718406437,8.561658122456073,-4.129092439362407
1740251552377420300,10.220420166015625,2.5673382129251956,8.378430383783579,-3.1021324873685834
1740251552387402200,10.23040234375,3.2284044131100176,8.305326569128036,-2.1454987020105123
1740251552397383200,10.240383056640624,4.00338340820074,8.367309270310402,-1.0720517241299152
1740251552407365400,10.250365478515626,4.77820049072802,8.589680101847648,0.05270926140248775
1740251552417347000,10.26034716796875,5.322062453246116,8.92345671390593,1.084903606918454
1740251552427329300,10.270329345703125,5.522050772583484,9.332858183529973,2.0731436598956585
1740251552437311200,10.280311279296875,4.9619537145793435,9.649908117192982,3.1558710918188093
1740251552447293200,10.290293212890624,3.6723958423390983,9.484783021444082,4.844831894499063
1740251552457275400,10.300275390625,2.163536024612933,8.781990726163983,6.7205053553581235
1740251552467257300,10.31025732421875,0.9414838547602296,7.603605117949843,8.341746959030628
1740251552477239300,10.3202392578125,0.02850771708190441,6.311670287445187,9.609900516453385
1740251552487221200,10.33022119140625,-0.7833468643330037,5.140566068410873,10.126540125524997
1740251552497203500,10.340203369140625,-1.483883489640802,4.183616056710481,9.771146140420436
1740251552507185200,10.35018505859375,-2.0234828262783586,3.263346547153592,8.924758444154262
1740251552517167400,10.36016748046875,-2.565660635101795,2.264501221270859,7.738680527871847
1740251552527149300,10.3701494140625,-3.239257815557718,1.3177718670725822,6.711905284795165
1740251552537131300,10.38013134765625,-4.028453552049398,0.46317719121426343,5.874988596707582
1740251552547113200,10.39011328125,-4.779231002819538,-0.4679544886186719,5.4125844356924295
1740251552557094400,10.400094482421874,-5.389444967645407,-1.3214470484539866,5.22128912589848
1740251552567076000,10.410076171875,-5.753600935876369,-2.0225266945973037,5.274172574824094
1740251552577058300,10.420058349609375,-5.8694905838131906,-2.5349597918897864,5.45851791934967
1740251552587040300,10.430040283203125,-5.806631099796295,-2.8670862986534833,5.586782480213046
1740251552597022200,10.440022216796875,-5.590278505635261,-3.2225147705495356,5.709139278337359
1740251552607004200,10.450004150390624,-5.151863707494735,-3.4554350531518456,5.5615638678044075
1740251552616986400,10.459986328125,-4.4344718089759345,-3.497746254658699,5.331112605664134
1740251552626968300,10.46996826171875,-3.6813492563843724,-3.392479707545042,4.983022806093096
1740251552636950300,10.4799501953125,-3.0110417651236054,-3.1684967646360396,4.58360730843246
1740251552646932500,10.489932373046875,-2.355118188524246,-3.0240029535055157,4.197768500703573
1740251552656914200,10.4999140625,-1.665695516296476,-2.9878759935915467,3.86979443744421
1740251552666896400,10.509896484375,-1.061048684078455,-3.0246622941970824,3.749661160588264
1740251552676878300,10.51987841796875,-0.4557902958333492,-3.106197837111354,3.773919403532147
1740251552686860300,10.5298603515625,0.14028872412350027,-3.285390036657452,3.8358033205151556
1740251552696842200,10.53984228515625,0.6866156519830227,-3.5151106464356183,4.053059585517644
1740251552706823400,10.549823486328124,1.1937293078184128,-3.774419169747829,4.144375933212042
1740251552716805000,10.55980517578125,1.4944973842442035,-4.05776732481718,4.193095832717418
1740251552726787300,10.569787353515625,1.6293687960267067,-4.314271312102675,4.315369044211507
1740251552736769300,10.579769287109375,1.5978841089606284,-4.587473920732736,4.5645214996904135
1740251552746751200,10.589751220703125,1.5075217009902,-4.769215220239758,4.99321803689301
1740251552756733200,10.599733154296874,1.4797265160918236,-4.9121360829651355,5.535724493148923
1740251552766715400,10.60971533203125,1.4158067093670368,-4.992479201224446,6.033896133115888
1740251552776697300,10.619697265625,1.3255085988044737,-4.830936640137434,6.655677786138654
1740251552786679300,10.62967919921875,0.999669209486246,-4.555156289973855,7.074112457045913
1740251552796661500,10.63966162109375,0.3735784610927105,-4.474089533615112,7.251859133958816
1740251552806643200,10.649643310546875,-0.3785609256803989,-4.6048254530280825,7.320443425363302
1740251552816625400,10.65962548828125,-0.977436261824891,-4.765324642542004,7.693176667803526
1740251552826607000,10.669607177734376,-1.2855576966881752,-4.7461757054358715,8.341577447682619
1740251552836589300,10.67958935546875,-1.3033598953604697,-4.612863213533163,8.999981150659918
1740251552846571300,10.6895712890625,-1.2017139498967677,-4.5170916399955745,9.834790052813291
1740251552856553200,10.69955322265625,-1.0926268215816468,-4.515511092805863,10.365427207577229
1740251552866534100,10.7095341796875,-1.1363199789661913,-4.562129051595926,10.420416688871383
1740251552876516400,10.719516357421876,-1.260727206814289,-4.645425174441933,10.009640423762798
1740251552886498300,10.729498291015625,-1.4734651176095008,-4.692293308600783,9.435011567059158
1740251552896480300,10.739480224609375,-1.6241875939965247,-4.787895370790362,8.669145852750539
1740251552906462200,10.749462158203125,-1.7239888614416121,-5.036144155427813,7.848592854964733
1740251552916444400,10.7594443359375,-1.7059107684373855,-5.311354596748948,7.119644374164938
1740251552926426000,10.769426025390626,-1.5292191535353659,-5.395196078518032,6.5083291700989
1740251552936408300,10.779408203125,-1.2720622552990912,-5.171496044203638,6.072299805790186
1740251552946390300,10.789390380859375,-1.0774362667124717,-4.827443537324667,5.795930842083692
1740251552956372200,10.799372314453125,-0.8967746522009372,-4.4251223813503975,5.576202634009719
1740251552966354400,10.8093544921875,-0.7370424284715205,-3.961180927765369,5.196529947695136
1740251552976336100,10.819336181640624,-0.6074293025434017,-3.453837554827332,4.898393388816714
1740251552986318300,10.829318359375,-0.4460241041004657,-2.907266333350539,4.7160324961066244
1740251552996300300,10.83930029296875,-0.26179920761678366,-2.2473574865072963,4.555312941840291
1740251553006282200,10.8492822265625,-0.1483610079526901,-1.5338246015042065,4.370855369111895
1740251553016264200,10.85926416015625,-0.0871324130732566,-0.819537683263421,4.194259615799784
1740251553026245400,10.869245361328124,-0.05135499724932015,-0.12364391532540321,3.966891706627607
1740251553036227300,10.879227294921876,-0.05428681291751563,0.45992461915910243,3.5840374676674602
1740251553046209300,10.889209228515625,-0.1416215070972219,0.9191723619699478,3.27707696634233
1740251553056191200,10.899191162109375,-0.3584744885284453,1.2283873642235994,2.932133648103475
1740251553066173400,10.90917333984375,-0.6516963873583823,1.4635402281835674,2.6439468208312986
1740251553076155100,10.919155029296874,-0.933599531251192,1.6278712509453295,2.5789240213006734
1740251553086137300,10.929137451171876,-0.9646036682587117,1.8326158248990774,2.7161440420359373
1740251553096119000,10.939119140625,-0.7595125458896159,2.1715403212398288,2.759640069413185
1740251553106101200,10.949101318359375,-0.6424375606257469,2.4941598717287183,2.7277093921452757
1740251553116083500,10.95908349609375,-0.5887257711172104,2.8686449262723324,2.6548914086937905
1740251553126065200,10.969065185546874,-0.6136719963252544,3.230309662209451,2.389125087544322
1740251553136047400,10.97904736328125,-0.7171195113182067,3.5483898157030342,2.088213218733668
1740251553146029300,10.989029296875,-0.8892308126926421,3.9115377759352326,1.854949821782112
1740251553156011300,10.99901123046875,-1.0392340348944067,4.333119220435619,1.5929057360261678
1740251553165993200,11.0089931640625,-1.2808185393370688,4.686977958796918,1.3276935416281221
1740251553175975400,11.018975341796875,-1.4963107172764838,5.035456757685542,1.110650042593479
1740251553185957000,11.02895703125,-1.6181448067009447,5.380459112635254,0.8363403495043515
1740251553195938300,11.038938232421875,-1.5606759296812116,5.68011776651442,0.47624447031915185
1740251553205920300,11.048920166015625,-1.4310019404113292,5.882486258986592,0.1344271751463413
1740251553215902200,11.058902099609375,-1.3165502163231373,6.073501582795381,-0.1362321787416935
1740251553225884200,11.06888427734375,-1.2320108154177665,6.200669580593705,-0.4490466667920351
1740251553235866400,11.078866455078124,-1.2000982583284376,6.247736452195048,-0.6873679316550493
1740251553245848000,11.08884814453125,-0.49695685734972356,6.86495591186881,2.1276351285398003
1740251553255830300,11.098830322265625,1.001397202322632,11.199728160208464,5.535880560493469
1740251553265812500,11.1088125,-2.8499276585817337,11.616865192520617,0.03750526252985
1740251553275794200,11.118794189453125,-3.9567093353092666,8.36186386438608,-2.5946733790963887
1740251553285776400,11.1287763671875,-1.757393118393421,8.937114067858458,-3.874085412636399
1740251553295758300,11.13875830078125,-1.8096772862516342,9.916236163878441,-4.30255047917068
1740251553305740300,11.148740234375,-2.097844385910034,9.62249813221991,-3.824401052013039
1740251553315722200,11.15872216796875,-1.4122177449643611,9.054898735761642,-3.3993624527961015
1740251553325704400,11.168704345703125,-1.1347814442873,8.314227668464182,-3.0739462573260066
1740251553335686100,11.17868603515625,-0.763015001052618,7.577934670120477,-2.133516003271937
1740251553345668400,11.18866845703125,0.19188275429308413,7.211466917815804,-1.27077806070745
1740251553355650300,11.198650390625,0.8676333133906126,7.389225285166502,-0.696682287967205
1740251553365632300,11.20863232421875,1.3084990118145943,7.980601278531551,-0.6614063919246196
1740251553375613200,11.21861328125,1.6057260546326637,8.425998775166272,-1.2092746674746275
1740251553385595400,11.228595458984374,1.7436135993659496,8.61453747972846,-2.0733342140316964
1740251553395577000,11.2385771484375,1.8724936617791652,8.86552884107232,-2.985712678077817
1740251553405559300,11.248559326171875,2.191639106416702,9.242661195254325,-3.6528871320098637
1740251553415541200,11.258541259765625,2.4467186138570307,9.5934807120502,-3.952707113930583
1740251553425523200,11.268523193359375,2.532542209354043,9.7308176371634,-4.17748208400011
1740251553435505400,11.27850537109375,2.57460323549211,9.510237780696153,-4.280260321429371
1740251553445487400,11.2884873046875,2.611148128557205,9.206109872448444,-4.108890778332948
1740251553455469300,11.29846923828125,2.5846675333887337,9.049018445551395,-3.662992930960655
1740251553465451300,11.308451171875,2.550965754795074,8.643610429477691,-2.9819834284216165
1740251553475433500,11.31843359375,2.5356536193728445,7.872922409579157,-2.4234844532638786
1740251553485415200,11.328415283203125,2.626439221191406,7.086148347276449,-1.9570050056338308
1740251553495397400,11.3383974609375,2.7565695759266613,6.423679294556379,-1.414444773364067
1740251553505379000,11.348379150390626,2.863179938864708,5.8141386989474295,-0.87590020647645
1740251553515361300,11.358361328125,2.823521297693252,5.242078815948963,-0.4137491434395313
1740251553525343200,11.36834326171875,2.7318764486968514,4.930955349725485,0.21561083588302135
1740251553535325200,11.3783251953125,2.574963885498047,4.923603817918896,1.2311994990348816
1740251553545307400,11.388307373046874,2.2713725683450696,4.978050862899423,2.4409224947988983
1740251553555289300,11.398289306640624,1.8454291292428968,4.908572837525606,3.6629713036507368
1740251553565270300,11.408270263671875,1.4631108968555926,4.6317336259588595,4.8333173977941275
1740251553575252200,11.418252197265625,1.2221334914606063,4.079657669585943,5.832035005643964
1740251553585234200,11.428234130859375,1.1870984915018081,3.0775200241595506,6.148874511426687
1740251553595216400,11.43821630859375,1.1777823816239834,2.013396316549927,6.141396138370037
1740251553605198300,11.4481982421875,1.2568623480796812,1.0381865716680885,6.139679982101917
1740251553615180300,11.45818017578125,1.2090541565917432,0.19273425655588505,6.161798874929547
1740251553625162200,11.468162353515625,0.7443183377586304,-0.6237149591729044,6.174553142562508
1740251553635144400,11.47814453125,0.25641674739345904,-1.3849728874251246,6.139928403905034
1740251553645126700,11.488126708984375,-0.09246551772952079,-2.0443246849074956,6.1128995272040365
1740251553655108400,11.4981083984375,-0.49746203039288517,-2.6122230643123387,6.031266369134188
1740251553665090600,11.508090576171876,-0.9454992278814315,-3.155017689859867,5.824957030081749
1740251553675072500,11.518072509765625,-1.2642492434605956,-3.5267326951682567,5.4322232021421195
1740251553685054500,11.528054443359375,-1.5573016309425234,-3.7153859660208224,4.777503740635514
1740251553695036400,11.538036376953125,-1.8010908058226107,-3.7294378722488877,4.007565077799558
1740251553705018600,11.5480185546875,-1.9317047062911092,-3.5194176959797736,3.186592393296957
1740251553715000600,11.55800048828125,-1.9536874055184423,-3.2650971902132033,2.364238483569026
1740251553724982500,11.567982421875,-1.9349299519479273,-2.9382097531467672,1.7070365575969217
1740251553734964700,11.57796484375,-1.8419231669485567,-2.6202599480345845,1.1229951449036597
1740251553744946400,11.587946533203125,-1.796120323933661,-2.3654382147476074,0.6448971556723118
1740251553754927600,11.597927734375,-1.7004596634246407,-2.1594129533335567,0.18415011421442032
1740251553764909600,11.60790966796875,-1.5891561742343008,-2.1448419916674495,-0.7804810996383428
1740251553774891500,11.6178916015625,-1.9674831450283525,-3.450201244151592,-3.8272155249118804
1740251553784873500,11.62787353515625,-2.609874455359578,-6.00895575312674,-5.411100334614515
1740251553794855700,11.637855712890625,-3.3213831410586834,-6.528913108444214,-3.5207460219740865
1740251553804837400,11.64783740234375,-4.41545731190443,-4.79959282284677,-1.0791811376184224
1740251553814819600,11.657819580078124,-5.229359619629383,-3.8206221179962156,1.232360359507799
1740251553824801500,11.667801513671876,-5.14791993830502,-3.670129943233728,2.824323846247792
1740251553834783500,11.677783447265625,-4.182355827516317,-3.4818250474274155,3.597147124609351
1740251553844765400,11.687765380859375,-2.682837400239706,-3.2944664925605056,4.031998677310347
1740251553854747600,11.69774755859375,-0.8898761248588561,-3.3276913012921807,4.050426314404606
1740251553864729600,11.7077294921875,0.6478549825645983,-3.2640888899534937,3.151162183475494
1740251553874711600,11.717711669921876,1.3913631729841232,-3.012305501449108,1.7357558716028927
1740251553884693500,11.727693603515625,1.9041184879682957,-2.7765789292544123,0.33695874922573565
1740251553894675500,11.737675537109375,2.415562428092956,-2.716060455405712,-0.46728199618458743
1740251553904657700,11.74765771484375,2.4611633187949655,-2.989531359583139,-0.7433259657204151
1740251553914639400,11.757639404296874,2.0667361309409142,-3.113210930743813,0.20151099886000154
1740251553924621600,11.76762158203125,2.143322527015209,-2.6889906621724364,1.7585913882672786
1740251553934603500,11.777603515625,2.225832467919588,-1.9322113406389951,3.0796617123633623
1740251553944585500,11.78758544921875,2.0351941607296467,-1.153614155051112,3.9808243703901764
1740251553954566400,11.79756640625,1.6294833623170852,-0.657858344054222,4.094524399328232
1740251553964548600,11.807548583984374,1.1384300299227237,-0.5217044912457466,3.7433962549746034
1740251553974530600,11.817530517578126,0.577898087632656,-0.5812433064073323,3.253043764325976
1740251553984512500,11.827512451171875,0.03906235577873885,-0.640914808037877,3.050048079866171
1740251553994494500,11.837494384765625,-0.28695816226005555,-0.5414402883291244,3.2621021000504493
1740251554004476700,11.8474765625,-0.43088856735415754,-0.2510837158024311,4.062404336968064
1740251554014459600,11.857459716796875,-0.4308966775953769,-0.12766250331699847,4.998408591273427
1740251554024441600,11.867441650390624,-0.4287549893915653,-0.35099721145033835,5.564126996290684
1740251554034423600,11.877423583984376,-0.4143535390734672,-0.6892886705845594,5.7671390473634006
1740251554044405500,11.887405517578125,-0.3657691755812615,-1.1344716476857661,5.593565272220969
1740251554054387500,11.897387451171875,-0.40785599374771114,-1.4722639251261949,5.319629088619351
1740251554064368400,11.907368408203125,-0.5872761568307876,-1.781516921302676,5.013382288521528
1740251554074350600,11.9173505859375,-0.8129857043366878,-2.2915362354516984,4.5425487373352045
1740251554084332500,11.92733251953125,-1.0618659918107092,-3.0054525668144225,3.9351872393310066
1740251554094314500,11.937314453125,-1.2056068656820804,-3.7541181399971246,3.631335809937119
1740251554104296400,11.94729638671875,-1.0931764182884245,-4.329603321269154,3.6038691263407467
1740251554114278700,11.957278564453125,-0.9268027107179164,-4.698682132855057,3.7410949922949075
1740251554124260400,11.96726025390625,-0.764844554567337,-4.9056402912050485,3.9277527054160832
1740251554134242600,11.97724267578125,-0.6270352627020329,-4.862402037981152,4.214210516938567
1740251554144224800,11.987224853515626,-0.4803858079075813,-4.557071768206358,4.53144223690927
1740251554154206500,11.99720654296875,-0.2979822450995445,-4.144128680452704,4.658445399534702
1740251554164188700,12.007188720703125,-0.1286848321020603,-3.754080146074295,4.507293299558759
1740251554174170400,12.01717041015625,-0.019705328879877925,-3.471134726586938,4.243284635731578
1740251554184152600,12.027152587890624,0.09182605078220367,-3.291638575658202,3.982473891162872
1740251554194134500,12.037134521484376,0.21334464451670646,-3.037985886150598,3.7828006291240452
1740251554204116500,12.047116455078125,0.30227490079216657,-2.761619260531664,3.7923277514040468
1740251554214098400,12.057098388671875,0.35781156764030453,-2.5354823544591665,3.928778541332483
1740251554224080600,12.06708056640625,0.5194224447231739,-2.4016946462601423,3.9918770948022604
1740251554234062300,12.077062255859374,0.7565759079158305,-2.3923528174191713,4.074032230919599
1740251554244044500,12.08704443359375,3.2088743677318092,-1.6405834330022333,4.244834787783026
1740251554254026500,12.097026611328126,-0.33680268188118934,-1.1692746655195951,3.683730598562956
1740251554264008400,12.107008544921875,-1.7588460936807095,-2.1281907165959475,1.828386224505305
1740251554273990700,12.11699072265625,1.7884966971874237,-2.4985437859013677,1.4496423434734345
1740251554283972600,12.12697265625,2.4494530072569844,-1.512029241542518,2.8463018693000075
1740251554293953500,12.13695361328125,-0.02491846041828394,0.12119184599816799,3.4721658232003447
1740251554303935500,12.146935546875,-0.8766542397141456,0.6304732012614608,2.5148843875885007
1740251554313917700,12.156917724609375,-1.1567220579385757,0.08249562011808156,1.6612065343141555
1740251554323899400,12.1668994140625,-1.359600253498554,-0.12013853755295276,1.4843693734616041
1740251554333881600,12.176881591796874,-1.219539602509886,0.5919447331637143,1.7111907546669243
1740251554343863600,12.186863525390624,-1.0096855765879154,1.620483186520636,1.9589637384861707
1740251554353845500,12.196845458984376,-0.7458535845018923,2.345331538525224,1.7592080588608978
1740251554363827500,12.206827392578125,-0.6431108567774295,2.7133693166255948,1.2044587916254996
1740251554373809700,12.2168095703125,-0.8410346448004246,3.0490017856836316,0.5850275011211633
1740251554383791400,12.226791259765625,-1.0924807641744614,3.4269869573026894,0.16759937690794466
1740251554393773600,12.236773681640624,-1.2771651313960553,3.818761877082288,-0.09509586623311042
1740251554403755500,12.246755615234376,-1.513276903516054,4.150656328655779,-0.26457448101639747
1740251554413737500,12.256737548828125,-1.761731439858675,4.328702573037147,-0.2844306896090507
1740251554423719700,12.2667197265625,-1.8348390539065003,4.53403400696814,-0.3731371470659971
1740251554433701600,12.27670166015625,-1.7886007420837877,4.802116203844547,-0.49480537840425964
1740251554443683600,12.28668359375,-1.7156372126817703,5.09114824976921,-0.5846937391221523
1740251554453665500,12.29666552734375,-1.7121581383943556,5.40098342974782,-0.7798948241829872
1740251554463647500,12.3066474609375,-1.7780840242445468,5.683330883342028,-1.0377566558182238
1740251554473629400,12.31662939453125,-1.8695324738860128,5.972022153005003,-1.26389589997828
1740251554483611600,12.326611572265625,-2.0305368364430962,6.176437641134858,-1.4367805238127707
1740251554493593300,12.33659326171875,-2.1676047353565693,6.342876157569885,-1.5316484265089034
1740251554503575600,12.346575439453124,-2.1501368832051755,6.591084025675058,-1.4403139586359262
1740251554513557500,12.3565576171875,-2.024060333905369,6.979454397708177,-1.2841074978798628
1740251554523539500,12.36653955078125,-1.906816641011089,7.341121471732855,-1.2667612262815235
1740251554533521400,12.376521484375,-1.7915863337658344,7.630886508107185,-1.357435184419155
1740251554543502600,12.386502685546875,-1.6610707791052757,7.885072866100073,-1.5241455035328864
1740251554553484500,12.396484619140624,-1.5795219383180141,7.99348998619914,-1.7010265035271643
1740251554563466500,12.406466552734376,-1.5074259855307637,8.032465905803441,-1.8791285697489977
1740251554573448400,12.416448486328125,-1.3989514361560345,7.942785634878278,-2.1447803246080874
1740251554583430700,12.4264306640625,-1.2285925314068793,7.822922991657257,-2.162563818579912
1740251554593412600,12.43641259765625,-0.8308709781825542,7.99774238294661,-1.8647434860438108
1740251554603394600,12.44639453125,-0.3150537914097309,8.357993160432576,-1.469087633177638
1740251554613376500,12.45637646484375,0.07639116576313972,8.543892164140939,-1.4106968190073965
1740251554623358500,12.4663583984375,0.17641688961386678,8.39849409764707,-1.7105395972818136
1740251554633340700,12.476340576171875,0.09579024170543998,8.106436566421388,-2.0897551874786613
1740251554643322000,12.486322021484375,0.010936404556035995,7.741219690960645,-2.5112077449023724
1740251554653304000,12.496303955078124,-0.08712296939147636,7.264069796234369,-2.765838924053311
1740251554663286300,12.506286376953126,-0.019978958189487455,6.637068362736701,-2.7611247550129887
1740251554673268000,12.51626806640625,0.24626022290242836,5.95832037538886,-2.7381080365628003
1740251554683250200,12.526250244140625,0.4502747472822666,5.410068068957329,-2.669474060797691
1740251554693232400,12.536232421875,0.6081295597672463,4.979897952070832,-2.684597980171442
1740251554703214000,12.546214111328124,0.5186018490552902,4.622965505352616,-2.8124837708503008
1740251554713196300,12.5561962890625,0.2145230771789327,4.3211523037880655,-2.8487486779302356
1740251554723178200,12.56617822265625,-0.12263446428822353,4.065920820656419,-2.449839960747957
1740251554733160200,12.57616015625,-0.1661427483588457,3.899371537323296,-1.423100373506546
1740251554743142100,12.58614208984375,0.15303952115774153,3.8549700855389237,-0.2358639348387718
1740251554753124400,12.596124267578125,0.6547042639374733,3.7331802736476063,0.5980091477692127
1740251554763106000,12.60610595703125,1.0228057549238205,3.569479950004816,1.112808097410202
1740251554773088300,12.616088134765626,1.226903263145685,3.3152184809491034,1.234247780689597
1740251554783070200,12.6260703125,1.2286276027202605,2.9960759589210153,1.0147463671088217
1740251554793052200,12.63605224609375,1.066697503620386,2.859382300147414,0.8411223230838775
1740251554803034400,12.646034423828125,0.797243433868885,3.061595602057874,0.8141185808241367
1740251554813016000,12.65601611328125,0.4663596937078982,3.1515012061715124,0.7208931846380233
1740251554822998300,12.665998291015624,0.08602649765796959,2.9867420211255546,0.5793050318211317
1740251554832979200,12.675979248046875,-0.38503267897777255,2.6524235572755335,0.521646039056778
1740251554842961400,12.68596142578125,-0.8936614155512302,2.077690071153641,0.7506845117896794
1740251554852943000,12.695943115234375,-1.2948527637779712,1.4580613583810627,0.9300602512091398
1740251554862925300,12.70592529296875,-1.58846278514266,0.9164148799553513,0.9965665672957896
1740251554872907300,12.7159072265625,-1.7046049465358257,0.3661500646576285,0.9206015179902315
1740251554882889200,12.72588916015625,-1.6850177641429005,-0.18287147258073091,0.7840355772495269
1740251554892871200,12.73587109375,-1.5366706385850906,-0.5248728921487927,0.6991314346849918
1740251554902853400,12.745853271484375,-1.2696587012887,-0.7070172194987535,0.6243745921254158
1740251554912835000,12.7558349609375,-1.0426070915240795,-0.8374550327479838,0.4928080671072006
