time,seconds_elapsed,z,y,x
1740246553212287500,0.06028759765625,-0.8713309988647698,1.3356553142875431,1.1858318325668573
1740246553222269400,0.07026953125,-0.41298049715459345,1.8435674270242453,2.021744604308903
1740246553232251400,0.08025146484375,0.6095318277806043,2.588203598560393,2.488675010576844
1740246553242233600,0.090233642578125,1.8223299932062624,1.9779393648520112,2.5580092435657975
1740246553252215300,0.10021533203125,3.0925282081991434,1.3871294809371233,2.497106154313683
1740246553262197500,0.110197509765625,3.618147242540121,0.8411711306616664,2.1268615138188003
1740246553272179500,0.120179443359375,3.54440688354671,0.43340661458969115,1.7542234023161232
1740246553282161400,0.130161376953125,2.465101242765784,-0.01540916605591774,1.1587344206742942
1740246553292143600,0.1401435546875,0.8743167366772889,-0.797051418428123,0.30835005598738785
1740246553302125600,0.15012548828125,-0.19797931760251522,-1.3731158608928322,-0.04332286276742816
1740246553312107500,0.160107421875,-0.7094716269135475,-1.2878887699842452,-0.04933583944663405
1740246553322089500,0.17008935546875,-0.4273649963378906,-0.5799225791975855,0.18249577113613485
1740246553332071400,0.180071533203125,0.05406301409900188,0.3466831476435065,0.37211218793243167
1740246553342053400,0.190053466796875,0.5753139163583517,0.8668862944155931,0.13590572326630354
1740246553352035600,0.20003564453125,1.4126725029945373,0.9710662153363228,0.3098779962070286
1740246553362017300,0.210017333984375,2.058957898154855,1.0297136346161364,0.8735347925193607
1740246553371999500,0.21999951171875,2.3102625632315874,0.9565016834110021,1.6699300851263106
1740246553381981400,0.2299814453125,1.760972145923972,0.6935764309063553,1.9304218268737197
1740246553391963400,0.23996337890625,0.9108721511363983,0.3903913564667105,1.4663966405279933
1740246553401945300,0.2499453125,0.6270329976797103,-0.1706286616012454,1.6814885671034454
1740246553411927600,0.259927490234375,-0.018339374288916587,-0.5615037099316715,0.4221215427264571
1740246553421909500,0.269909423828125,0.13942308373749254,-0.9270373962566256,-0.007430003870278597
1740246553431891500,0.279891357421875,0.02572890001833439,-1.072753442658484,0.5683892316617072
1740246553441873700,0.289873779296875,0.4926981769919395,-0.37627164569944144,0.44021483329981564
1740246553451855400,0.29985546875,0.9119768975079059,1.093080191372335,-0.2552452193960547
1740246553461837600,0.309837646484375,0.2933089925915003,1.8122607268735766,-2.1978819463290273
1740246553471819500,0.319819580078125,0.331247385841608,0.9867539060726761,-1.2779958831317721
1740246553481801500,0.329801513671875,-0.5756278046131134,0.015867138956487177,-0.39872883057072755
1740246553491783400,0.339783447265625,-1.5579945816427467,-0.5761231869146227,0.1284849256157875
1740246553501765400,0.349765380859375,-2.385754734328389,-0.5758367711886764,1.544673181646317
1740246553511747300,0.359747314453125,-2.8523914183467625,0.44187370642274615,3.064872724032402
1740246553521729500,0.3697294921875,-3.1148627896040675,1.425616155719757,3.690999712783098
1740246553531711500,0.37971142578125,-3.6268127795547245,1.7799349128082393,3.173411424684524
1740246553541693400,0.389693359375,-3.8450855281233784,1.597664913251996,1.9784594432033598
1740246553551676200,0.39967626953125,-3.452553360235691,1.3835507456675171,0.7391992411792278
1740246553561657900,0.409657958984375,-2.911065141111612,1.2116130472943185,0.07207417934685945
1740246553571640000,0.41964013671875,-2.578626499658823,1.2359683208718895,-0.021362229241430757
1740246553581621800,0.429621826171875,-2.2530291024029254,1.4713994172513485,0.4039787139229476
1740246553591604000,0.43960400390625,-1.8468939410984515,1.63010821621716,0.7092831186041235
1740246553601586000,0.4495859375,-1.2430477577388286,1.5150678785860539,0.7207727731287479
1740246553611567900,0.45956787109375,-0.5992839900106192,1.3418433552727103,0.5473591569840908
1740246553621550000,0.469550048828125,-0.009967267262935639,1.379164493407309,0.3957005687907338
1740246553631532000,0.479531982421875,0.563153522965312,1.463098914156854,0.38591552622690795
1740246553641514000,0.489513916015625,1.0604670847982167,1.2090469961985946,0.3500526240766048
1740246553651496000,0.499495849609375,1.4744547131687402,0.9625880175873637,0.6328320393472909
1740246553661478100,0.50947802734375,1.8986118533760308,0.9088575964435934,0.5342671818293631
1740246553671459800,0.5194599609375,2.252044767540693,0.9343240461334585,0.2621585059158504
1740246553681442000,0.529442138671875,2.361438623717427,1.0473170958459377,-0.05498188250958919
1740246553691424000,0.539424072265625,2.366576571127772,1.2195759889975188,-0.6106463648937642
1740246553701406000,0.549406005859375,2.137246421971917,1.3193138358175753,-1.5065717067889868
1740246553711388000,0.559387939453125,1.7671587256044148,1.1792270274743437,-2.341877744809538
1740246553721369900,0.569369873046875,1.548784854748845,0.9492214632749557,-2.854443382440507
1740246553731351800,0.579351806640625,1.6947691966980696,0.6386687826767563,-2.4604455259144307
1740246553741334000,0.589333984375,1.8947458255976437,0.8131123263910413,-1.4527560915797948
1740246553751316000,0.59931591796875,2.08690447422266,1.7179451973631976,-0.15989304031431675
1740246553761298000,0.6092978515625,2.508344756686687,1.9932973852425813,-0.50512292040959
1740246553771280100,0.619280029296875,2.6480963417261836,1.672455073559284,-1.045997099288553
1740246553781261800,0.62926171875,2.9223271243602036,1.4537103235647082,-2.3350088819533585
1740246553791244000,0.639244140625,2.8765128831684588,1.1002344470411538,-2.959054095993936
1740246553801226000,0.64922607421875,2.201217666622996,0.7912161364033817,-2.4817589475780726
1740246553811208000,0.6592080078125,1.5549533142507075,0.3645391223296523,-2.0326982522606847
1740246553821190000,0.66918994140625,0.9414005603909492,-0.08422989656478166,-1.5213924054324626
1740246553831172000,0.679172119140625,0.5250280827105045,-0.51615913207829,-1.3871861795604228
1740246553841153800,0.68915380859375,0.391397610899806,-0.898412482535839,-1.6165297727197407
1740246553851136000,0.699135986328125,0.6192004043579101,-1.3640554793417452,-1.9331749249741434
1740246553861118000,0.709117919921875,1.0554232454121113,-2.0265476206764577,-2.7143475140079856
1740246553871100000,0.719099853515625,1.2468909891635178,-2.77398160623759,-3.3502848258942364
1740246553881082000,0.72908203125,1.0517536169886588,-3.4157740738928317,-3.2744594773203133
1740246553891063800,0.739063720703125,0.5603939951241016,-3.654747665184736,-2.7098116241440176
1740246553901046000,0.7490458984375,0.15429448965489864,-3.4696211071535945,-2.2459417744904755
1740246553911028000,0.759028076171875,0.07315642162561416,-2.8676135373979803,-1.8699293642491102
1740246553921010000,0.769010009765625,0.40290100168883797,-1.7468284697592258,-1.2995523197710512
1740246553930991900,0.778991943359375,1.44961311737895,-0.2733759193703532,-0.7998869341149926
1740246553940974000,0.78897412109375,1.9275632225722072,0.2809516153216362,-0.2725374227195978
1740246553950955800,0.798955810546875,0.9658405896425246,-0.6493500434279441,-0.04093845184892416
1740246553960938000,0.80893798828125,0.08601941033005714,-0.9713377257540822,0.07954787622839211
1740246553970920000,0.818919921875,-0.30444121198058127,-1.1857421084567903,0.4007005690351128
1740246553980902000,0.82890185546875,0.026087211936712262,-0.9054629855692387,0.034734628772735594
1740246553990884000,0.838884033203125,0.4739122279793024,-0.16642799504101274,-0.5374354366019368
1740246554000866000,0.848865966796875,0.9008236353307962,0.4242521250143647,-0.678759677785635
1740246554010848000,0.858847900390625,1.4148428327709435,0.5348559415027498,-0.20105477952510117
1740246554020830000,0.868829833984375,1.8851859700918197,0.30674101335555315,0.4765896304950118
1740246554030812000,0.87881201171875,2.2493401847571133,0.32731063091456886,0.676232497395575
1740246554040793900,0.8887939453125,2.3677473684728145,1.0045409071758389,0.4874681673839688
1740246554050776800,0.89877685546875,2.084912423622608,2.1662413380488754,0.23228490730822085
1740246554060759000,0.908759033203125,2.008400261828303,3.331490109053254,-0.13263795364201067
1740246554070741000,0.918740966796875,2.0095944400489327,4.271311583559215,-0.11549041948616504
1740246554080723000,0.928722900390625,1.8171429459571837,5.384533814728259,0.24114158298075197
1740246554090705000,0.938704833984375,1.4677835648417472,6.172216808569431,0.3154705555170774
1740246554100687000,0.94868701171875,1.3341408180713652,5.456264002943039,0.8538996793314814
1740246554110668800,0.958668701171875,1.6727409047633408,5.0080339132308955,1.1982032383620738
1740246554120651000,0.968651123046875,1.8785989929169415,5.36261950456202,1.3624305084884165
1740246554130633000,0.978633056640625,2.0551497380435464,6.436810578808188,2.3981202949047087
1740246554140615000,0.988614990234375,3.3041707249730825,7.514173268827795,2.3976170215576884
1740246554150596900,0.998596923828125,3.2680846815913913,7.702278842669725,1.7535399500966071
1740246554160579000,1.0085791015625,2.0998808601737022,7.402746445518732,1.552764864295721
1740246554170561000,1.01856103515625,-0.014836919125914573,6.527849863126874,0.6173603294491767
1740246554180543000,1.02854296875,-1.9346137256056068,5.824580013462901,-0.5144242711097001
1740246554190525000,1.03852490234375,-3.186464967525005,5.54264757041037,-1.2668290308207273
1740246554200507000,1.0485068359375,-3.8616128845542668,5.024924842277169,-1.227681261780858
1740246554210489000,1.058489013671875,-3.7427754927277563,4.3098193011298775,-0.7201607787102461
1740246554220470800,1.068470703125,-3.206536864694953,3.694852296558022,-0.11840601467192172
1740246554230453000,1.078452880859375,-2.670779882699251,3.2413144558265805,0.36358781295418735
1740246554240435000,1.08843505859375,-1.90506614408195,2.8738243747368455,0.5806055930256844
1740246554250417000,1.0984169921875,-1.0205600218236446,2.5012001456290482,-0.06666939769387245
1740246554260398800,1.10839892578125,-0.31053777529001236,1.630833900143206,-0.41896775487065313
1740246554270381000,1.118381103515625,0.07861117990016937,0.6455635106265545,-0.19493863473236558
1740246554280363000,1.128363037109375,0.3719873925089836,0.30494477758854627,-0.5030868845373392
1740246554290345000,1.138344970703125,0.4964730193555355,0.12154051330536603,-0.7607973250031471
1740246554300327200,1.1483271484375,0.044888358518481254,-0.319994901073724,-0.3262333570718765
1740246554310308900,1.158308837890625,-1.207472001966834,-0.4296403939239681,0.022147534400224683
1740246554320291000,1.168291015625,-2.1764552735492586,0.28020634991228577,-0.4195885171175003
1740246554330273000,1.17827294921875,-2.2410645238429305,0.234008808491379,0.570287028107047
1740246554340255000,1.1882548828125,-1.7137217344492672,0.12173852009549736,1.067952472117543
1740246554350237000,1.19823681640625,-0.8876526035904884,0.20482903736680744,0.8365846796542405
1740246554360219000,1.208218994140625,-0.11370149024277924,0.11716361339539288,0.6173071379572153
1740246554370200800,1.218200927734375,0.7718482958495616,-0.0497007272362709,0.4742722934633493
1740246554380183000,1.22818310546875,1.7655702873691916,-0.022079729861021042,0.5959545533269643
1740246554390164700,1.238164794921875,1.1725482803627847,0.700555914530158,1.4972762013077734
1740246554400147000,1.24814697265625,0.1271943012833595,1.4011317028045653,2.5024749878704546
1740246554410129200,1.258129150390625,-1.2479191631674766,1.3802370910748838,3.756694712486863
1740246554420110800,1.26811083984375,-2.3711899101421237,1.3578408426105975,5.124648368310928
1740246554430093000,1.278093017578125,-2.5593828700065613,1.8404837817952036,6.373044501340389
1740246554440075000,1.288074951171875,-1.9735026975788175,2.3837992163464428,6.75889383046329
1740246554450057000,1.298056884765625,-0.942361514377594,2.7293846318811177,6.09056786840856
1740246554460039000,1.308038818359375,0.16605740816295145,3.326106370188296,5.485152243775129
1740246554470021000,1.318021240234375,0.44718394166007636,4.024894106002152,5.579755358055234
1740246554480002800,1.3280029296875,0.01884396281018853,4.064483189068734,6.074616266039014
1740246554489985000,1.337985107421875,-0.7697194671273231,3.464707616148889,6.770898156511783
1740246554499967000,1.347967041015625,-1.5640578272044658,2.5626535622403024,6.860454508796334
1740246554509949000,1.357948974609375,-2.195471231925487,1.365602124261856,6.409509314906597
1740246554519931100,1.36793115234375,-2.9615953049093484,0.020453005442023275,5.9694444114714855
1740246554529912800,1.377912841796875,-3.5100042632073163,-1.1739449954181909,4.916141226953267
1740246554539895000,1.38789501953125,-3.818461140570044,-1.9354986917465924,3.5203713434427977
1740246554549877000,1.397876953125,-3.853684429642558,-2.1825401464208958,2.4555144992530344
1740246554559858400,1.4078583984375,-3.839718448132276,-2.168587901175022,1.9318582894176244
1740246554569840000,1.417840087890625,-3.9818636503100393,-2.075973330363631,1.9013707966953515
1740246554579822300,1.427822265625,-4.1838375905066725,-2.1147844147950408,2.204081239360571
1740246554589804300,1.43780419921875,-4.244845893698931,-2.3064526495546103,2.5552508847683666
1740246554599786200,1.4477861328125,-4.0604514493346215,-2.491664840042591,3.0502947481036182
1740246554609768400,1.4577685546875,-3.8298973113417625,-2.7471301319301125,4.096449229910969
1740246554619750100,1.467750244140625,-3.691884094402194,-3.1972400440394875,5.196101493149995
1740246554629732400,1.477732421875,-3.4722967561036344,-3.530340364271402,5.999570085144042
1740246554639714300,1.48771435546875,-2.963748099029064,-3.6914527172476053,6.330505336296558
1740246554649696300,1.4976962890625,-2.2321225079745055,-3.9379146184682843,6.051767305371165
1740246554659678200,1.50767822265625,-1.429472831147909,-4.4770033752352,5.170928473448753
1740246554669660400,1.517660400390625,-0.6460071627408266,-5.124391763201356,3.948621890443563
1740246554679642000,1.52764208984375,0.17504976597912608,-5.649869927766919,2.5841549076914787
1740246554689624300,1.537624267578125,0.9511586418826132,-6.024550212621689,1.2218518249750137
1740246554699607300,1.547607177734375,1.5248432765386997,-6.347113356748223,0.07352116328477859
1740246554709589200,1.55758935546875,1.714057834535837,-6.637711336815356,-0.6067489190638065
1740246554719571500,1.567571533203125,1.7013842309236527,-6.8471794321596615,-0.9827379484295844
1740246554729553200,1.57755322265625,1.6074550703823565,-6.983176633101701,-1.1423059945732355
1740246554739535400,1.587535400390625,1.5527724630802868,-6.9289715801835055,-1.1692582989066838
1740246554749517300,1.597517333984375,1.559015302992612,-6.752181181082129,-1.2057575992643832
1740246554759499300,1.607499267578125,1.568099942202121,-6.602929361769557,-1.4201432772666216
1740246554769481200,1.617481201171875,1.6217442924976349,-6.467183505240082,-1.937196727836132
1740246554779463200,1.627463134765625,1.6844290044695138,-6.316224297487735,-2.6257611757993695
1740246554789445400,1.6374453125,1.6741963642686604,-6.173777482014894,-3.237756763345003
1740246554799427300,1.64742724609375,1.6299153239935635,-5.9785085924148555,-3.6493045973479745
1740246554809409300,1.6574091796875,1.5615554889947174,-5.8007385346263645,-3.6509482729017733
1740246554819391200,1.66739111328125,1.5138175862640142,-5.593044463217258,-3.252172826710343
1740246554829373400,1.67737353515625,1.5877164968200026,-5.183955128282308,-2.981357405477762
1740246554839355100,1.687355224609375,1.5976865405619143,-4.6176291127607225,-2.4101631993979216
1740246554849337300,1.69733740234375,1.3199717152044177,-4.043574548813701,-1.7753724271982907
1740246554859319300,1.7073193359375,0.9941014923565089,-3.7782027799397704,-1.280731299445033
1740246554869301200,1.71730126953125,0.6092157475687563,-3.6934237250596285,-0.8594038297057152
1740246554879283200,1.727283203125,0.4243495940394699,-3.4757673548236485,-0.46381811946630475
1740246554889265400,1.737265380859375,0.32662863999977704,-3.152932700279355,0.3453793715685606
1740246554899247400,1.747247314453125,0.21033026513159273,-2.76281986849308,1.5203443576842546
1740246554909229300,1.757229248046875,-0.001353606566041708,-2.326969952404499,2.6898867342293262
1740246554919211300,1.767211181640625,-0.3559210777185857,-1.806776742504537,4.041742657211422
1740246554929193200,1.777193115234375,-0.7688735908877105,-1.3995941179737448,5.4792573405176395
1740246554939175400,1.787175537109375,-1.3384925835400818,-1.4315154428914187,6.6230234707713125
1740246554949157000,1.7971572265625,-2.0460703595310448,-1.7711317208886146,7.797196429726481
1740246554959139300,1.807139404296875,-2.5950188315331935,-1.7785528108000754,9.092237409552931
1740246554969121300,1.817121337890625,-2.8706980594098566,-1.1479454617649316,10.7272930190444
1740246554979103200,1.827103271484375,-2.9336732787609097,-0.20279957736581564,12.392453259420394
1740246554989085200,1.837085205078125,-2.8536019631803033,0.6142068338543176,13.383982417070865
1740246554999067400,1.8470673828125,-2.7717595462739464,1.0443915637880563,13.539666315257548
1740246555009049300,1.85704931640625,-2.732275092625618,0.9579884148374199,12.684952689194679
1740246555019031300,1.86703125,-2.7992519488334655,0.2781716292142868,10.945662213724852
1740246555029013500,1.877013427734375,-2.953914102756977,-0.5654708599969744,8.96896291206181
1740246555038995200,1.8869951171875,-3.0347499729692933,-0.9777481773182749,7.418331552663445
1740246555048977400,1.896977294921875,-2.784806074851751,-0.5720759573504328,6.633181876692175
1740246555058959400,1.90695947265625,-2.204802539372444,0.5832070076957344,6.7168456638067955
1740246555068941300,1.91694140625,-1.5274281784653663,2.043746300497651,7.133319848296046
1740246555078923300,1.92692333984375,-0.991467198330164,3.1842037445947526,7.045132446277141
1740246555088905200,1.9369052734375,-0.7506020211379975,3.8557062908589836,6.506755052649974
1740246555098887200,1.94688720703125,-0.6664227587819099,4.340134652155638,5.93866348876059
1740246555108869400,1.956869384765625,-0.5895008471429347,4.764920737916231,5.430213615885377
1740246555118851000,1.96685107421875,-0.35788408488724377,4.834932139514386,4.695109535065293
1740246555128833300,1.976833251953125,0.016674034892581402,4.678970885691046,3.558769170898199
1740246555138815500,1.9868154296875,0.2946387798905373,4.402650729562342,2.201725031623244
1740246555148797200,1.996797119140625,0.34796116822268813,4.1083769835919135,1.0036936426967382
1740246555158779400,2.006779296875,0.2164882032394409,3.798722420877218,0.06987608478069306
1740246555168761300,2.01676123046875,-0.015399886770918964,3.549446046757698,-0.7440063492000103
1740246555178744300,2.026744384765625,-0.29200258616805075,3.3054820998325942,-1.4249509698092937
1740246555188726300,2.036726318359375,-0.7983259684085845,3.057037792623043,-1.7547148390948772
1740246555198708200,2.046708251953125,-1.2220435481548308,2.9337776159182187,-1.7779361402064562
1740246555208690400,2.0566904296875,-1.3088707677364348,3.0919679439678784,-1.7090525735944508
1740246555218672400,2.06667236328125,-1.1621931828260421,3.439682188224792,-1.6219588120311497
1740246555228654300,2.076654296875,-0.9965092841506004,3.79573434497714,-1.5159744720369577
1740246555238636300,2.08663623046875,-0.8634300164818763,4.177838642352819,-1.4679793796747922
1740246555248618200,2.0966181640625,-0.8193757706999778,4.525028278213739,-1.5854279474914073
1740246555258600200,2.10660009765625,-0.8853776443958282,4.890734690757095,-1.7096230669587849
1740246555268582400,2.11658251953125,-1.0551578724741935,5.244353775143623,-1.8998329196035861
1740246555278564000,2.126564208984375,-1.2441712088108061,5.539689305126667,-2.0788053389191625
1740246555288546300,2.13654638671875,-1.330735978063941,5.793279450792074,-2.159912427288294
1740246555298528300,2.1465283203125,-1.2823954332649707,6.170675424346327,-2.0104080945193767
1740246555308510200,2.15651025390625,-1.0264110859394073,6.717476947447657,-1.8537907148748636
1740246555318492400,2.166492431640625,-0.7268903792262077,7.253959905630349,-1.7974048107862473
1740246555328474400,2.176474365234375,-0.4469266058981418,7.663992658895253,-1.9099030627191065
1740246555338456300,2.186456298828125,-0.1931827309757471,7.978004832297563,-2.1403782902568578
1740246555348438300,2.196438232421875,0.02344868012666702,8.170683120882511,-2.3546306972682474
1740246555358420500,2.20642041015625,0.15848145648334175,8.406265900692343,-2.5054168865412474
1740246555368402200,2.216402099609375,0.27424190681623295,8.750319576615095,-2.697593070822954
1740246555378384400,2.22638427734375,0.3518512344637886,9.07562412840426,-2.8102666793227193
1740246555388366300,2.236366455078125,0.3717074430564418,9.342519745844601,-2.848076477757096
1740246555398348300,2.246348388671875,0.26918286986099554,9.605531215327977,-2.85836406301558
1740246555408330200,2.256330322265625,0.11299511380540206,9.802458978050947,-2.8461528162181375
1740246555418312200,2.266312255859375,-0.030108138015866277,9.986824196320772,-2.8126474369794128
1740246555428294100,2.276294189453125,-0.17685878816246986,10.166365939956902,-2.7918028018712997
1740246555438276400,2.2862763671875,-0.30745617588758467,10.299083973097801,-2.8069629616022107
1740246555448258300,2.29625830078125,-0.49382045902013777,10.332309366351366,-3.0150030699700117
1740246555458240300,2.306240234375,-0.6887503259241581,10.248892247474194,-3.2935061230957507
1740246555468222500,2.316222412109375,-0.8235784830868244,10.241302815258502,-3.4389895297855135
1740246555478204200,2.3262041015625,-0.7775999912440776,10.488531024676561,-3.425452587342262
1740246555488186400,2.336186279296875,-0.5008674549221992,10.861679277658462,-3.2990508977413175
1740246555498168300,2.346168212890625,-0.2018845083475113,11.115380482482909,-3.1880180421859023
1740246555508150300,2.356150390625,0.06647303487155586,11.140943962806462,-3.233592629402876
1740246555518132200,2.36613232421875,0.3876922901084646,10.85006365866661,-3.335289501336217
1740246555528114400,2.376114501953125,0.652858343809843,10.172519786411524,-3.477261100512743
1740246555538096000,2.38609619140625,0.7445382641196251,9.314966553008556,-3.6105034497886894
1740246555548078300,2.396078369140625,0.7682172458708286,8.537526720762253,-3.560136367598176
1740246555558060800,2.406060791015625,0.7522446007132529,7.935369805663823,-3.0818630217999217
1740246555568042800,2.416042724609375,0.9881424378216266,7.641207411113381,-2.373482697254419
1740246555578025000,2.42602490234375,1.3506781113743782,7.630147672438621,-1.365363639330864
1740246555588006700,2.436006591796875,1.827259850823879,7.900427087098359,-0.05345920298695564
1740246555597990000,2.445989990234375,2.046546744871139,8.231006948941946,1.0046586883366107
1740246555607971800,2.455971923828125,1.9940917504906652,8.38624134979546,1.9726789601057766
1740246555617953800,2.465953857421875,1.9625071101814506,8.569643860512972,3.146901603421569
1740246555627936000,2.47593603515625,1.7868734798997639,8.803967580172419,4.192085194370151
1740246555637917700,2.485917724609375,1.1273352199345827,8.776069519421458,5.682287511768937
1740246555647900000,2.49589990234375,0.10790507892370223,8.238371924751997,7.625586648133397
1740246555657881900,2.5058818359375,-0.7884569008231163,7.172507949346303,9.625135494986177
1740246555667863800,2.51586376953125,-1.4488193366527558,5.710071006229519,11.533784758251905
1740246555677845800,2.525845703125,-2.1179647983968257,4.294697719843685,12.825247295069694
1740246555687827700,2.53582763671875,-2.7675930742442607,2.848296842509508,13.436126445806027
1740246555697809700,2.5458095703125,-3.1377859845519063,1.264304480779171,13.273295013952254
1740246555707792000,2.5557919921875,-3.1307810742259026,-0.34622692830860613,12.373347576934098
1740246555717773800,2.56577392578125,-2.811654334288835,-1.7803841178804636,10.982696351611613
1740246555727755800,2.575755859375,-2.503612467467785,-2.9510090289652346,9.537209374251962
1740246555737738000,2.585738037109375,-2.265473573434353,-3.9221141150072216,8.23676273598969
1740246555747719700,2.5957197265625,-2.0394412967801094,-4.8129082314938305,7.250716978186369
1740246555757702000,2.605701904296875,-1.8928396997153758,-5.456439359509945,6.485284979119896
1740246555767683800,2.615683837890625,-1.724648348263651,-5.780699370682239,5.611009743496775
1740246555777665800,2.625665771484375,-1.631490610486269,-5.8537511628895995,4.675872335153818
1740246555787647700,2.635647705078125,-1.6888497435212135,-5.836128996959328,3.6941117073237892
1740246555797630000,2.6456298828125,-1.6658020454108715,-5.746987655216455,2.7530069150090215
1740246555807611600,2.655611572265625,-1.7095324660658835,-5.627365250492096,2.0351380466282367
1740246555817593900,2.66559375,-1.8030536303281783,-5.568804924973845,1.6236550945550203
1740246555827575800,2.675575927734375,-1.9036264666676521,-5.526649790811538,1.5346265655368565
1740246555837557800,2.685557861328125,-1.9596037899553775,-5.564032888266444,1.5990461384773254
1740246555847540000,2.6955400390625,-1.8146107971310614,-5.760432243201136,1.6374217541009186
1740246555857521700,2.705521728515625,-1.6399766992807387,-5.959448502635955,1.8405811046898364
1740246555867503900,2.71550390625,-1.4297989943623541,-6.111114397352933,1.7284435027629137
1740246555877485800,2.72548583984375,-1.1629460470199584,-6.218931797993183,1.3607166903078556
1740246555887467800,2.7354677734375,-0.9061749332308768,-6.233131588259339,1.0378636233240366
1740246555897449700,2.74544970703125,-0.7616156556487083,-6.238728969874978,0.975504490044713
1740246555907432000,2.755431884765625,-0.7600035442769527,-6.3482730481773615,1.0692577094972133
1740246555917413600,2.76541357421875,-0.9854138896405696,-6.526803568944334,1.7126128964245317
1740246555927395800,2.775395751953125,-1.2976830187678337,-6.663923636436462,2.755903805494308
1740246555937377800,2.785377685546875,-1.4041338072299956,-6.879140504565835,4.057892997023463
1740246555947359700,2.79535986328125,-1.4707774859607219,-7.302240829196572,5.511475602555275
1740246555957343000,2.805343017578125,-1.6293465841948984,-7.929153415367007,6.609092560574412
1740246555967324700,2.81532470703125,-1.765651243650913,-8.649223008662462,7.5416048811107865
1740246555977307000,2.825306884765625,-1.844806028908491,-9.418220006734133,8.525029642760753
1740246555987288800,2.835288818359375,-1.9088064996540546,-10.200486820745468,9.355964333829283
1740246555997270800,2.845270751953125,-1.9451812968492508,-10.843352178329228,10.39002388869524
1740246556007252700,2.855252685546875,-1.588882471859455,-11.158674849808216,11.476928314042091
1740246556017234700,2.865234619140625,-1.091555977479741,-10.797218203663826,12.573337065315245
1740246556027217000,2.875216796875,-0.8129366044979542,-9.829715233767033,13.647798188674448
1740246556037198800,2.88519873046875,-0.7803237901847809,-8.75305397001505,14.303844514870642
1740246556047180800,2.895180908203125,-1.0329191526591777,-7.957056736814975,14.71049756256938
1740246556057162800,2.905162841796875,-1.6948679808974265,-7.535147667795419,14.973421353769302
1740246556067145000,2.91514501953125,-2.3897348900057374,-7.456912919992208,14.96036781092882
1740246556077126700,2.925126708984375,-2.6031916165947915,-7.418762345296144,14.435637834382057
1740246556087108900,2.93510888671875,-2.2279823394298552,-7.008826038143038,13.679281706696749
1740246556097090800,2.9450908203125,-1.6246119568884372,-6.111574416080117,13.28451081997156
1740246556107072800,2.95507275390625,-1.121724394315481,-4.714382975333929,13.229205696856974
1740246556117054700,2.9650546875,-0.7642740612030029,-2.983563975611329,12.738857297861575
1740246556127037000,2.975036865234375,-0.6817279530066996,-1.3821861793160437,11.89331131311655
1740246556137018600,2.9850185546875,-0.9555565115153789,-0.13358487910330294,11.01190841757059
1740246556147000800,2.995000732421875,-1.3548551047980784,0.8647089503765105,10.239062927377223
1740246556156982800,3.004982666015625,-1.7859715626239776,1.7415061056926846,9.651802552637458
1740246556166964700,3.01496484375,-2.144710181981325,2.4857848420932886,9.146579825115204
1740246556176947000,3.024947021484375,-2.3854876078248024,3.0503724895149467,8.767740667015314
1740246556186928600,3.0349287109375,-2.4844787279307843,3.604181261029839,8.671237272071838
1740246556196910800,3.044910888671875,-2.290477081787586,4.320655460181832,8.743611603409052
1740246556206892800,3.054892822265625,-1.9462135625064372,4.9325171922147275,8.541928170591593
1740246556216874800,3.064874755859375,-1.6624714396834372,5.2188125066518785,7.843979808211326
1740246556226856700,3.074856689453125,-1.5459563533246516,5.304854128813743,7.062437216821312
1740246556236839000,3.0848388671875,-1.3968565097033976,5.3837452946990725,6.269335705062747
1740246556246820600,3.094820556640625,-1.2029484601277858,5.482037326624989,5.543702047899365
1740246556256802800,3.104802734375,-1.1329437805313616,5.635455033445358,4.936213124123215
1740246556266785000,3.114784912109375,-1.2080770551878959,5.798686862793565,4.389593971851468
1740246556276766700,3.1247666015625,-1.3626771767258643,5.979922550866007,4.0031168662190435
1740246556286749000,3.1347490234375,-1.611799090936035,6.2564031582534305,3.933727688172459
1740246556296731600,3.144731689453125,-1.9340471777640282,6.648085431313515,3.9212405470430847
1740246556306713900,3.1547138671875,-2.212449254733324,7.046334807804226,3.829856394809484
1740246556316695800,3.16469580078125,-2.466183192783594,7.444926129600406,3.6899616019070147
1740246556326677800,3.174677734375,-2.7814789762556553,7.855438775336742,3.5395395697712897
1740246556336660000,3.184659912109375,-3.051138797712326,8.245758527871965,3.2556904794424772
1740246556346641700,3.1946416015625,-3.282878346097469,8.587945825400949,2.9409459001123905
1740246556356624000,3.204623779296875,-3.4337808552265163,8.88740574183762,2.567501294532418
1740246556366605800,3.214605712890625,-3.4728339317202566,9.116229695037006,2.1989339395999905
1740246556376587800,3.224587890625,-3.456975560592115,9.372567678105831,1.918181061720848
1740246556386569700,3.23456982421875,-3.398490930658579,9.764869544368981,1.6802520110458135
1740246556396552000,3.244552001953125,-3.322196795529127,10.292787503302097,1.2188333539366722
1740246556406533600,3.25453369140625,-3.248780846184492,10.710964984577894,0.8751268840163946
1740246556416515800,3.264515869140625,-3.157818718755245,11.131844126027822,0.9726648827046155
1740246556426497800,3.274497802734375,-3.042047144240141,11.837761859852074,1.3098901739120483
1740246556436479700,3.284479736328125,-2.922423570472002,12.656589349019526,1.4144634780645369
1740246556446462000,3.2944619140625,-2.9154440868481992,13.187578385961055,1.0059843839824198
1740246556456444000,3.30444384765625,-2.9376456895232197,13.382055832922457,0.3441413542062044
1740246556466425900,3.31442578125,-2.942079872578382,13.480757030171155,-0.2524474053710699
1740246556476407800,3.32440771484375,-2.852556545780599,13.552453316116333,-0.814284000518918
1740246556486389800,3.3343896484375,-2.720685192596912,13.50424896491766,-1.2941045757591723
1740246556496371700,3.344371826171875,-2.6262559735789894,13.403937994384766,-1.7221172223508356
1740246556506354000,3.35435400390625,-2.6113597254812717,13.260407475328444,-2.105119345349073
1740246556516335600,3.364335693359375,-2.569089732767641,13.23630179259777,-2.4217893397837877
1740246556526317800,3.37431787109375,-2.3252400598719714,13.618684322392939,-2.625753577014804
1740246556536299800,3.3842998046875,-2.026492967879772,14.210764080113172,-2.679108735105395
1740246556546281700,3.39428173828125,-1.7869716795772312,14.71817934924364,-2.8168969111174342
1740246556556263400,3.404263427734375,-1.6326956023618577,15.014634823167324,-2.837005633166432
1740246556566245600,3.41424560546875,-1.6107389143586157,15.014406859630345,-2.889983774638176
1740246556576227600,3.4242275390625,-1.639485408632457,14.521424605000018,-3.3891911873936653
1740246556586209500,3.43420947265625,-1.660077238023281,13.690494005584716,-4.238350101938844
1740246556596191700,3.444191650390625,-1.6510172948636113,12.83099899046421,-4.973882052782177
1740246556606174500,3.454174560546875,-1.6014312800481914,12.286030528008936,-5.337591446289419
1740246556616156700,3.46415673828125,-1.6339304048538208,11.93600011576414,-5.32358571729064
1740246556626138400,3.474138427734375,-1.5526820083178579,11.68142914236784,-4.706850241741538
1740246556636120600,3.48412060546875,-1.3078013849392534,11.583199069762228,-3.804845287671685
1740246556646102800,3.494102783203125,-1.0272459293283522,11.557813284093141,-2.8010686428666114
1740246556656084500,3.50408447265625,-0.634659839296341,11.481069067108631,-1.633705948448181
1740246556666066700,3.514066650390625,-0.08049567847251891,11.435256579482555,-0.3625146307647228
1740246556676048600,3.524048583984375,0.5029238029301166,11.563822169119119,0.254015677601099
1740246556686030600,3.534030517578125,0.9637573536276817,11.73400104112625,0.5318558829039335
1740246556696012500,3.544012451171875,1.3116297110557555,11.728279740869999,0.5988748246878385
1740246556705994500,3.553994384765625,1.4038766175985335,11.372688187366723,0.8041478064298629
1740246556715976400,3.5639765625,1.6294026982963083,11.01897762530446,1.636173215344548
1740246556725958700,3.573958740234375,2.07702020906806,10.992715056800842,2.9601491977542636
1740246556735940400,3.5839404296875,2.326998009455204,10.949939744913577,4.761384380483627
1740246556745922600,3.593922607421875,2.2428017228990793,10.597755954027175,6.32466479357481
1740246556755904500,3.603904541015625,1.8302286375015973,10.024694200509787,7.331091660627722
1740246556765886500,3.613886474609375,1.3222095572590826,9.231378753739595,8.06469878088832
1740246556775868700,3.62386865234375,0.9210130214005708,8.452479954856633,8.529858962613345
1740246556785850600,3.6338505859375,0.5025345113515853,7.682828876790404,8.810421286356448
1740246556795832600,3.64383251953125,-0.006734865779546089,6.614013065841793,9.103623895964025
1740246556805814500,3.653814453125,-0.3389782723546028,5.34767970958352,9.059425273275375
1740246556815796700,3.663796630859375,-0.6751730514705181,4.196553571955859,8.868932512035965
1740246556825778400,3.6737783203125,-1.1931214050531387,3.2337399289190767,9.030633478555083
1740246556835760600,3.6837607421875,-1.903137806367874,2.091994636968523,9.464130109515786
1740246556845742600,3.69374267578125,-2.5143197394430636,0.7674474305421114,9.792832487049699
1740246556855724500,3.703724609375,-2.964092966943979,-0.5240712203770875,9.883444485867022
1740246556865706500,3.71370654296875,-3.2952222793638706,-1.688692214871943,9.806414437678455
1740246556875688400,3.7236884765625,-3.5578690071880814,-2.613770001493394,9.822269593936204
1740246556885670700,3.733670654296875,-3.667375676089525,-3.2011928733184933,10.093423453342915
1740246556895653400,3.7436533203125,-3.6959015133500097,-3.5534582050085066,10.252856474930047
1740246556905635600,3.753635498046875,-3.7818729928851127,-3.9530338616669174,9.999585478216408
1740246556915617500,3.763617431640625,-4.009709104090929,-4.346801124307513,9.63130220092237
1740246556925599500,3.773599609375,-4.216827421438694,-4.703236142897605,9.38506417158544
1740246556935581400,3.78358154296875,-4.384916043168306,-4.988763980093598,9.22094503800869
1740246556945563600,3.793563720703125,-4.494996712565422,-5.275888146570325,9.336770973059535
1740246556955545600,3.803545654296875,-4.583971757830679,-5.643049141836166,9.427123444157838
1740246556965527600,3.813527587890625,-4.662086970907449,-6.081629944193363,9.366963866749405
1740246556975509800,3.823509765625,-4.5867222255826,-6.445957761859893,9.400503148257732
1740246556985491500,3.833491455078125,-4.409868113595247,-6.803778681850433,9.530446455988287
1740246556995473700,3.8434736328125,-4.152355826050043,-7.321133745715022,9.62389689310193
1740246557005455600,3.85345556640625,-3.6927357427954672,-7.896426034763455,9.515107432559132
1740246557015437600,3.8634375,-3.1158091305434703,-8.44401900050342,9.294370924225449
1740246557025419500,3.87341943359375,-2.6668869669139386,-9.06711758134365,9.215871972528099
1740246557035401500,3.8834013671875,-2.162109060549736,-9.609710546839237,9.034652651068567
1740246557045383400,3.893383544921875,-3.2859400717556473,-10.376661718297004,11.10933418805599
1740246557055365600,3.90336572265625,-10.089184500598908,-13.08402214989662,20.09615249028206
1740246557065347300,3.913347412109375,-9.600103345060347,-12.532570170640945,13.004515482461452
1740246557075329500,3.92332958984375,-3.2648119435310363,-11.228658486616611,3.1417899594962595
1740246557085311700,3.933311767578125,0.13079860938563942,-10.559657986301183,4.352884243613481
1740246557095293400,3.94329345703125,-1.0140870994824915,-10.63085158342123,9.441545937263966
1740246557105275600,3.953275634765625,-2.543970196819305,-10.067578233468533,12.29909809937477
1740246557115257600,3.963257568359375,-3.177416568672657,-9.770630592113733,13.499039705836772
1740246557125239600,3.973239501953125,-2.9762089366734026,-10.08833811290264,13.733928658163547
1740246557135221500,3.983221435546875,-2.5584265921950338,-10.449558612203598,13.548003935492037
1740246557145203700,3.99320361328125,-2.2225661596000195,-10.727668282097577,13.118672607517242
1740246557155185400,4.003185302734375,-2.07795193696022,-10.723888763558865,12.225948692011832
1740246557165167600,4.013167724609375,-1.9015595972657202,-10.274931528615951,11.12063767235875
1740246557175150600,4.023150634765625,-1.2289350612342358,-8.967170767948032,10.654783078628778
1740246557185132500,4.033132568359375,0.7867746468245983,-7.151649870234728,10.558681834745407
1740246557195114500,4.043114501953125,2.0852397558808327,-5.545453860002755,10.370503195667267
1740246557205096400,4.053096435546875,1.1509843910694122,-4.621906936210394,10.051863946986197
1740246557215078700,4.06307861328125,-0.16360300074815748,-3.9620419285088775,9.822656547427178
1740246557225060400,4.073060302734375,-1.0056675731182099,-3.1208640758454798,9.972287136924265
1740246557235042600,4.08304248046875,-1.4215209953606127,-2.3866806170016526,10.615946275234222
1740246557245024500,4.0930244140625,-1.6274071405649184,-1.3880214613407849,10.943488961338996
1740246557255006500,4.10300634765625,-1.5544406885534523,0.32678222312629224,11.417215895879268
1740246557264988700,4.11298876953125,-1.1790274132490157,1.7463930009514093,11.569530609893798
1740246557274970600,4.122970703125,-0.8140045990556478,2.8198019849091764,11.2258083578825
1740246557284952600,4.13295263671875,-0.6688473555803298,3.5595296338766813,10.326188253122568
1740246557294934500,4.1429345703125,-0.576654225051403,3.94729414897114,9.109328829607367
1740246557304916700,4.152916748046875,-0.5192331692287698,4.423688549154996,7.968416335219144
1740246557314898400,4.1628984375,-0.344807672627829,5.03322329954505,7.053349070480466
1740246557324880600,4.172880615234375,-0.16388824743032454,5.650783535480499,6.487402701926231
1740246557334862600,4.182862548828125,-0.16339312085714192,6.170619310244917,6.132981361246109
1740246557344844500,4.192844482421875,-0.3507067040711641,6.65784753139317,5.888865146368742
1740246557354826500,4.202826416015625,-0.6340900035191327,7.227030982172489,5.680093216595053
1740246557364808400,4.212808349609375,-0.9553290594350546,7.8638909618616095,5.450829702934622
1740246557374790400,4.222790283203125,-1.2787088537067175,8.445657999882101,5.129697468394041
1740246557384772600,4.232772705078125,-1.540576998373866,8.94415755662918,4.709146828246117
1740246557394754600,4.242754638671875,-1.7150819168865679,9.341848130193352,4.289097123357654
1740246557404736500,4.252736572265625,-1.8021686641871928,9.732117613846063,4.056488975444436
1740246557414718700,4.26271875,-1.7827496779680252,10.153532177346944,3.8800194788604974
1740246557424700400,4.272700439453125,-1.6798977907806634,10.507595790630578,3.597114975905418
1740246557434683600,4.28268359375,-1.503914616408944,10.805168870407343,3.331413536685705
1740246557444665300,4.292665283203125,-1.2833131326317786,11.01970360149145,2.931239329612255
1740246557454647600,4.3026474609375,-1.120816631820798,11.139980670732259,2.494759883448481
1740246557464629800,4.312629638671875,-1.0471230345785618,11.22942771742344,2.0924504179120063
1740246557474611500,4.322611572265625,-1.0682114153146742,11.390760435152053,1.8853952289283276
1740246557484593700,4.33259375,-1.1576747555535285,11.668328837776183,1.8255004399359225
1740246557494575600,4.34257568359375,-1.3132453295588493,12.026731941568851,1.7493845839828253
1740246557504557600,4.3525576171875,-1.4668062442421912,12.379897729229926,1.4847732780873775
1740246557514539500,4.36253955078125,-1.5700341251350938,12.650608521044253,1.004859763866663
1740246557524521500,4.372521484375,-1.6545757179975509,12.801597539412974,0.6397451797366142
1740246557534503400,4.38250341796875,-1.7422317896187305,12.88542031648159,0.34176235011517997
1740246557544485600,4.392485595703125,-1.7484056559480725,12.939023311853408,-0.04421615834534168
1740246557554467800,4.4024677734375,-1.6087318123199044,13.002125956976412,-0.5264268435925245
1740246557564450000,4.412449951171875,-1.424653009776026,12.979718894857168,-1.1383446897268295
1740246557574432000,4.422431884765625,-1.2657530721522867,12.874983093619345,-1.731264405402541
1740246557584414000,4.4324140625,-1.1110546778716146,12.881402313011884,-1.949992496523261
1740246557594396000,4.44239599609375,-1.0096142649173736,13.164839315408468,-1.7645260390132664
1740246557604378000,4.452378173828125,-1.063089980647713,13.535497505140304,-1.4078478593170642
1740246557614359800,4.46235986328125,-1.1740766589738427,13.894766870373486,-1.05708504114449
1740246557624342000,4.472342041015625,-1.1885317391753196,14.17083655887246,-0.919686741232872
1740246557634323700,4.48232373046875,-1.2424855938114225,14.140468308615684,-1.5030337419211863
1740246557644306000,4.492305908203125,-1.3232336396098137,13.521988035225867,-2.6954320933967826
1740246557654288000,4.502287841796875,-1.261964055132866,12.5969225235641,-3.8793940404385325
1740246557664269800,4.512269775390625,-1.0850957684896885,11.805607310700417,-4.650267353776097
1740246557674253000,4.522253173828125,-0.7453833366416395,11.268504174792765,-4.998745275881886
1740246557684234800,4.53223486328125,-0.4150000202834606,10.885675070273875,-5.096029007548093
1740246557694217000,4.542217041015625,-0.25375958394818005,10.764884790813923,-4.852617726069688
1740246557704199000,4.552198974609375,-0.1208077420514077,10.839462769675254,-4.194502192384005
1740246557714180900,4.562180908203125,-0.0762661146113649,10.968857211351393,-3.276455035051703
1740246557724162800,4.572162841796875,-0.020899013910163192,11.09333231680393,-2.548237791135907
1740246557734145000,4.58214501953125,-0.04216507560100872,11.131784504795073,-1.8051333592116832
1740246557744127000,4.592126953125,0.10256489607268013,11.010215642178059,-1.139231409433484
1740246557754109000,4.60210888671875,0.49741819125115866,10.972028827124834,-0.7442179461240768
1740246557764091100,4.612091064453125,0.8817799121648072,10.87449550461173,-0.1590191800892353
1740246557774072800,4.62207275390625,1.2145669286638499,10.65652963003516,0.36892683589458464
1740246557784055000,4.632054931640625,1.4691805721580982,10.309521195960045,1.052081533768773
1740246557794037000,4.642037109375,1.6536995196849107,9.815622411006688,2.188256478241086
1740246557804019000,4.65201904296875,1.9643390017837286,9.146199301365018,3.6515573447108265
1740246557814001000,4.6620009765625,2.37034790636003,8.58534996368885,5.031185071715712
1740246557823982800,4.67198291015625,2.4889450596898794,8.178063294261694,6.166468620306253
1740246557833964800,4.68196484375,2.2881840024143454,7.666134931620955,6.728758219918609
1740246557843947000,4.691947021484375,1.8924486545711754,6.907662250173091,6.606593144974112
1740246557853929000,4.701928955078125,1.279910630711913,5.884442069229483,6.295411226561665
1740246557863911000,4.711910888671875,0.6043634486993774,4.77785591507405,5.942851003578305
1740246557873893000,4.72189306640625,0.17339608048796654,3.6980247891142963,5.819607485747337
1740246557883874800,4.731874755859375,-0.25764672757983204,2.6059458837389946,5.985439268460869
1740246557893857000,4.74185693359375,-0.8632020529448986,1.5713219729885457,6.51633127476871
1740246557903839000,4.7518388671875,-1.8746663296431303,0.011601444336026907,7.15410603121519
1740246557913821000,4.761821044921875,-2.606176185363531,-0.5944637302473187,7.90889271762669
1740246557923804000,4.771803955078125,-3.17006269877851,-1.659685900618136,8.223494673615694
1740246557933785900,4.781785888671875,-3.988983126926422,-2.6823978397786616,8.209559671765565
1740246557943768000,4.79176806640625,-4.436425281131267,-2.9833658226907254,7.9614646163851015
1740246557953750000,4.80175,-4.430461988812684,-2.9260426377519964,7.4339330264210695
1740246557963732000,4.81173193359375,-4.357906455689668,-2.621961783516407,6.67640317878127
1740246557973714000,4.8217138671875,-4.458086493319272,-2.6296888706371186,5.708106428158283
1740246557983696000,4.83169580078125,-4.663656996703148,-3.081870328323543,4.883620767098665
1740246557993677800,4.841677734375,-4.795822072136402,-3.644923605784774,4.497177563735843
1740246558003660000,4.851659912109375,-4.817803602319955,-4.024007094034553,4.43739032677114
1740246558013641700,4.861641845703125,-4.782569791853428,-4.088118916200101,4.664904366415739
1740246558023624000,4.8716240234375,-4.938333185017108,-4.202140139916539,5.1737154738187785
1740246558033606000,4.88160595703125,-5.191895273631811,-4.443244313496351,5.6730725241780275
1740246558043587800,4.891587890625,-5.265276151663064,-4.814800621111691,6.245517607101798
1740246558053570000,4.901570068359375,-5.111267493212223,-5.18130373699069,6.654926675510406
1740246558063552000,4.911552001953125,-4.8210441916763775,-5.588700881054997,7.167000584101676
1740246558073534000,4.921533935546875,-4.491954860651493,-6.109902098953723,7.688422751274705
1740246558083516000,4.931515869140625,-4.040133468449116,-6.689495884588361,7.791447656941413
1740246558093498000,4.941498046875,-3.7475311628222463,-7.203969255536794,7.670007389140129
1740246558103479800,4.951479736328125,-3.4752234572052956,-7.687382302311063,7.425925076532364
1740246558113462000,4.9614619140625,-3.211198426765203,-8.113608650007844,7.338107092347741
1740246558123444000,4.97144384765625,-3.047674920994043,-8.203800962108373,7.627122771659493
1740246558133426000,4.981426025390625,-3.032242374062538,-8.119214799451827,8.113474794495104
1740246558143407900,4.991407958984375,-3.061357409387827,-8.136682067081331,8.524249890559911
1740246558153390800,5.001390869140625,-3.197035461378097,-8.405018530979753,8.868577122727036
1740246558163373000,5.011373046875,-3.511535126036405,-8.892699172070621,9.420341236671804
1740246558173354800,5.021354736328125,-3.849412159150839,-9.434627536177635,9.853204830425977
1740246558183337000,5.0313369140625,-4.149511542534828,-10.023884053170681,9.83795933049917
1740246558193319000,5.04131884765625,-4.32386740796566,-10.691644198036194,9.74861106800735
1740246558203300900,5.05130078125,-4.334878631323575,-11.214287431436777,9.53739583673477
1740246558213282800,5.06128271484375,-4.049813150942326,-11.171190632510184,9.244545109304784
1740246558223265000,5.07126513671875,-3.4885283444583415,-10.386766932725905,9.117275404697656
1740246558233247000,5.0812470703125,-2.8516777171194554,-9.127644238498807,9.015410190460086
1740246558243229000,5.09122900390625,-2.360140400600433,-7.991248929274081,8.653558992040157
1740246558253211100,5.101211181640625,-2.2662872279047965,-7.11742202194035,8.374759001794457
1740246558263192800,5.11119287109375,-2.511106038093567,-6.352356518098712,8.582848794522882
1740246558273175000,5.121175048828125,-2.716991014254093,-5.543838241499662,8.978339812216163
1740246558283157000,5.131156982421875,-2.6127719303667543,-4.726546291336417,9.234347540417312
1740246558293139000,5.141138916015625,-2.2124375642955303,-3.8559412686586376,9.105901193246245
1740246558303121000,5.151120849609375,-1.7991256432294844,-3.042921296726167,8.791656964653729
1740246558313102800,5.161102783203125,-1.468108559012413,-2.3255866813525556,8.348915535485744
1740246558323084800,5.171084716796875,-1.1862170324921608,-1.7027791924133895,7.774368511846661
1740246558333067000,5.18106689453125,-1.0789666180849076,-1.0785472236290574,7.203125790449977
1740246558343048700,5.191048583984375,-1.1770680958747863,-0.42197745808064935,6.7295543387323615
1740246558353031000,5.201031005859375,-1.3516080857008694,0.11421586950570345,6.397663394290208
1740246558363013000,5.21101318359375,-1.3804665159165859,0.5743368880197406,6.133969203239679
1740246558372995800,5.220995849609375,-1.2086755325376988,1.1322706305101513,5.784993268483877
1740246558382978000,5.23097802734375,-0.9817197112977504,1.6885395085282622,5.513289373978972
1740246558392959700,5.240959716796875,-0.732661948364973,2.266456885383278,5.257223778110742
1740246558402942000,5.25094189453125,-0.5067734640955924,2.9335955373495817,4.969388248494267
1740246558412924000,5.260923828125,-0.4380839222183451,3.6125861012816425,4.69272819288671
1740246558422905900,5.27090576171875,-0.5264286336908116,4.181073386490345,4.430728530794382
1740246558432888000,5.28088818359375,-0.7610252885401249,4.67460100004375,4.180463145637512
1740246558442870000,5.2908701171875,-1.0704735150277613,5.1788931687176225,4.035051635140181
1740246558452852000,5.30085205078125,-1.2689011609196663,5.754220529079437,3.933767435660958
1740246558462834000,5.310833984375,-1.4124772726833819,6.3997092209041115,3.795079680460691
1740246558472815900,5.32081591796875,-1.4780851786255835,6.92331223924756,3.6146991479128596
1740246558482797800,5.3307978515625,-1.4751801048338413,7.3826751328706735,3.47978389698863
1740246558492780000,5.340780029296875,-1.4211796345770358,7.789031827971339,3.51479032844007
1740246558502761700,5.35076171875,-1.2305518487811087,8.223270217210054,3.551888763734698
1740246558512744000,5.360743896484375,-0.8757377093911171,8.701862711960077,3.4664018528461455
1740246558522726000,5.370725830078125,-0.5596388293752447,9.253895705974102,3.3151685043275356
1740246558532707800,5.380707763671875,-0.4157026155948639,9.846335529178381,3.0795757876455783
1740246558542690000,5.39068994140625,-0.3551356629619375,10.39960887864232,2.8069278902888297
1740246558552672000,5.400672119140625,-0.38015433235168455,10.959311968892813,2.5278093356132505
1740246558562653200,5.410653076171875,-0.38516485399007794,11.471562403094769,2.1635867318868636
1740246558572636400,5.420636474609375,-0.3119990800142288,12.002666006326674,1.7298890253961086
1740246558582618000,5.4306181640625,-0.21062544868588445,12.51238195361495,1.162247543361783
1740246558592600300,5.440600341796875,-0.09746434893012046,12.8706669839859,0.46142157971858977
1740246558602582500,5.45058251953125,0.05052373405694961,13.069710715949535,-0.24847148747742176
1740246558612564200,5.460564208984375,0.2997030775427818,13.121350886815785,-1.0502812063485383
1740246558622546400,5.47054638671875,0.5989964052408934,13.114573940026759,-1.7829238654911517
1740246558632528400,5.4805283203125,0.8553782274514437,13.252771281361579,-2.230498706164956
1740246558642510300,5.49051025390625,1.0779746844381093,13.517211322343348,-2.3189035503268243
1740246558652492300,5.5004921875,1.1635627176135779,13.882661422038078,-2.1646745271235703
1740246558662474500,5.510474609375,1.1207803914636374,14.137718717646598,-2.004795515334606
1740246558672456200,5.520456298828125,0.9909744463771581,14.121575392097235,-2.175852339220047
1740246558682438400,5.5304384765625,0.7414122410535812,13.678125522398949,-2.7439801434665916
1740246558692420400,5.54042041015625,0.4780652560055256,12.9803688831985,-3.5265257744193077
1740246558702402300,5.55040234375,0.34541214132700115,12.229703660631179,-4.338597944107652
1740246558712384300,5.56038427734375,0.32652276847250755,11.417961745810508,-5.083709624201059
1740246558722366200,5.5703662109375,0.36437874413616955,10.6741763458848,-5.516078127914667
1740246558732348400,5.580348388671875,0.45462066753208635,10.12685109117031,-5.6076376367151735
1740246558742330400,5.590330322265625,0.4753063126862049,9.758348033645749,-5.150457932350039
1740246558752312300,5.600312255859375,0.3678443013548851,9.550447041487693,-4.223961511102319
1740246558762294300,5.610294189453125,0.3006062369275838,9.452986199688912,-3.122984721261263
1740246558772276500,5.6202763671875,0.4109845010317862,9.277561243721843,-1.9689736758470535
1740246558782259200,5.63025927734375,0.7358417474448681,9.11486016024947,-0.751198306530714
1740246558792241400,5.640241455078125,1.1519213796585797,9.120038439670205,0.35584874313473697
1740246558802223400,5.650223388671875,1.4492080437093973,9.019695320433378,1.3315613229721783
1740246558812205300,5.660205322265625,1.7198229739338158,8.755392057573795,2.0943898615419863
1740246558822187500,5.6701875,1.996841341459751,8.352246141213179,2.392830956324935
1740246558832169200,5.680169189453125,2.17903622995317,7.91510501627028,2.4537656097590923
1740246558842151400,5.6901513671875,2.2046616695970296,7.498702727973461,2.5824510263830422
1740246558852133400,5.70013330078125,2.2617191893368958,7.163859363466501,2.733597281140089
1740246558862115300,5.710115234375,2.403112111842632,6.842395705014467,2.78508781440258
1740246558872097300,5.72009716796875,2.4614959117501973,6.521742193901538,2.938933975768089
1740246558882079500,5.73007958984375,2.2072043398171663,6.005918577387929,3.34251945258975
1740246558892061200,5.740061279296875,1.838798897448182,5.340926728191971,3.399319782698154
1740246558902043400,5.75004345703125,1.4590823719918726,4.687462819704413,3.0522119799017906
1740246558912025300,5.760025390625,0.9367969390530139,4.103820635461807,2.729866862440109
1740246558922007300,5.77000732421875,0.32667236954364925,3.5634751566320655,2.3537393013864754
1740246558931989500,5.779989501953125,-0.41177696658372875,2.92748143838346,2.2102479452967643
1740246558941971200,5.78997119140625,-1.3874042062252758,2.003105954812467,2.5907997525334356
1740246558951953400,5.799953369140625,-1.9229203652024267,-2.361278464719653,6.832271201363206
1740246558961935400,5.809935302734375,-0.36419798074178394,-1.4949299304425716,3.5713416522234676
1740246558971918300,5.81991845703125,-1.6925082660287618,0.8195268696084618,3.6617590052515268
1740246558981900500,5.829900634765625,-4.123585658639669,-1.9946838711649177,6.868021144658327
1740246558991882200,5.83988232421875,-4.432828133422136,-2.9359532063916323,6.513157320907712
1740246559001864400,5.849864501953125,-4.199168430629372,-3.4856802615508435,6.4323343101769686
1740246559011846400,5.859846435546875,-4.019116983905435,-3.4759321899965405,6.629843672180176
1740246559021828400,5.869828369140625,-4.2754707490652795,-3.4268817433625456,6.565892885795235
1740246559031810300,5.879810302734375,-4.307970750653744,-4.048266506022214,5.8194362208336585
1740246559041792500,5.88979248046875,-3.891978796723485,-4.790936930443346,4.854893854308128
1740246559051774200,5.899774169921875,-3.3998224715232848,-5.360118335396051,3.979534915101528
1740246559061756400,5.90975634765625,-3.2225784834355116,-5.612192231279611,3.4144425330281254
1740246559071738400,5.91973828125,-3.3409564410567283,-5.533631320261955,3.3221652313470837
1740246559081720300,5.92972021484375,-3.710184305724501,-5.463866294640303,3.7277877669543025
1740246559091702300,5.939702392578125,-4.25693205281198,-5.557480982404947,4.541926806044578
1740246559101684200,5.949684326171875,-4.669550730916858,-5.881511276474595,5.383748801830411
1740246559111666400,5.95966650390625,-4.607241866520047,-6.246477976566553,5.924785770055651
1740246559121648400,5.9696484375,-4.014209338119626,-6.447817710512876,5.998358955788612
1740246559131630300,5.97963037109375,-3.3041309774845837,-6.579540887397528,5.843312186461687
1740246559141612300,5.9896123046875,-2.961356819978356,-6.771699536022544,5.669162072736024
1740246559151594500,5.999594482421875,-2.9827532437503335,-7.0199781312763685,5.669323985299468
1740246559161576200,6.009576171875,-3.1281419578939675,-7.168787467518448,6.109520406159758
1740246559171558400,6.019558349609375,-3.517511277836561,-7.44171067468524,7.190183306768536
1740246559181541400,6.029541259765625,-3.6530817777991293,-7.779170359170436,8.044985780158639
1740246559191523300,6.0395234375,-3.6334891885787246,-8.160619407507777,8.639953660535811
1740246559201505500,6.049505615234375,-3.6451755347192285,-8.71705911204815,9.127083682006598
1740246559211487200,6.0594873046875,-3.629287060713768,-9.327318085059524,9.258713335388899
1740246559221469400,6.069469482421875,-3.572013852396607,-9.899009134745597,9.025236003425716
1740246559231451400,6.079451416015625,-3.58107277264297,-10.475320829969643,8.603112414872646
1740246559241433300,6.089433349609375,-3.546486027908325,-10.980606101334095,7.939864194473624
1740246559251415300,6.099415283203125,-3.369073697516322,-11.146350790286064,7.500368615359068
1740246559261397200,6.109397216796875,-3.2296991290956734,-10.631012911462783,7.514045843055844
1740246559271379200,6.119379150390625,-3.067476184529066,-9.474356319975852,7.799093203258514
1740246559281361400,6.129361328125,-2.8687907644838093,-8.106953283771873,8.107360695528984
1740246559291343400,6.13934326171875,-2.638618319284916,-6.740815737459063,8.14074858586788
1740246559301325300,6.1493251953125,-2.411178513920307,-5.474697485256195,7.867496877399087
1740246559311307500,6.1593076171875,-2.175693933787942,-4.47620024215877,7.408824304127693
1740246559321289200,6.169289306640625,-1.8895967722713947,-3.7161189564704893,6.873979176279902
1740246559331271400,6.179271484375,-1.6205805094152688,-3.1151258244544264,6.278585763967037
1740246559341253400,6.18925341796875,-1.4434452423989772,-2.6883321982637045,5.681197378444671
1740246559351235300,6.1992353515625,-1.274405019032955,-2.366372280727327,5.273940519633889
1740246559361217300,6.20921728515625,-1.1293296086221933,-2.089372325640917,5.354606293976307
1740246559371200300,6.2192001953125,-0.9152537272214889,-1.7580951291829348,5.560360921755433
1740246559381182500,6.229182373046875,-0.6764438020586967,-1.3437620483756065,5.4102504397869104
1740246559391164400,6.239164306640625,-0.47806993218064303,-0.9287105901658534,5.09499206571579
1740246559401146400,6.249146484375,-0.32168694581389423,-0.5806207905948162,4.696875375694036
1740246559411128300,6.25912841796875,-0.20812837117314337,-0.296892111775279,4.229245004463196
1740246559421110300,6.2691103515625,-0.2354021625459194,-0.050884091801941395,3.7730344373911615
1740246559431092200,6.27909228515625,-0.2322609419107437,0.15566986966133117,3.3593133510023354
1740246559441074400,6.289074462890625,-0.1560381184518337,0.42193274215608834,3.0517209815144537
1740246559451056000,6.29905615234375,-0.23279987109303474,0.7335181268028914,3.10226985001266
1740246559461038300,6.309038330078125,-0.610397431633994,1.0528842284537852,3.38343832295537
1740246559471020300,6.319020263671875,-0.9618378568071871,1.5198089356333015,3.584718435668945
1740246559481002200,6.329002197265625,-1.2169372379917651,2.2036843489974736,3.72766151022613
1740246559490984400,6.338984375,-1.68029585018754,2.9008967983186245,3.648201020020246
1740246559500966400,6.34896630859375,-2.2584907288096843,3.4956486978575585,3.4391911898374556
1740246559510948400,6.3589482421875,-2.7812159414052964,3.9311835566475986,3.1833255004554983
1740246559520930300,6.368930419921875,-3.1148388242065903,4.3743508100122215,2.933030889204144
1740246559530912500,6.37891259765625,-3.2118776412010193,4.941726334586739,2.632206114155054
1740246559540895200,6.388895263671875,-3.23531930706501,5.54746169269383,2.3827006074547765
1740246559550877400,6.39887744140625,-3.345543184325099,6.090977033731341,2.2704256428837777
1740246559560860000,6.40885986328125,-3.4967198342204093,6.566776098370552,2.526148708924651
1740246559570841900,6.418841796875,-3.720631173197925,7.122752861574292,3.0584815616905687
1740246559580823800,6.42882373046875,-3.8880417495355006,7.7470286695003505,3.3986721324443816
1740246559590805800,6.4388056640625,-4.016042983287573,8.388399989134072,3.612940321546793
1740246559600788000,6.4487880859375,-4.130042287433147,9.02668503319025,3.6348961327672002
1740246559610769700,6.458769775390625,-4.111789422383905,9.7827781260252,3.620260289171338
1740246559620752000,6.468751953125,-3.983723306702077,10.462109466218948,3.4288007287263866
1740246559630733800,6.47873388671875,-3.799556241352856,11.022103648370503,3.098944504982233
1740246559640715800,6.4887158203125,-3.5997421095386146,11.417447366547584,2.6057383784681556
1740246559650698000,6.498697998046875,-3.368894249296188,11.688164003580807,1.940025813782215
1740246559660680000,6.508679931640625,-3.1196576226651667,11.946143908637762,1.2673977706193924
1740246559670662000,6.518661865234375,-2.8828806646347043,12.190587455773352,0.678860215550661
1740246559680643800,6.528643798828125,-2.643972539794445,12.47496904554367,0.17437047847807408
1740246559690625800,6.538625732421875,-2.427782442718744,12.828057676315307,-0.22720015138983726
1740246559700607700,6.548607666015625,-2.2052805321477353,13.157147007340193,-0.6135322955936193
1740246559710590000,6.55858984375,-1.9933843328736722,13.258604809820651,-1.147508239391446
1740246559720573000,6.568572998046875,-1.821639088332653,13.171022387957573,-1.7818986140966415
1740246559730555000,6.578554931640625,-1.6906581081174312,12.924272317445277,-2.5136095453470944
1740246559740536800,6.588536865234375,-1.6029123123861848,12.441375403499602,-3.3651392806768414
1740246559750518800,6.598518798828125,-1.437913181104511,11.82529400794506,-4.269863430577517
1740246559760501000,6.6085009765625,-1.1670784706495703,11.22250464016199,-5.121636911535263
1740246559770482700,6.618482666015625,-0.9193279909230768,10.692717380225657,-5.759954688817262
1740246559780465000,6.62846484375,-0.7010371952410787,10.165092851281166,-6.176968387010693
1740246559790446800,6.63844677734375,-0.470065489423275,9.69064403220713,-6.27397330173552
1740246559800428800,6.6484287109375,-0.23363223026394841,9.37471462700665,-6.0655778040587895
1740246559810410800,6.65841064453125,-0.04630114792585373,9.244847891643643,-5.621441705662011
1740246559820393000,6.66839306640625,0.04311550362706184,9.161986653083563,-4.948312142717838
1740246559830375000,6.678375,0.1910170408418402,8.996805443233251,-4.169096532970666
1740246559840356900,6.68835693359375,0.43833292854335154,8.870647499260306,-3.448299209922552
1740246559850338800,6.6983388671875,0.7533832493543624,8.925673220911621,-2.8722575638115404
1740246559860320800,6.70832080078125,1.021096612918377,9.171621911913157,-2.2485265302866697
1740246559870303000,6.718302978515625,1.1582611040741204,9.36436508242786,-1.4860148025810718
1740246559880284700,6.72828466796875,1.1735486895769833,9.358985727477073,-0.9922159708708524
1740246559890268000,6.738267822265625,1.1492051064372062,9.133395349371433,-0.5711030206650495
1740246559900249900,6.748249755859375,1.1200345415323971,8.884203730925917,-0.0225040927529335
1740246559910231800,6.758231689453125,1.1800193468958138,8.689109613370896,0.5909393555134534
1740246559920214000,6.768214111328125,1.2270271817862988,8.415872517949342,1.4141402374595402
1740246559930195700,6.77819580078125,1.1558984665960073,7.971751617121696,2.2328864780843256
1740246559940178000,6.788177978515625,0.9366027316551655,7.461257671198249,3.0160084476202726
1740246559950160000,6.798159912109375,0.5399947656959295,6.871392666918039,3.7273458684056995
1740246559960141800,6.808141845703125,-0.05537351217567921,6.193241476419567,4.238936377394199
1740246559970123800,6.818123779296875,-0.8149941946148872,5.254581739169359,4.80746224104762
1740246559980106000,6.82810595703125,-1.4762521179795265,4.167267271716892,5.363337881964445
1740246559990087700,6.838087646484375,-2.0341069500148294,3.2538720318436622,5.745161608833074
1740246560000070000,6.84806982421875,-2.63765853434205,2.5253718793332576,6.202922912478447
1740246560010051800,6.8580517578125,-3.19790639899373,1.63872465339303,6.437912402570247
1740246560020033800,6.86803369140625,-3.545909689325094,0.5328621373370289,6.491289187970757
1740246560030016000,6.87801611328125,-3.6979870874524114,-0.6711933341845869,6.4209793879479165
1740246560039997700,6.887997802734375,-3.6733465671926733,-1.595837113302946,6.388851142281293
1740246560049980000,6.89797998046875,-3.5650527812123296,-2.2158125936865805,6.316438232499361
1740246560059962600,6.907962646484375,-3.433175875070691,-2.8081223607704042,6.706367524412274
1740246560069944800,6.91794482421875,-3.3184541018694635,-3.473883440773189,7.079731465971469
1740246560079926800,6.9279267578125,-3.0557214493274687,-4.120895688903332,7.088238013032078
1740246560089908700,6.93790869140625,-2.853288074925542,-4.567429496091604,7.103123447474837
1740246560099891000,6.947890869140625,-2.738990080094337,-4.767486789011955,7.317084178063273
1740246560109873000,6.957872802734375,-2.462439914602041,-4.840796939894557,7.62705321355462
1740246560119854800,6.967854736328125,-2.0113174644492564,-4.9342058759540315,7.855538144057989
1740246560129836800,6.9778369140625,-1.5511299565702676,-4.938252520996332,8.011504950839281
1740246560139819000,6.987819091796875,-1.1650620162606238,-4.791431143701076,7.94059835396707
1740246560149800700,6.99780078125,-0.87824998447299,-4.646775420007109,7.847437255188822
1740246560159783000,7.007782958984375,-0.742720839434117,-4.638599712336063,7.769308305847645
1740246560169764900,7.017764892578125,-0.7367290516734123,-4.769070258811116,7.666777321177721
1740246560179746800,7.027746826171875,-0.7884639150857925,-5.092105112102628,7.7035718050897115
1740246560189728800,7.037728759765625,-0.8224253675289451,-5.575634478732943,7.785773702958226
1740246560199710700,7.047710693359375,-0.8110628465153277,-6.096566232040524,8.014514654049277
1740246560209693000,7.05769287109375,-0.6848983266711235,-6.585667845845222,8.65694863447845
1740246560219676000,7.067676025390625,-0.40580490643680095,-7.009108946737647,9.413362045308947
1740246560229657900,7.077657958984375,-0.10434592513740062,-7.180170446798205,9.913508784741163
1740246560239639800,7.087639892578125,0.11632160961329936,-7.13762076036036,10.540932243043184
1740246560249621800,7.097621826171875,0.13996157452836633,-7.243931848090886,10.955775611460208
1740246560259603700,7.107603759765625,0.06583250847831368,-7.65579357034862,11.086065540671347
1740246560269586000,7.1175859375,0.017068185309320687,-8.354581890684365,10.988546246683597
1740246560279568000,7.12756787109375,0.12366130485162138,-9.192233322787285,10.42405942928791
1740246560289549800,7.1375498046875,0.5120978739887476,-9.901681568825245,9.497289451795815
1740246560299532000,7.147531982421875,1.0023591792225837,-10.284497813862561,8.491065998360515
1740246560309513700,7.157513671875,1.457663591235131,-10.11204398266077,7.841876698452234
1740246560319496000,7.167495849609375,2.033558083960414,-9.230726427310705,7.803785744988918
1740246560329478000,7.177477783203125,2.514201666021347,-7.782205196821689,8.470214933511615
1740246560339459800,7.1874599609375,2.5505349621623754,-6.133197634345293,9.266984320127964
1740246560349441800,7.19744189453125,2.2924182789832352,-4.610694052800536,9.714152918088436
1740246560359424000,7.207424072265625,1.7872608717821536,-3.4059617049306627,9.719970079934596
1740246560369405700,7.21740576171875,1.1836357838273048,-2.5636732606768606,9.493687043389677
1740246560379388000,7.227387939453125,0.5229239500381052,-2.0742507443547247,9.146838768312335
1740246560389369600,7.23736962890625,-0.012488821629807353,-1.789016337147355,8.620478560215235
1740246560399352800,7.247352783203125,-0.2736370545245707,-1.6002157667785881,8.159403601977228
1740246560409334800,7.257334716796875,-0.4716824231006205,-1.488808232691884,7.8225898141801355
1740246560419316700,7.267316650390625,-0.6507055496901273,-1.391266142350435,7.548250310474634
1740246560429299000,7.277298828125,-0.7511041254412383,-1.256301791587472,7.164119475707412
1740246560439280600,7.28728076171875,-1.0064555086255074,-1.0435685569673776,6.8138423952251665
1740246560449262800,7.297262939453125,-1.3370125741153955,-0.7451248318359255,6.400111956486105
1740246560459244800,7.307244873046875,-1.6508569897353649,-0.3917991774380207,6.026220191660523
1740246560469226800,7.317226806640625,-1.9852438426464796,0.07397446001023053,5.8002609802424905
1740246560479209000,7.327208984375,-2.245256714835763,0.6245651462614535,5.454137512308359
1740246560489191000,7.33719091796875,-2.4045173024654387,1.096963170285523,4.953124511435628
1740246560499172900,7.3471728515625,-2.4200316824615,1.5940049294397234,4.4055268695205445
1740246560509154800,7.35715478515625,-2.3596324510782956,2.2189681351080535,3.8729023403316734
1740246560519137000,7.367136962890625,-2.264693821233511,2.8588036234766245,3.3865275211423636
1740246560529118700,7.37711865234375,-2.220632561188936,3.484381161651015,2.9720915644824504
1740246560539101000,7.387100830078125,-2.2678630989193915,4.137267562511563,2.8122581454008815
1740246560549083000,7.397082763671875,-2.3712363796323537,4.848946051819622,2.858323146483302
1740246560559065900,7.40706591796875,-2.4862702875226734,5.465856591674685,2.911710453277826
1740246560569047800,7.4170478515625,-2.524096452569961,6.063225687974691,2.9410405926585197
1740246560579030000,7.427030029296875,-2.4798621740460396,6.793319831678271,3.0467922929406166
1740246560589012000,7.437011962890625,-2.4013772508740425,7.593563616406917,3.1832021663367747
1740246560598994000,7.446993896484375,-2.323624149107933,8.42581757338047,3.2126024483442306
1740246560608976000,7.456975830078125,-2.265724917846918,9.207098298963905,3.1998721461087465
1740246560618958000,7.4669580078125,-2.2505016297519207,9.945285732752085,3.1614111902892588
1740246560628939800,7.476939697265625,-2.2991525556743144,10.57943586896062,2.9542192231833933
1740246560638922000,7.486921875,-2.3117291286528108,11.115146673727034,2.6800737807452677
1740246560648904000,7.496904052734375,-2.226001979267597,11.810555873018503,2.5052649108499288
1740246560658886000,7.506885986328125,-2.0986685617744922,12.609627691358327,2.1564210780411956
1740246560668867800,7.516867919921875,-1.8981120871603487,13.379558755409716,1.6107283929646015
1740246560678850000,7.52685009765625,-1.687238801193237,13.993104495006799,0.8539853117883205
1740246560688831700,7.536831787109375,-1.5881787075042724,14.239999526947736,-0.08553133455216884
1740246560698814000,7.54681396484375,-1.519456615064293,14.199420848321914,-1.1687199542462825
1740246560708797000,7.556796875,-1.365547325334698,14.115144482266903,-2.305089544507861
1740246560718779000,7.56677880859375,-1.0979388834498822,14.078117358642816,-3.3349545702934265
1740246560728760800,7.5767607421875,-0.7226831367947161,14.145469477903841,-3.984176603427529
1740246560738742800,7.58674267578125,-0.39752047769427296,14.415128130316733,-4.325813865858316
1740246560748725000,7.59672509765625,-0.27872926309704776,14.531742585396765,-4.527461642840504
1740246560758706700,7.606706787109375,-0.46161330289840696,14.243660972064733,-4.747184590217471
1740246560768689000,7.61668896484375,-0.8708103359915316,13.66077691271305,-4.9216918468177315
1740246560778671000,7.626671142578125,-1.342433868511766,13.050831827956438,-4.971642164900898
1740246560788652800,7.63665283203125,-1.8331657138668,12.374216176462173,-4.984136320292949
1740246560798635000,7.646635009765625,-2.204925142838806,11.630528976213931,-4.973023974648117
1740246560808617000,7.656616943359375,-2.3644307912707325,10.87486842957735,-4.814333880382776
1740246560818599000,7.666598876953125,-2.1837831322193146,10.296668728649616,-4.5074505359470844
1740246560828580900,7.676580810546875,-1.859913435538858,9.933776496744155,-4.144108806708455
1740246560838563000,7.68656298828125,-1.4618002526484428,9.808595288848876,-3.4089538724839685
1740246560848544800,7.696544677734375,-0.959507806424424,9.723533909896016,-2.517970078644156
1740246560858528000,7.706528076171875,-0.44982349638342856,9.635714172145724,-1.6961381469637153
1740246560868510000,7.716510009765625,0.07620411875844,9.66030325447917,-0.9724749130904674
1740246560878492000,7.726491943359375,0.5680922214765102,9.822067349362372,-0.24558161125481126
1740246560888474000,7.73647412109375,0.9339561626691371,10.038929646611214,0.5331085133135318
1740246560898455800,7.746455810546875,1.139311488932371,10.092974540531635,1.102132974138856
1740246560908438000,7.75643798828125,1.2192075210113078,9.86041666150093,1.5396253967374562
1740246560918419700,7.766419677734375,1.2337749024808407,9.529338202485441,2.129804873794317
1740246560928402000,7.77640185546875,1.1536965726375579,9.309378523743153,2.948249501124024
1740246560938384000,7.7863837890625,1.0552011270940302,9.088310006976126,3.676969433864951
1740246560948365800,7.79636572265625,0.898735138618946,8.73207138774097,4.295505236834288
1740246560958348000,7.80634814453125,0.6550900483846664,8.100026114857195,4.687406705603003
1740246560968330000,7.816330078125,0.37113512306120244,7.212178280955553,4.6121197016894815
1740246560978312000,7.82631201171875,-0.030537761604785916,6.264682326298952,4.283026279011368
1740246560988294000,7.8362939453125,-0.416802685791254,5.371969516709447,3.990115345826745
1740246560998276000,7.846276123046875,-0.753645115160942,4.528539501205087,3.676846099746227
1740246561008257800,7.8562578125,-1.1805249583303927,3.6347447415977716,3.4634815814852713
1740246561018241000,7.866240966796875,-1.6606711122632025,2.6626819164395332,3.4604438212245703
1740246561028223000,7.876222900390625,-2.049227362257242,1.7239041057676077,3.757681385436654
1740246561038205000,7.886204833984375,-2.2780092298805714,0.6380073961585759,4.180347994825244
1740246561048187100,7.896187255859375,-2.385226911062002,-0.38998511375337835,4.50939816288352
1740246561058168800,7.9061689453125,-2.2938450969159603,-1.3345523214817046,4.768075402554869
1740246561068151000,7.916151123046875,-2.05380066152215,-2.0638722659423947,4.900691144365072
1740246561078133000,7.926133056640625,-1.7956535832047462,-2.5559450045123695,4.8828193875879045
1740246561088115000,7.936114990234375,-1.5345546693444252,-2.878464601758122,4.671681313204765
1740246561098097000,7.946096923828125,-1.2388684262275695,-3.025638445752859,4.40036846384406
1740246561108078800,7.956078857421875,-1.080791495424509,-3.07678498788327,4.365077954754233
1740246561118060800,7.966060791015625,-0.9974316596925258,-3.1279777072429655,4.503142609620094
1740246561128043000,7.97604296875,-0.9039771309256553,-3.148292765519023,4.856518825161457
1740246561138024700,7.986024658203125,-0.89102529489398,-3.0477620147556066,5.61208409473002
1740246561148007000,7.9960068359375,-0.8879308360099792,-2.919930000090599,6.317047888830304
1740246561157990000,8.005989990234376,-0.9257668648641556,-2.9284423923701044,6.817889624789357
1740246561167971800,8.015971923828126,-1.0097042812883854,-3.03212722325027,7.30470692704916
1740246561177954000,8.0259541015625,-1.083765469733998,-3.2631343657076357,7.805930355802178
1740246561187935700,8.035935791015625,-1.0810381636619568,-3.668966160151362,8.191235495045781
1740246561197918000,8.04591796875,-0.9800117383360862,-4.207022066739201,8.607862824270128
1740246561207900000,8.05589990234375,-0.848425412638858,-4.936750299739837,9.205469820979237
1740246561217881900,8.0658818359375,-0.7528419820845127,-5.844548450258374,9.806987853652238
1740246561227864000,8.075864013671875,-0.8045090409576893,-6.877020443671942,10.20038979011178
1740246561237846000,8.085845947265625,-1.0095535477060824,-7.951132022941112,10.430721809786558
1740246561247828000,8.095827880859375,-1.1801754873055963,-8.85411605117619,10.820359425276518
1740246561257810000,8.105809814453124,-1.1591021580081433,-9.311313875719904,11.511539024174212
1740246561267792000,8.1157919921875,-1.0893676736552267,-9.31286811942458,12.436247977483271
1740246561277773800,8.12577392578125,-1.1485293991327286,-9.032925973406433,13.352083888506888
1740246561287756000,8.135756103515625,-1.3616601086378097,-8.758890421083569,13.821903878736496
1740246561297737700,8.14573779296875,-1.75691030331254,-8.683717983460426,13.652514111280441
1740246561307721000,8.155720947265625,-2.2350259743310508,-8.878060990387201,12.935123381805418
1740246561317703000,8.165702880859374,-2.4669968472540376,-9.240136645212768,11.907952417409419
1740246561327684900,8.175684814453126,-2.450767012465,-9.527617370042204,10.90426286636591
1740246561337667000,8.1856669921875,-2.1804130712643266,-9.537226325386762,9.801922386956214
1740246561347648800,8.195648681640625,-1.7594050427377224,-9.00154533123672,8.916858046293259
1740246561357631000,8.205630859375,-1.2092740098875014,-8.021270558050274,8.184139983826876
1740246561367613000,8.215613037109375,-0.7350900522947311,-6.905581352245807,7.504628610891103
1740246561377594000,8.225593994140626,-0.7427273422401398,-5.117945071280002,6.597604951876401
1740246561387576800,8.235576904296876,-1.0648645160395651,-4.441854904964566,6.4346852572172875
1740246561397559000,8.24555908203125,-1.27318336828351,-3.8182518817335365,6.600898732724786
1740246561407541000,8.255541015625,-1.3224480421900748,-3.1530303154349326,6.951395008915663
1740246561417523000,8.26552294921875,-1.2773860806703567,-2.6866630960077047,7.165002688282728
1740246561427505000,8.2755048828125,-1.179987125126645,-2.396179682230949,7.196891864496469
1740246561437486800,8.28548681640625,-1.116394723725319,-2.23396024479568,7.219265608868002
1740246561447469000,8.295468994140625,-1.1735432827495038,-2.1333605204492807,7.0059449297487735
1740246561457450800,8.30545068359375,-1.2707307144343851,-1.962702340492606,6.8027206972301
1740246561467433000,8.315432861328125,-1.3254045539081096,-1.610296431288123,6.736902947929501
1740246561477415000,8.325414794921874,-1.2720038031101226,-1.2295175372973084,6.530199641123414
1740246561487396900,8.33539697265625,-1.236148061352968,-0.876386820949614,6.326470381692052
1740246561497378800,8.34537890625,-1.1382476590931414,-0.5495987526044249,6.145201960393786
1740246561507361000,8.355361083984375,-0.9146890060108155,-0.1201502279907465,5.869191308605671
1740246561517342700,8.3653427734375,-0.5732989963393658,0.38868805968016384,5.499429190930724
1740246561527326000,8.375325927734375,-0.32208215567655857,0.8943772356703877,5.165890479281544
1740246561537308000,8.385307861328124,-0.27684366854615505,1.3958708596669136,4.970097858068347
1740246561547289900,8.395289794921876,-0.27081008747033775,1.9622456827662884,4.711345799595117
1740246561557272000,8.40527197265625,-0.2706640300631523,2.6526918528228998,4.418198135045171
1740246561567254000,8.41525390625,-0.38197446045093236,3.353454103580117,4.064676958075165
1740246561577236000,8.425236083984375,-0.6255681858241557,4.007418362805247,3.8325785132497545
1740246561587218000,8.435218017578125,-0.9476104478817432,4.729737780854106,3.785991534119844
1740246561597200000,8.445199951171874,-1.2168822198688982,5.486358696955442,3.762057116302848
1740246561607182000,8.45518212890625,-1.4265104742109775,6.252891350740194,3.6488702975839375
1740246561617163800,8.465163818359375,-1.6162953794419765,6.994574809950589,3.536168632033467
1740246561627146000,8.47514599609375,-1.815344956624508,7.742567013916373,3.4189223087906835
1740246561637128000,8.4851279296875,-2.0384335810422898,8.460499595183133,3.2208675878643986
1740246561647110000,8.49510986328125,-2.250339132666588,9.046082976621388,3.0173206992626187
1740246561657091800,8.505091796875,-2.4266379488587377,9.613198973476885,2.8419845906227827
1740246561667074800,8.51507470703125,-2.598814716684818,10.150634117817878,2.630006558284163
1740246561677057000,8.52505712890625,-2.6607529942035675,10.64424181087017,2.3973206689596176
1740246561687039000,8.5350390625,-2.6748820573210716,11.167948874109983,2.2432284238785503
1740246561697021000,8.54502099609375,-2.648230197238922,11.721445510935784,2.142998117366433
1740246561707003000,8.5550029296875,-2.5720716711878775,12.26498540189266,2.077422944650054
1740246561716985000,8.564985107421874,-2.4538415976047516,12.71003569252491,1.8498866931736468
1740246561726966800,8.574966796875,-2.3820962118208406,12.935360697692632,1.2294599618911743
1740246561736949000,8.584948974609375,-2.2451332345865667,13.02796182450056,0.1985860513240099
1740246561746931200,8.59493115234375,-2.0123707728944717,13.057489532279968,-0.9335451707154512
1740246561756913000,8.604912841796875,-1.7268049417756497,13.10381172299385,-1.8677444214254617
1740246561766895000,8.61489501953125,-1.3502059638179837,13.30702192698717,-2.6208120289593935
1740246561776876800,8.624876708984376,-1.0386157568655907,13.677027790290117,-3.1297312729120255
1740246561786859000,8.63485888671875,-0.7782583090223372,13.967618171572685,-3.5221284162431954
1740246561796842000,8.644842041015625,-0.6944470762610435,13.995219295203684,-3.9419600944668054
1740246561806824000,8.654823974609375,-0.8951181171655654,13.607566716051101,-4.293969113308191
1740246561816806100,8.66480615234375,-1.2540426144838333,12.981983332657814,-4.5262896764516825
1740246561826787800,8.674787841796874,-1.7718807856902479,12.276554259133338,-4.563748177230358
1740246561836770000,8.68477001953125,-2.229058736489713,11.545828247267007,-4.490737301555276
1740246561846752000,8.694751953125,-2.574483993026614,10.798204876613616,-4.517974852570891
1740246561856734000,8.70473388671875,-2.7651705232724546,10.10238300486803,-4.484195917087793
1740246561866716000,8.7147158203125,-2.796618093198538,9.545236028841137,-4.332746295469999
1740246561876698000,8.724697998046874,-2.6727517672941086,9.382017643496393,-3.870463715007901
1740246561886679800,8.7346796875,-2.308593753236532,9.533745497533678,-3.1814772422403097
1740246561896662000,8.744662109375,-1.8181199742957947,9.759013219556213,-2.4444027381300923
1740246561906644000,8.75464404296875,-1.1495676561392842,9.885455241167545,-1.6323954503715037
1740246561916626000,8.7646259765625,-0.40441885890588164,10.00840240640044,-0.7556102777540683
1740246561926609200,8.774609130859375,0.09716974989771843,10.186443097823858,-0.07016659215986729
1740246561936590800,8.7845908203125,0.3286465556934476,10.299558604872226,0.47592532136738297
1740246561946573000,8.794572998046876,0.34872941264882684,10.225974313223361,0.9014765462815761
1740246561956555000,8.804554931640626,0.23663331177607178,9.963594127380848,1.3078759114801883
1740246561966537000,8.814536865234375,0.23884499647617338,9.484806986841559,1.6831483170092105
1740246561976519000,8.824518798828125,0.640838235670328,8.954406563442944,2.0851298657655715
1740246561986500900,8.8345009765625,1.2960872740089893,8.397237375584245,2.6383669748723504
1740246561996482800,8.84448291015625,2.015173116964102,7.910489046907425,3.019567601406574
1740246562006465000,8.854465087890626,2.6929075433552265,7.584834366506338,3.2919787673979997
1740246562016447000,8.864447021484375,3.0396190403103827,7.347046185606717,3.478257125812769
1740246562026429000,8.874428955078125,2.7811668415665625,7.065230062410235,3.5731098309397695
1740246562036411100,8.8844111328125,1.916263829922676,6.549400600677728,3.5270255406349897
1740246562046392800,8.894392822265624,0.8822732486397027,5.918513265657425,3.3269384370982644
1740246562056375000,8.904375,-0.013614099332690238,5.235403575968742,3.1554660181492564
1740246562066357800,8.914357666015626,-0.6680360391974449,4.670482458809018,3.1982027515918015
1740246562076340000,8.924340087890625,-1.2149591428518294,4.059198526664078,3.4287504598438736
1740246562086322200,8.934322265625,-1.9789421121537685,3.214590991812944,4.1022020943492645
1740246562096303900,8.944303955078125,-2.723732889729738,2.1932906730160115,4.8135845233201975
1740246562106286000,8.9542861328125,-3.252098592430353,1.012478129915893,5.132044908303022
1740246562116268000,8.96426806640625,-3.668146075940132,-0.04663461766391992,5.418623715856671
1740246562126250000,8.97425,-3.9513258887052536,-0.8018938900232314,5.581242381742596
1740246562136232000,8.98423193359375,-4.094840041148663,-1.3648416612833738,5.670733852097392
1740246562146214000,8.9942138671875,-4.117865527427196,-1.7322984246253965,5.75615354296863
1740246562156195800,9.00419580078125,-3.9839819576382633,-1.8665338765919208,5.883619646930694
1740246562166178000,9.014177978515624,-3.7839994835197923,-1.9743448474913834,5.976773146924376
1740246562176159700,9.02415966796875,-3.5473417679548263,-2.077269799914956,6.057405018997192
1740246562186142000,9.034141845703125,-3.2923312340974804,-2.1845494404166934,6.268389364123344
1740246562196125000,9.044125,-3.106967652440071,-2.3439047205924988,6.6225383176028725
1740246562206107000,9.05410693359375,-2.9356244128286835,-2.6071447381347417,7.021380399289727
1740246562216089000,9.064089111328125,-2.7193641731262206,-2.8983734173208475,7.576024452584981
1740246562226070800,9.07407080078125,-2.501937227731943,-3.158503193888068,8.11216078928709
1740246562236053000,9.084052978515626,-2.4043735100805756,-3.4257033472329375,8.72802415817678
1740246562246035000,9.094034912109375,-2.38946352571845,-3.902566241711378,9.38062589687705
1740246562256017000,9.104016845703125,-2.3709096318960188,-4.619431486007571,9.924003290748596
1740246562265999000,9.1139990234375,-2.2598469657242295,-5.433969753548503,10.35402786168456
1740246562275981000,9.12398095703125,-2.1151415576696393,-6.208464764514565,10.799488486683368
1740246562285963000,9.133962890625,-1.9012474625766276,-6.833486422371864,11.57773495913744
1740246562295945000,9.143945068359375,-1.6075544391036032,-7.2849027409046885,12.709137866902351
1740246562305927000,9.153927001953125,-1.2707178549528122,-7.382254861631989,14.057739756524562
1740246562315908900,9.163908935546875,-1.0192027619957924,-7.460373289579152,15.225698663270473
1740246562325891000,9.17389111328125,-0.8560299693584441,-7.834808659762143,15.897115577077864
1740246562335874000,9.1838740234375,-0.6317886677742004,-8.358197743093967,16.065333962666987
1740246562345856000,9.19385595703125,-0.4930325235128402,-9.360448201245068,15.520159748506545
1740246562355838000,9.203837890625,-0.28602530185673386,-10.61980996492505,14.370851766216754
1740246562365820000,9.21381982421875,-0.04671150055872276,-11.533023710751532,12.887870632243155
1740246562375802000,9.223802001953125,0.12619359067506156,-11.6256283446908,11.519744542461632
1740246562385783800,9.23378369140625,0.3945815016329288,-10.794942075425386,10.504558614891767
1740246562395766000,9.24376611328125,0.8572440213233232,-9.23998700760901,9.748844292241335
1740246562405748000,9.253748046875,1.2463473838061094,-7.445072260072827,9.227982097038627
1740246562415730000,9.26372998046875,1.3139707212239502,-5.88478343001306,8.708412279734015
1740246562425711900,9.2737119140625,1.0591232689738272,-4.732203294184804,8.203370753997564
1740246562435694000,9.283694091796875,0.6274965235382318,-3.909135098707676,7.75434162286222
1740246562445675800,9.29367578125,0.24836746084736658,-3.288101049181819,7.551142524784803
1740246562455658000,9.303657958984376,0.13326165676461532,-2.7858886093914506,7.367105223295092
1740246562465641000,9.313640869140626,0.2679600500677712,-2.3924399111807344,7.002271794193983
1740246562475623000,9.323622802734375,0.3793845900882035,-2.122856077569723,6.587007570016384
1740246562485605000,9.333605224609375,0.36562779434919357,-1.9753075550436971,6.163496911019086
1740246562495586800,9.3435869140625,0.4294143300831318,-1.7224714426159857,5.631313695856928
1740246562505569000,9.353569091796874,0.5458417381584644,-1.330648299780488,5.211339394292235
1740246562515551000,9.363551025390626,0.5848240875035524,-0.909447671291232,4.884159696280956
1740246562525533000,9.373532958984375,0.48250711091049014,-0.5555433402225375,4.56229037963748
1740246562535515100,9.38351513671875,0.4513970293104648,-0.20754706415385007,4.237138972583413
1740246562545496800,9.393496826171875,0.2894371195942163,0.08345452827811241,4.095958231523633
1740246562555479000,9.40347900390625,0.21438041730523108,0.3865586464360356,4.198257161003351
1740246562565461200,9.413461181640624,0.22899463359117506,0.6438721965387463,4.266232965120673
1740246562575443000,9.42344287109375,0.07223287703990935,1.0398743786245583,4.206238807407021
1740246562585426200,9.43342626953125,-0.06997658601310104,1.4932611204475164,4.0194752958238125
1740246562595408100,9.443408203125,-0.21408231114149093,1.9935165809512136,3.8253801261782643
1740246562605390000,9.45339013671875,-0.36945758177042004,2.5279884915724393,3.681267423319816
1740246562615372300,9.463372314453125,-0.5802654012858868,3.12172156945765,3.5995933487176894
1740246562625354000,9.47335400390625,-0.8081880217313766,3.7198224871635435,3.502622336262464
1740246562635336200,9.483336181640626,-1.1433446899712085,4.346220109549164,3.4314807615906
1740246562645318100,9.493318115234375,-1.540851139140129,4.968914785763621,3.384296985611319
1740246562655300000,9.503300048828125,-1.919663409233093,5.623613204482197,3.3833342780590057
1740246562665282000,9.513281982421875,-2.2438193755090237,6.329974590420723,3.4808278530836105
1740246562675264000,9.523263916015624,-2.507243517446518,7.126832239842415,3.5864433597654104
1740246562685246000,9.533245849609376,-2.8049475301265714,7.87946320952475,3.4926036310732362
1740246562695228200,9.543228271484375,-2.998778495877981,8.522400463300944,3.1681653407245873
1740246562705210000,9.553210205078125,-3.1529087348818776,9.06769508897066,2.7138457019656896
1740246562715193000,9.563193115234375,-3.2211914129912853,9.481887300002574,2.3698253437906502
1740246562725175000,9.573175048828125,-3.1850913410842416,9.972677597546577,2.2107921351760624
1740246562735157000,9.583156982421874,-3.0623896750450132,10.586624319159984,2.3669886590600013
1740246562745139200,9.59313916015625,-2.8240286626935003,11.30171203238964,2.579068398207426
1740246562755121000,9.603120849609375,-2.4694553463220594,12.053648005545138,2.4799089357972144
1740246562765103000,9.61310302734375,-2.0330571487009523,12.651352032887935,1.9745558598935602
1740246562775085000,9.6230849609375,-1.6818506784141063,12.97456691892147,1.2035644731342792
1740246562785067000,9.63306689453125,-1.4220155008792876,13.110384087121487,0.32047114028334617
1740246562795049200,9.64304931640625,-1.2221570184666664,13.153729892373084,-0.593422404500842
1740246562805031200,9.65303125,-0.9533563711225986,13.308254099130629,-1.1545049664109945
1740246562815013000,9.66301318359375,-0.6144014065783471,13.772067542421818,-1.2467834371358155
1740246562824995000,9.6729951171875,-0.34390688786320384,14.391744916641711,-1.0510159503638743
1740246562834978000,9.68297802734375,-0.19211371350474654,14.830236871671676,-1.0030892470628023
1740246562844960000,9.6929599609375,-0.23413031597919762,14.87129602729082,-1.3208446986466646
1740246562854942200,9.702942138671874,-0.391524452149868,14.50648188741207,-1.9464397724777458
1740246562864924200,9.712924072265626,-0.6630956601858139,13.845626115107535,-2.8235382488280534
1740246562874906000,9.722906005859375,-1.0200516339100896,12.998006246697901,-3.764369484898448
1740246562884888000,9.73288818359375,-1.3341690212525426,12.093159347200393,-4.578215094000101
1740246562894870000,9.7428701171875,-1.656998999621719,11.189604241079092,-5.277827590200305
1740246562904852200,9.752852294921874,-1.9245792383253573,10.339130736804007,-5.780275007790327
1740246562914834000,9.762833984375,-2.07736536924392,9.780062437325716,-5.8006046791136265
1740246562924816100,9.772816162109375,-2.026953571128845,9.722397599342465,-5.024300572898984
1740246562934798000,9.782798095703125,-1.7874584401808677,10.072464836466311,-4.024429703360796
1740246562944780000,9.792780029296875,-1.5236637113653122,10.26186161916256,-3.251356249630451
1740246562954763300,9.80276318359375,-1.2082054308079182,10.250879621899127,-2.5055671086668965
1740246562964745000,9.812744873046874,-0.8376243979655206,10.314198540121316,-1.6878911276221273
1740246562974727200,9.82272705078125,-0.47675008175373074,10.408246943128109,-0.8373632628113031
1740246562984709000,9.832709228515625,-0.09215119108334183,10.481295812726021,0.03191489517688751
1740246562994691000,9.842691162109375,0.29216508325338364,10.332165573966503,0.6910264541625977
1740246563004673000,9.852673095703125,0.6514622132763266,9.80733973582983,0.9894301395446061
1740246563014655200,9.8626552734375,0.9259645063281059,8.974571399593353,1.0136386981278658
1740246563024637000,9.872636962890626,1.0975649355709551,8.193756537955998,0.8913970508158207
1740246563034619100,9.882619140625,1.130154661269486,7.751046672970056,0.90238313973248
1740246563044601000,9.89260107421875,1.0824766720324754,7.5357508943855755,1.105551258149743
1740246563054583000,9.9025830078125,1.0995416424714028,7.223841830742359,1.1101947000414132
1740246563064565200,9.912565185546875,1.2860006181500852,6.758305216920375,0.9290934520035982
1740246563074548000,9.9225478515625,1.6640296289108694,6.490024282601476,0.8418810324966907
1740246563084530200,9.9325302734375,1.886218528009951,6.374796313443779,1.2807190244853497
1740246563094511900,9.942511962890626,1.9198118777930735,5.990391922432184,2.1446815404087305
1740246563104494000,9.952494140625,1.6432891848295925,5.554502843376993,2.4715479346871376
1740246563114476300,9.962476318359375,1.175078383362293,5.577855661913752,2.5415391702800987
1740246563124458000,9.9724580078125,0.6279989201024174,5.557992439058423,2.305885663321614
1740246563134440200,9.982440185546874,0.053458180073648685,5.18613422588706,2.015271901163459
1740246563144422100,9.992422119140626,-0.3980101609073579,4.684256424878537,1.9277713123649358
1740246563154404000,10.002404052734375,-0.7149110414884984,4.177388560497761,2.229933473497629
1740246563164386000,10.012385986328125,-0.8189373792827129,3.4045974308401346,3.148588533595204
1740246563174368300,10.0223681640625,-0.3466075251240283,2.244848718556762,3.8624773924291134
1740246563184350000,10.032349853515624,-1.1745697762530296,1.9265742115348576,4.660356201592087
1740246563194332200,10.042332275390624,-2.2729157061338423,1.5942881302952765,5.98262187295258
1740246563204315100,10.052315185546876,-2.932323033195734,0.6326821094825863,7.015177452996372
1740246563214297000,10.062297119140625,-3.3782126972615716,-0.47085547075718637,7.522375279983878
1740246563224279000,10.072279052734375,-3.9662861419498916,-1.4639754047304392,8.05294638377428
1740246563234261000,10.082260986328125,-4.432975432938337,-2.3504753311544655,8.686559344366191
1740246563244243200,10.0922431640625,-4.624778107732534,-3.161198424321413,9.376508524686098
1740246563254225000,10.102224853515626,-4.558828841006756,-3.8316765959739683,10.038361491334438
1740246563264207000,10.11220703125,-4.412383895808458,-4.473804871454835,10.833907473635673
1740246563274189000,10.12218896484375,-4.217271658074855,-5.110780586478114,12.073142979609965
1740246563284171000,10.1321708984375,-3.7608781356513497,-5.660689427945018,13.281039928990602
1740246563294153000,10.142153076171875,-3.1176199793577193,-5.994626783522963,14.252981758117675
1740246563304135200,10.15213525390625,-2.339250757306814,-6.208171919047832,14.572221895301341
1740246563314117000,10.1621171875,-1.4815806195259094,-6.459338636958599,14.023068256115913
1740246563324100000,10.17210009765625,-0.675104077887535,-6.953200012511014,13.043830424761772
1740246563334082000,10.18208203125,0.29658523778319357,-7.487927066937089,11.907892796176672
1740246563344064000,10.19206396484375,1.2800678671002388,-7.891098702260852,10.966474700129032
1740246563354046200,10.202046142578125,2.048580881047249,-8.072311593979597,10.545560487365721
1740246563364028000,10.21202783203125,2.5174457625091073,-7.847651190200447,10.797203006094694
1740246563374010000,10.222010009765626,2.709980258709192,-7.443862299761176,11.592370218211412
1740246563383992300,10.231992431640625,2.914622541332245,-7.279800449329614,12.465062568557261
1740246563393974000,10.24197412109375,3.2391391576141118,-7.264116557985544,12.938286814272402
1740246563403956200,10.251956298828125,3.4410341873556374,-7.465671980509161,12.654509620136022
1740246563413938000,10.26193798828125,3.318805399525165,-8.162878000089526,11.618586024963856
1740246563423920000,10.271920166015626,3.055025283756852,-9.256091170191764,10.524480289936065
1740246563433902000,10.281902099609376,2.774771003049612,-10.250959116876125,9.587143910244107
1740246563443885000,10.291885009765625,2.5286978088855743,-10.71593225159645,9.048172057855128
1740246563453867300,10.3018671875,2.337656181591749,-10.434583161389828,8.92185220131874
1740246563463849000,10.311848876953125,2.248971351444721,-9.498547927424312,9.012629035308956
1740246563473831200,10.3218310546875,2.1068349170953034,-8.224780621773004,8.902693327340483
1740246563483813000,10.331813232421876,1.784863309121132,-6.930471463352442,8.689223010617495
1740246563493795000,10.341795166015626,1.2835598008692264,-5.826524717789888,8.376423135614395
1740246563503777000,10.351777099609375,0.6669850688397884,-4.871820439189672,8.109749051970242
1740246563513759200,10.36175927734375,0.1116799212872982,-3.878002293819189,8.02728470377326
1740246563523741000,10.371740966796875,-0.3067477353572845,-3.138174691608548,7.988852389526366
1740246563533723100,10.38172314453125,-0.6037526598572731,-2.7321581882476806,8.029213041487335
1740246563543705000,10.391705078125,-0.8343138121128082,-2.4879735843092203,8.196734092462062
1740246563553687000,10.40168701171875,-0.9108394179105758,-2.2295850984513756,8.393269640997051
1740246563563669200,10.411669189453125,-0.8112649449586867,-1.8029156831622122,8.52897224290669
1740246563573651200,10.421651123046875,-0.620515578609705,-1.2262819163769483,8.54607184626758
1740246563583633200,10.431633056640624,-0.43330958395600316,-0.677137045019865,8.290094513204693
1740246563593615400,10.441615478515626,-0.389303268969059,-0.15282207901477812,7.845602440977096
1740246563603597300,10.451597412109376,-0.38857382218334824,0.43423575889021154,7.3675517980188125
1740246563613579300,10.461579345703125,-0.43509705189466474,1.118819028262794,6.898322759419679
1740246563623561500,10.4715615234375,-0.585967960309051,1.8339526264607906,6.523298775693774
1740246563633543200,10.481543212890625,-0.8600842131853104,2.529215110757947,6.196099203938245
1740246563643525400,10.491525390625,-1.1560405054152012,3.1045646829515694,5.924423366484046
1740246563653507300,10.50150732421875,-1.4171055170059204,3.713452659870684,5.752585621353983
1740246563663489300,10.5114892578125,-1.5805916133761404,4.369086898134649,5.550380210489035
1740246563673472500,10.521472412109375,-1.6064076071560383,5.0152428216964005,5.248505049604177
1740246563683454200,10.5314541015625,-1.529739378017187,5.626170487749576,4.846809332051873
1740246563693436400,10.5414365234375,-1.421803903955221,6.176362237811088,4.348774470207095
1740246563703418400,10.55141845703125,-1.416582808306068,6.654235770636797,3.819431446906924
1740246563713400300,10.561400390625,-1.4456684714064,7.013089540806412,3.3485347673565147
1740246563723382300,10.57138232421875,-1.4725671458564698,7.347109313970804,3.03328340754807
1740246563733364200,10.5813642578125,-1.4886195782519875,7.773090162473917,2.9926924539625643
1740246563743346200,10.59134619140625,-1.488938581073284,8.288172020709514,3.0538328591018913
1740246563753328400,10.601328369140624,-1.481634541670233,8.725622942253947,2.9973896718680857
1740246563763310000,10.61131005859375,-1.512746303770691,9.13151611149609,2.854479915058613
1740246563773292300,10.621292236328125,-1.606191334056854,9.516517883878945,2.6551947755545378
1740246563783274500,10.6312744140625,-1.7374619448684154,9.853659588456154,2.403119126105308
1740246563793257200,10.64125732421875,-1.8403299064077436,10.216485184866189,2.2209078709989787
1740246563803239400,10.651239501953125,-1.921548053935915,10.637670615786313,2.051775293174386
1740246563813221000,10.66122119140625,-1.989820210651308,11.091655908024311,1.8939210652112959
1740246563823203300,10.671203369140626,-2.0356556407615543,11.536643070292472,1.7163748793065547
1740246563833185300,10.681185302734375,-2.093917713985592,11.899799506092071,1.3778361674129962
1740246563843167200,10.691167236328125,-2.160746101633459,12.139718853801488,0.8899129497379064
1740246563853149400,10.7011494140625,-2.106837985835224,12.399162401670218,0.19013854097425936
1740246563863131400,10.71113134765625,-2.0091738765493035,12.573750906813144,-0.7221107437342404
1740246563873113300,10.72111328125,-1.9051522149302065,12.521433859598636,-1.5634814886212347
1740246563883095300,10.73109521484375,-1.7113373235307632,12.585951047694682,-2.097352218478918
1740246563893077200,10.7410771484375,-1.4475358727134764,13.02024145938158,-2.31947053655982
1740246563903060200,10.751060302734375,-1.2380734764575958,13.517454483449459,-2.458009238678217
1740246563913042400,10.76104248046875,-1.1473299602150917,13.714165973073243,-2.769388140967488
1740246563923024400,10.7710244140625,-1.1635293998658656,13.552777141243219,-3.2202135078698393
1740246563933006300,10.78100634765625,-1.331258979024738,13.159121522283554,-3.658981357231736
1740246563942988300,10.79098828125,-1.5861748203359542,12.54345396822691,-4.185340980806947
1740246563952970200,10.80097021484375,-1.8505752599596976,11.735070716184376,-4.726491930800676
1740246563962952400,10.810952392578125,-2.0203040501117706,10.880207452517748,-5.123033918851614
1740246563972934100,10.82093408203125,-2.000489780964702,10.270136111032961,-5.200515217939019
1740246563982916400,10.830916259765624,-1.7475683283410965,10.034325952208041,-4.987804195150733
1740246563992898300,10.840898193359376,-1.351286014139652,10.025148958539962,-4.545118880084157
1740246564002880300,10.85088037109375,-0.9492354918003082,9.995040236002206,-3.8814340218335386
1740246564012863500,10.860863525390625,-0.5433423225581646,9.898976401519775,-3.2470009770303965
1740246564022845200,10.87084521484375,-0.21920981022305785,9.837414556097984,-2.782894688272476
1740246564032827400,10.880827392578125,0.06856573283448815,10.00614965903759,-2.2938275612592696
1740246564042809300,10.890809326171874,0.35728432889580725,10.254839173179864,-1.8584277270257472
1740246564052791300,10.900791259765626,0.7286918756902218,10.526215150904655,-1.5091542706280945
1740246564062773200,10.910773193359375,1.0676888527452946,10.579486137843132,-1.0051520248115062
1740246564072755500,10.92075537109375,1.2303870136082171,10.322402889364957,-0.2517237672716379
1740246564082737200,10.930737060546875,1.3119208029568195,9.95247418295145,0.6361363415896892
1740246564092719400,10.94071923828125,1.2701321640193461,9.585210896354914,1.49433605620265
1740246564102701300,10.950701416015624,1.2653051822543144,9.209676040497422,2.1733289582222697
1740246564112683300,10.960683349609376,1.359298640203476,8.863369617211818,2.823375167220831
1740246564122665500,10.97066552734375,1.3441443256914616,8.46697668224275,3.3686195240080354
1740246564132648200,10.980648193359375,1.1734417220711708,8.02825501011014,3.7103684301197526
1740246564142630400,10.99063037109375,0.7687246108710766,7.4838400898844,3.957143635073304
1740246564152612000,11.000612060546874,0.1505552848602645,6.7278849442154165,3.9642356391608713
1740246564162594300,11.01059423828125,-0.4063198702216148,5.963090658530593,3.9096202518761154
1740246564172576300,11.020576171875,-0.9196563460946082,5.268453028133512,4.0425218248903745
1740246564182558200,11.03055810546875,-1.613116749405861,4.535060719667375,4.544704454064369
1740246564192540400,11.04054052734375,-2.6810475942134855,3.664059683409333,5.928259583646058
1740246564202522400,11.0505224609375,-3.942766150152683,2.496922614440322,7.684885809320211
1740246564212504300,11.06050439453125,-5.25588522298336,1.2781924286171793,9.397436161902545
1740246564222486300,11.070486328125,-6.181578511154651,-0.013515315133333206,9.863478387159109
1740246564232468500,11.080468505859375,-6.468533166283368,-1.0400536807142198,8.254520510998368
1740246564242451200,11.090451171875,-6.051452248072624,-2.114791429057717,5.483686262875795
1740246564252433400,11.100433349609375,-5.0692719335258,-3.6186046309188007,2.717815774640441
1740246564262415400,11.110415283203125,-3.8621863005280495,-4.981465639778971,1.3302367963701487
1740246564272397300,11.120397216796874,-2.8640649050056934,-5.729013022586703,1.5097300246894358
1740246564282379300,11.130379150390626,-2.0348609832525253,-5.837948613601923,2.8289503370046614
1740246564292361200,11.140361328125,-1.3785557138592004,-5.5829141143470995,4.211131255623698
1740246564302343400,11.150343505859375,-0.6908066739320755,-5.156229501488805,5.15095945213139
1740246564312325000,11.1603251953125,0.26883739915788174,-4.859431497737765,5.672251270923018
1740246564322307300,11.170307373046874,0.8599737385481595,-4.879726390008628,5.805266241183877
1740246564332289300,11.180289306640624,0.8289934938728809,-5.1773699046731,5.579877523130178
1740246564342271200,11.190271240234376,0.7094564293444157,-5.457779083681106,5.236294387328624
1740246564352254500,11.20025439453125,0.9173298759084194,-5.6223208265841,5.124154447314143
1740246564362236200,11.210236083984375,1.16255149474442,-5.603941120284795,5.2328673354893915
1740246564372218400,11.22021826171875,1.054321421650052,-5.738547743651271,5.5013283025503155
1740246564382200300,11.230200439453125,0.6326818902868777,-6.062213296061754,5.9321712041318415
1740246564392182300,11.240182373046874,0.12996844217181205,-6.398231549566984,6.3952954961150885
1740246564402164200,11.250164306640626,-0.20707155559659002,-6.658416271191835,6.961945629024505
1740246564412146400,11.260146484375,-0.4623550611764192,-6.800861333099007,7.828090749683976
1740246564422128000,11.270128173828125,-0.6233136848956347,-6.883026990610361,9.182178377240895
1740246564432110300,11.2801103515625,-0.528876574832201,-6.999407052412629,10.625981347036362
1740246564442092300,11.29009228515625,-0.314658727677539,-7.249797525253891,11.52321777153015
1740246564452074200,11.30007421875,-0.08637830677032471,-7.46863901362121,11.835488069701194
1740246564462057500,11.310057373046876,0.006164367848634719,-7.811357641547918,11.500804864192009
1740246564472039200,11.3200390625,-0.23474749802947042,-8.681839914628863,10.472462517929076
1740246564482021400,11.330021484375,-0.6263356630653143,-9.802591664519905,9.416147292113303
1740246564492003300,11.34000341796875,-0.9799468564063311,-10.755711304277181,8.692852307030558
1740246564501985300,11.3499853515625,-1.1766904216688125,-11.191700336575508,8.470653324928879
1740246564511967200,11.35996728515625,-0.862177386072278,-10.683788223838805,8.79255186766684
1740246564521949200,11.36994921875,-0.16229827482514084,-9.290145415484904,9.41749578411281
1740246564531931400,11.379931396484375,0.4571201561976224,-7.564001421836018,9.618736149337888
1740246564541913300,11.389913330078125,0.8095376097094267,-6.067441259843111,9.358148107609152
1740246564551895300,11.399895263671874,0.9076438367396592,-5.029932441306114,8.587043908125162
1740246564561877800,11.409877685546874,0.8387351356863975,-4.515362624245882,7.450499545818567
1740246564571860700,11.41986083984375,0.6947673942565917,-4.294813162916898,6.4520280216842885
1740246564581843000,11.429843017578126,0.4760949057806283,-4.1682635892778634,6.020825054618716
1740246564591825000,11.439824951171875,0.23127368443906307,-3.9796863062709567,6.268111716225743
1740246564601806800,11.449806884765625,0.23782157171256837,-3.689461251169443,6.5362307379811995
1740246564611788800,11.459788818359375,0.39377018525004387,-3.29882234968245,6.757445969742536
1740246564621770800,11.469770751953124,0.553420064458251,-2.8574831885278225,6.838821353659033
1740246564631752700,11.479752685546876,0.6639332069884986,-2.4248183322161436,6.6349249209672205
1740246564641735000,11.48973486328125,0.7859270900845527,-2.047873901821673,6.118809043508768
1740246564651716600,11.499716552734375,0.7926887662392109,-1.7530428142294288,5.272368155750632
1740246564661698800,11.50969873046875,0.6215180336505174,-1.440472656328976,4.440506412965059
1740246564671680800,11.5196806640625,0.5646270295839756,-0.982298680229485,3.8837551582574843
1740246564681663700,11.529663818359374,-0.16550152784585953,-0.6870549201831221,3.5820676288992166
1740246564691646000,11.53964599609375,-0.2592968328744173,-0.5839645480647683,3.625214112186432
1740246564701627600,11.549627685546875,-0.3369067267775535,-0.06310965938568115,3.596493629136681
1740246564711609900,11.55960986328125,-1.129784951174259,0.6243013807587325,3.7075107026010747
1740246564721591800,11.569591796875,-1.4919126284480093,1.3056108891576528,3.541288459265232
1740246564731573800,11.57957373046875,-1.7479904992759228,1.8298682797566055,3.145888626986742
1740246564741555700,11.5895556640625,-2.181745488911867,2.3536866944164037,2.762877151638269
1740246564751538000,11.599537841796876,-2.491198391574621,2.904696190601587,2.478262922155857
1740246564761519900,11.609519775390625,-2.63467513461709,3.447266359743476,2.4223750307172534
1740246564771501800,11.619501708984375,-2.6200457207620143,4.055052805161476,2.5829817722588775
1740246564781484800,11.62948486328125,-2.6595032864034174,4.663481055614352,2.7637136024624107
1740246564791466800,11.639466796875,-2.7249089477717874,5.223948700496554,2.8926544551521536
1740246564801448700,11.64944873046875,-2.7831273279845714,5.881823411163688,3.0649627404034137
1740246564811430700,11.6594306640625,-3.013674451714754,6.6121408422291275,3.3761031577616927
1740246564821412900,11.669412841796875,-3.2461727095127104,7.260064067724347,3.4993881766468284
1740246564831394800,11.679394775390625,-3.2571734114766118,7.889653179627657,3.454013495916128
1740246564841376800,11.689376708984375,-3.1581273463129995,8.568682906526327,3.306120105475187
1740246564851359000,11.69935888671875,-3.0192367620170115,9.278766527858377,3.227432353207469
1740246564861340700,11.709340576171876,-2.907555671685934,10.090858571290969,3.2053713280469176
1740246564871323000,11.719322998046875,-2.750401116424799,10.894307289540768,2.9805449200510976
1740246564881304800,11.729304931640625,-2.532321844601631,11.660402720952034,2.5497382588267326
1740246564891287800,11.739287841796875,-2.34584182613492,12.40959962453246,1.8412264168560504
1740246564901270000,11.74927001953125,-2.1899825713813303,12.969949195992946,0.8860930991888045
1740246564911251700,11.759251708984374,-1.9994940479256211,13.244634736657142,-0.2386222936362028
1740246564921234000,11.76923388671875,-1.7728408628940582,13.353902920627593,-1.3346902686476707
1740246564931216000,11.7792158203125,-1.4503414316534995,13.511361427271366,-2.025288268265128
1740246564941197800,11.78919775390625,-1.1816941482402383,13.828015639615058,-2.3655191710293293
1740246564951179800,11.7991796875,-1.1079998934108763,14.054894303965568,-2.4132968212485313
1740246564961161700,11.80916162109375,-1.1568870392419397,14.19208042243123,-2.2328847245186565
1740246564971143700,11.819143798828126,-1.314004185102135,14.171368473792075,-2.159119815605879
1740246564981126000,11.8291259765625,-1.576439169871807,13.860685737073421,-2.4031243868023155
1740246564991108900,11.83910888671875,-1.9032243156075477,13.258511286318301,-2.866553799211979
1740246565001090800,11.8490908203125,-2.1318109529197216,12.586540245759487,-3.381691771548986
1740246565011072800,11.85907275390625,-2.0525673203349113,12.513301991069316,-3.44451676877439
1740246565021054700,11.8690546875,-2.15285140286088,11.709091056275367,-3.7686943623602387
1740246565031037000,11.879036865234376,-2.0072692119717597,10.986886204516887,-3.863895442533493
1740246565041018600,11.8890185546875,-1.776990968310833,10.424477946960925,-3.868717748123407
1740246565051001900,11.899001953125,-1.5460755957901477,9.988606988084316,-3.598803075122833
1740246565060983800,11.90898388671875,-1.214111586111784,9.777939453822373,-3.03289177788198
1740246565070965800,11.9189658203125,-0.6200549753606319,9.655207392644881,-2.3464678490787745
1740246565080948000,11.928947998046874,0.13971008398532866,9.526503271320461,-1.5559019932776688
1740246565090929700,11.9389296875,0.7693184851109981,9.477709137535095,-0.6675619919449091
1740246565100911900,11.948911865234376,1.1616261965930461,9.409207263717056,0.17580021902024745
1740246565110893800,11.958893798828125,1.388304954457283,9.213405874675512,0.7387982591629028
1740246565120875800,11.968875732421875,1.4538240130722522,8.78419612725377,1.106071482631564
1740246565130857700,11.978857666015625,1.3725965131938456,8.280656238251924,1.2979466381400824
1740246565140840000,11.98883984375,1.1870739415824412,7.817306905341148,1.5522773730397224
1740246565150823000,11.998822998046874,1.1192355001091956,7.429518132588267,1.7835756073981524
1740246565160804900,12.008804931640626,1.2354781992673873,7.1767469020903105,1.8357517848372458
1740246565170786800,12.018786865234375,1.276124682432413,6.932977893215417,1.7790204283118247
1740246565180768800,12.028768798828125,1.2682383130967616,6.542450635409355,1.4697937356203794
1740246565190750700,12.038750732421875,1.2102660165995358,6.084355569764972,1.016776996153593
1740246565200732700,12.048732666015624,0.9647966335475444,5.721431773677468,0.8032984961241483
1740246565210715000,12.05871484375,0.5238269267598167,5.29033226698637,0.8636042040050029
1740246565220696600,12.068696533203125,-0.04649930084645748,4.6442368414402,1.166460192620754
1740246565230678800,12.0786787109375,-0.5665887581110001,3.8946389558434484,1.603545203462243
1740246565240661000,12.088660888671875,-0.9852391175955534,3.1407489260107275,2.2744296178281305
1740246565250642700,12.098642578125,-1.4137363328337669,2.2097693679995833,3.029211628064513
1740246565260626000,12.1086259765625,-1.731345069423318,1.1645847541376948,3.8089012850642203
1740246565270607600,12.118607666015626,-2.0504741474479435,0.2280348486483097,4.498324395683407
1740246565280589800,12.12858984375,-2.339945753833651,-0.5801756771758199,4.9328474470824
1740246565290571800,12.13857177734375,-2.4102859489947557,-0.8437927113369107,5.41579053825736
1740246565300553700,12.1485537109375,-2.399689736178517,-1.2806573574259876,5.533150843268633
1740246565310536000,12.158535888671874,-2.55481541596055,-2.044238175667822,5.310747863027453
1740246565320518000,12.168517822265626,-2.8048247805297373,-2.7730788121789693,4.93767735145688
1740246565330499800,12.178499755859375,-2.983621843278408,-3.378419033488631,4.852433017152547
1740246565340481800,12.188481689453125,-3.064181234636903,-4.0892169405698775,5.1901884697139264
1740246565350463700,12.198463623046875,-3.015782237648964,-4.671658516851068,5.865716910493374
1740246565360446700,12.20844677734375,-2.8251719875097274,-5.081254047742486,6.749295981034636
1740246565370429000,12.218428955078124,-2.4943232455968856,-5.523773358592391,7.635244118794798
1740246565380409600,12.22840966796875,-1.7967103987812996,-6.122064245912433,8.57654589498639
1740246565390391800,12.238391845703125,-1.6496224795043468,-6.54665568588376,8.881730034288763
1740246565400373800,12.248373779296875,-1.5873381650269032,-6.91027740110755,9.041713090974092
1740246565410355700,12.258355712890625,-1.4105091874808071,-7.062897235548496,9.133757752943039
1740246565420338000,12.268337890625,-1.2110872698545456,-7.0947688761055465,9.480431840497255
1740246565430319900,12.27831982421875,-0.9972153865933417,-7.177336684677004,9.97047278097868
1740246565440302800,12.288302734375,-0.7827963908433914,-7.370142399033903,10.257268446153402
1740246565450284800,12.298284912109375,-0.6474579460710287,-7.573496395412087,10.435708950549364
1740246565460266800,12.308266845703125,-0.49497956592738623,-7.668325719663501,10.678455046117305
1740246565470248700,12.318248779296875,-0.29599662424027917,-7.615776617258787,11.14014784399271
1740246565480231000,12.32823095703125,-0.11964874474201351,-7.4864821288257835,11.576696848261356
1740246565490212900,12.338212890625,-0.015390497888065874,-7.367029235449433,11.802602868187426
1740246565500194800,12.34819482421875,0.11300682250950485,-7.4019661087960005,11.803816335630415
1740246565510177000,12.358177001953125,0.21261402868721632,-7.5750143987596035,11.281799709695576
1740246565520158700,12.36815869140625,0.19322836021576076,-8.056421950930357,10.26120929273367
1740246565530141000,12.378140869140625,0.11688512524757534,-8.721413215604423,9.166661659157276
1740246565540123600,12.38812353515625,0.11369480477366596,-9.240742209890485,8.263154483830927
1740246565550105900,12.39810595703125,0.11414897828195243,-9.396585098031162,7.8231030243992805
1740246565560087600,12.408087646484375,0.22583299122247844,-8.927174273124336,7.484137611526251
1740246565570069500,12.418069580078125,0.5159183090597391,-7.8946543489158145,7.109642620110511
1740246565580051700,12.4280517578125,0.6355098071891814,-6.735531659576297,6.533753534212708
1740246565590033400,12.438033447265624,0.5749907488185912,-5.8030421353936195,5.966963116049766
1740246565600015600,12.448015625,0.32243747192025185,-5.005906253552436,5.493265992125869
1740246565609997600,12.45799755859375,0.04473349675033241,-4.3107928223371506,5.198512645944953
1740246565619979500,12.4679794921875,-0.16540679876711217,-3.639273617199063,5.12156793795228
1740246565629961500,12.47796142578125,-0.2961655145337805,-3.1070027237534523,5.257307949262857
1740246565639944400,12.4879443359375,-0.29035602453742176,-2.80685307148695,5.44865294341743
1740246565649926700,12.4979267578125,-0.05559095431864261,-2.6968051353156564,5.694256181982159
1740246565659908600,12.50790869140625,0.25003336649928243,-2.541239895072579,5.971099192941188
1740246565669890600,12.517890625,0.5532663352012634,-2.290428858731687,6.06052461232245
1740246565679872500,12.52787255859375,0.6422048478484154,-1.927610568845272,5.987474573680758
1740246565689854700,12.537854736328125,0.6185550921916961,-1.4881763645291328,5.684802709460258
1740246565699836400,12.54783642578125,0.7655301987439393,-1.0125541177615522,5.184167894250154
1740246565709818600,12.557818603515624,0.7721879030674695,-0.7121493216902017,4.916515905484557
1740246565719800600,12.567800537109376,0.611891542649269,-0.34692689327150583,4.6449867830246685
1740246565729782500,12.577782470703125,0.23565876765549182,-0.2369710192978382,4.6441742975980045
1740246565739765800,12.587765869140625,0.44482466518282887,0.2168757412523031,4.490649623271823
1740246565749747500,12.59774755859375,-0.16393734726905823,0.8425159693993628,4.337902363058925
1740246565759729700,12.607729736328125,-0.8185363972663879,1.2863302884958683,4.18462611053586
1740246565769711600,12.617711669921874,-1.0646119295179843,1.7112584130756556,4.216254005464911
1740246565779693600,12.627693603515626,-1.4461492406606673,2.2451092691890895,4.222570933526754
1740246565789675500,12.637675537109375,-1.685095943945646,2.9501401371762155,4.182024403604865
1740246565799657500,12.647657470703125,-1.7585516407787798,3.6622652012079953,3.962910528036952
1740246565809639400,12.657639404296875,-1.8278537250638007,4.3539340449273585,3.690871117967367
1740246565819621600,12.66762158203125,-1.9508043974280356,4.952313779574633,3.4561621983826156
1740246565829604600,12.6776044921875,-2.0992893240213393,5.449332742375135,3.2755706534326077
1740246565839586600,12.687586669921876,-2.2032278374016285,5.96796323300302,3.1470337053686377
1740246565849568500,12.697568603515625,-2.2799311378538607,6.594588818925619,3.086010204607248
1740246565859550500,12.707550537109375,-2.391517535638809,7.241398530220985,3.078942165917158
1740246565869532700,12.71753271484375,-2.478501407086849,7.901188134598732,3.18934666044116
1740246565879514400,12.727514404296874,-2.4838474442899225,8.59730460537672,3.254480519130826
1740246565889496600,12.73749658203125,-2.4768764362335203,9.194321234977245,3.205643130725622
1740246565899478500,12.747478515625,-2.336561956614256,9.764157596707344,3.1022406239181755
