time,seconds_elapsed,z,y,x
1739920574483894800,0.045894775390625,-1.1868775422275066,-0.17167393287047744,-0.8544532215610146
1739920574493877000,0.055876953125,-0.14255144489109514,-0.03512362809032202,-0.8949248596157878
1739920574503858700,0.065858642578125,0.29483927089869977,-0.07272767481952905,-1.2479833144448698
1739920574513841000,0.0758408203125,0.5658925925403833,-0.15748378721550105,-1.3941770613610744
1739920574523822800,0.08582275390625,1.2629144877254963,-0.06842062527537346,-1.2711729052439331
1739920574533805800,0.095805908203125,1.9842776279628276,-0.4084986755654216,-1.6635465215690433
1739920574543788000,0.1057880859375,1.065013496056199,-0.6276002761736512,-1.1783765481248498
1739920574553769700,0.115769775390625,-0.2115688670158386,0.21954320689588783,-0.5243623122781514
1739920574563752000,0.125751953125,-0.35606384719014167,1.214394786967337,-0.08240706505179404
1739920574573734000,0.13573388671875,0.3279857536971569,1.5679957511752842,0.04617255311012268
1739920574583715800,0.1457158203125,1.5560627367973328,1.6958429634094236,0.12130889650657772
1739920574593699000,0.155698974609375,2.8577386245936154,1.3599001132279633,0.7689024516560137
1739920574603680300,0.16568017578125,4.03348511647582,0.4303077717915177,0.9650677055738865
1739920574613662200,0.175662109375,4.900151630660892,-0.35345746408402917,-0.06345481956154107
1739920574623644400,0.18564453125,4.822503742834925,-0.7134162728860974,-1.317613461640477
1739920574633626000,0.195626220703125,4.402993551650643,-0.6490984067544341,-1.6041681576661764
1739920574643608300,0.2056083984375,4.617476844808459,-0.24635581049770117,-1.3884563456267118
1739920574653591300,0.21559130859375,5.210706357085704,0.18543372428417204,-1.0261461513929069
1739920574663573200,0.2255732421875,5.532986008095741,0.27827187471836806,-1.0730819439604877
1739920574673555500,0.235555419921875,5.221349331653117,-0.08258037579208612,-1.2860929726086556
1739920574683537200,0.245537109375,4.445700474476814,-0.4413119808867573,-1.2025946051888168
1739920574693519400,0.255519287109375,2.9439626175850626,-1.0519058849409222,-0.7093050381749868
1739920574703501300,0.265501220703125,1.5976988155215979,-0.8408741935417056,0.16831906948462128
1739920574713484300,0.275484375,2.3681407517045736,0.47296910191029307,1.062205599028617
1739920574723466500,0.285466552734375,1.830824265307188,1.5345840415693819,0.8802646852962672
1739920574733448200,0.2954482421875,1.1143494816333055,1.980089820884168,0.48701282483190295
1739920574743430400,0.305430419921875,-0.22199439944028854,1.9785145343914627,0.8996300416320562
1739920574753412400,0.315412353515625,-0.7686112136244774,1.9390296423517166,0.7826195729717612
1739920574763395300,0.325395263671875,0.1329255384117365,1.8333531992629168,-0.1475945536248386
1739920574773377500,0.33537744140625,0.8626017489641904,0.7147016365215182,-1.131921524811536
1739920574783359200,0.345359130859375,1.0908645611494778,-0.45502632572352886,-1.61651705936864
1739920574793341400,0.355341552734375,1.094917051410675,-0.8103319018922746,-1.3797414165124295
1739920574803323400,0.365323486328125,1.3792384354263543,-0.7322491297803819,-0.931966815482825
1739920574813305300,0.375305419921875,2.0831693793475625,-0.6649611617967486,-0.46475890744775533
1739920574823288300,0.385288330078125,2.2645248944073915,-0.7730304913714527,0.31240313077047466
1739920574833270300,0.395270263671875,1.7894816165715455,-0.9578190496198833,0.9661408877633512
1739920574843252500,0.40525244140625,2.3080478097915647,-0.4059752945676446,1.5719617321968078
1739920574853234200,0.415234130859375,3.7718344139516353,0.9759338213726878,2.0508862353801725
1739920574863216400,0.42521630859375,4.395997993674874,1.4169161319136618,0.9140715316995978
1739920574873198300,0.4351982421875,2.559806063854694,1.6971150291718542,-0.007955635179579257
1739920574883181300,0.445181396484375,0.1856540890365839,1.371033940052241,-1.1982079145371913
1739920574893163500,0.45516357421875,1.8067367027550936,1.7550950705841182,0.011512158617377281
1739920574903145200,0.465145263671875,1.5962690749794244,3.043625937864184,2.8287352329492568
1739920574913127400,0.47512744140625,1.250171326008439,3.4935882581964135,4.752253856305778
1739920574923109400,0.485109375,0.4876391400367021,3.284913359056413,4.296438133770227
1739920574933092400,0.49509228515625,0.792694684523344,4.147544918636977,4.069092436429858
1739920574943074300,0.50507421875,1.7849346207916736,5.426740971338749,4.656211649133264
1739920574953056300,0.51505615234375,2.5697867751210928,5.759468366605043,4.912068278425932
1739920574963038500,0.52503857421875,2.7542046003609895,5.377005172789096,4.889785134947299
1739920574973020400,0.5350205078125,2.150954629328847,4.699449610096216,4.065913221871853
1739920574983002400,0.54500244140625,1.1012766495704651,4.281076898509264,2.909153754532337
1739920574992985300,0.5549853515625,-0.1898801822990179,4.021980556643009,2.24477740688622
1739920575002967300,0.56496728515625,-1.5306471405118702,3.870322260710597,2.572251703929901
1739920575012949200,0.57494921875,-1.6801602411091328,4.158407965695858,3.6983699492901563
1739920575022931500,0.584931396484375,-0.9054711688756942,4.530962928959727,4.43343720523119
1739920575032913400,0.594913330078125,-0.09047814330458641,3.7479651703253385,3.5349463967621326
1739920575042895400,0.604895263671875,0.9035071753263473,2.688161810132861,1.6290449708998203
1739920575052878300,0.61487841796875,1.6814485273540019,2.5554098747223613,0.5475877050429582
1739920575062860300,0.6248603515625,1.6504618529379367,2.510272509878874,-0.0732896926164627
1739920575072842200,0.63484228515625,0.6211275730282068,2.0902003008976577,-1.0520447088897227
1739920575082824200,0.64482421875,-1.2157517545342444,1.3512442208245397,-2.2538398342639208
1739920575092806400,0.654806396484375,-1.4740788655936716,1.7834673247180879,-1.124078263965249
1739920575102789400,0.664789306640625,-0.221900291416049,2.825021473123133,0.28552023841142654
1739920575112771300,0.674771240234375,1.0308347476005553,2.729885274879634,0.6619628567636012
1739920575122753300,0.684753173828125,2.2181413288950917,2.2761358372241256,0.8078408157289028
1739920575132735200,0.6947353515625,2.799734179392457,2.1894836819484826,1.0134119036346674
1739920575142717400,0.704717529296875,2.839644749498367,2.5791350337028502,1.0234913991004229
1739920575152699100,0.71469921875,2.9224077883809803,2.9676246482014657,1.0838017831563949
1739920575162682400,0.724682373046875,3.1829315327018497,3.002767857775092,1.0595254200339317
1739920575172664300,0.734664306640625,3.5145500899434086,1.943854724420607,0.23164836297035216
1739920575182646300,0.744646240234375,4.644563004654645,1.2385241428345442,-1.2775129219204187
1739920575192628500,0.75462841796875,5.262268786540627,1.9757536913760005,-3.0293425609678026
1739920575202610200,0.764610107421875,4.644787461060285,2.7414491636842486,-4.387539961931109
1739920575212593400,0.774593505859375,3.4006869793981314,3.6326971614181995,-4.792458733183145
1739920575222575400,0.784575439453125,1.99199448595047,4.1658325627386565,-4.69910649574697
1739920575232557300,0.794557373046875,1.5338754549086093,5.047651053348184,-3.606947218611836
1739920575242539500,0.80453955078125,1.5235802708655595,4.773087385497987,-2.5873984196573496
1739920575252521200,0.814521240234375,1.1448165160894392,4.295315559481084,-2.1743670690983534
1739920575262503400,0.82450341796875,0.26681524568051096,3.9722739841878414,-1.972676622018218
1739920575272486400,0.834486328125,-0.42240562036484475,3.7813457541406152,-2.05053669129014
1739920575282468400,0.84446826171875,-1.039073291374743,3.8379982002109285,-2.015728412759304
1739920575292450300,0.8544501953125,-2.1065873720750212,3.9810090793073174,-1.3099398582726716
1739920575302432300,0.864432373046875,-2.1359569666832683,3.678955931507051,-0.5915735617637634
1739920575312414500,0.87441455078125,-1.355062902329862,3.362647171600163,0.4011334074944258
1739920575322397200,0.884397216796875,-0.9373965854465961,3.5926191257908937,1.342808108651638
1739920575332379400,0.89437939453125,-1.007634489277005,4.122153872270882,1.7997183484256267
1739920575342361300,0.904361328125,-1.7902482170298695,4.627966674640774,2.160355494880676
1739920575352343300,0.91434326171875,-2.79592368119359,4.956837394478917,2.607355166015029
1739920575362325500,0.924325439453125,-3.6829140214830636,5.048531927835941,3.143586779785156
1739920575372308200,0.93430810546875,-4.533001156789064,5.403542466580867,4.125704550489783
1739920575382290400,0.94429052734375,-5.382086421576142,5.640933172595501,4.636202588066459
1739920575392272100,0.954272216796875,-6.150156952452659,5.566366884171963,4.678325573524832
1739920575402254300,0.96425439453125,-6.6151511299610135,5.602115658423304,5.046684254142642
1739920575412236500,0.974236572265625,-6.8793322277456515,5.582251266524195,5.556424166828394
1739920575422218200,0.98421826171875,-7.350126031443477,5.781895886990427,6.184815593379736
1739920575432201500,0.994201416015625,-8.220810549098253,5.791992918112873,6.58654988937676
1739920575442183200,1.00418310546875,-9.406056106209755,5.25913107303679,6.861930426567793
1739920575452165400,1.014165283203125,-10.523343979382515,4.569923066473007,7.043600998926162
1739920575462147300,1.024147216796875,-11.103133579850196,3.3394302544027563,6.7126891286492345
1739920575472129300,1.03412939453125,-11.285310348165035,2.1409172194391486,6.5435056974202395
1739920575482112500,1.044112548828125,-11.381280659145116,1.1206775156110524,6.4965329338431355
1739920575492094200,1.05409423828125,-11.511112323194741,-0.12117664842903614,6.539620380419493
1739920575502076400,1.064076416015625,-11.629275761282443,-1.4965484715551136,6.392109851816296
1739920575512058400,1.074058349609375,-11.683245836400985,-2.6795149778187275,6.269032922723889
1739920575522040300,1.084040283203125,-11.664473331391811,-3.520541439312696,6.188047414907813
1739920575532022300,1.094022216796875,-11.596720230114459,-4.457303818508983,5.918716679275035
1739920575542005200,1.104005126953125,-11.445172408819198,-5.104144509464502,5.79045094936788
1739920575551987500,1.113987548828125,-11.291978573882579,-5.525033587786555,5.351076950806379
1739920575561969400,1.123969482421875,-11.460506756073237,-5.771597780337929,5.2267409615635865
1739920575571951400,1.133951416015625,-10.680372277915477,-6.3517164666295045,4.234094198060036
1739920575581933300,1.143933349609375,-9.875844532257318,-6.300068696978688,3.8064544764339923
1739920575591916300,1.153916259765625,-9.068506405353546,-5.894828438687324,3.417140101549029
1739920575601898500,1.1638984375,-8.238544943231343,-5.502392132389545,2.8931922152906653
1739920575611880400,1.17388037109375,-7.53389679095149,-5.209852955126762,2.343851529100537
1739920575621862700,1.183862548828125,-6.964724446088075,-5.2793397483289235,2.105656520965695
1739920575631844600,1.1938447265625,-6.425128908842802,-5.036306067991257,2.4947505310982465
1739920575641827600,1.20382763671875,-5.717540611457824,-5.3896922204047435,1.754534221830964
1739920575651809800,1.213809814453125,-5.305597640657425,-5.702257117608189,0.5832686747550964
1739920575661791500,1.22379150390625,-5.9722179678380485,-5.103202844700217,0.6896762085974216
1739920575671773700,1.233773681640625,-6.633187137389183,-4.85645745036304,0.7634335187256336
1739920575681755600,1.243755615234375,-7.255494860112667,-4.35855585950911,1.2437176198244093
1739920575691737600,1.253737548828125,-8.08478119945228,-3.448091704651713,2.120743030938506
1739920575701720800,1.263720947265625,-8.869533400538563,-2.716688816437125,2.2645605502426625
1739920575711702500,1.27370263671875,-8.980541121652722,-2.21575764862895,1.8383388787209987
1739920575721684700,1.283684814453125,-8.292258997762202,-2.0422978552550077,1.3066466619461774
1739920575731666700,1.293666748046875,-7.328683430442213,-1.6565385425031185,1.19942255102396
1739920575741648600,1.303648681640625,-6.258981484308839,-0.7374038821950555,1.4503086984276772
1739920575751631600,1.313631591796875,-5.259930698981881,-0.16676234156191347,1.4553507842481135
1739920575761613600,1.323613525390625,-4.552238356700539,0.02512362760156393,1.3297837919056414
1739920575771595800,1.333595703125,-3.827891232216358,0.006955225965380668,1.5426239940315485
1739920575781577500,1.343577392578125,-3.1855940299093723,0.4903881464838981,1.5122013832390306
1739920575791559700,1.3535595703125,-2.638175543953478,0.8576385735988616,1.6706529925733804
1739920575801542400,1.36354248046875,-2.2245058954909442,0.7923305273860692,2.148410205543041
1739920575811524600,1.373524658203125,-2.039779150432348,1.2057882866635918,2.3612825563728808
1739920575821506800,1.3835068359375,-1.8538076660096645,1.6560864148214458,2.74465526624918
1739920575831488500,1.393488525390625,-1.6929700383216142,2.1078265584811566,3.2893273761063813
1739920575841470700,1.403470703125,-1.4055869286477565,2.503496147611737,4.349387633669376
1739920575851453400,1.413453369140625,-0.7188701543778181,2.804210155762732,5.245583609199524
1739920575861435600,1.423435546875,-0.042945407757163045,3.04380187895298,5.557580935648083
1739920575871417600,1.43341748046875,0.3643646425455808,3.224821293926239,5.722399741926789
1739920575881399600,1.443399658203125,0.7431225521028041,3.5584497296854853,5.848533720502257
1739920575891381800,1.4533818359375,1.1777929030179977,4.598008174228668,5.316613540190458
1739920575901363700,1.46336376953125,1.413327752032876,5.48807777583301,4.6959313728421925
1739920575911346700,1.4733466796875,1.3459089972764253,5.8866883868515485,4.375459063515067
1739920575921328600,1.48332861328125,1.0310136112987995,6.216043090814352,4.101551521486043
1739920575931310600,1.493310546875,0.6526417784497142,6.598514467936754,3.7538141886144873
1739920575941292500,1.50329248046875,0.33731618436127897,6.73634472952485,3.4244881262242792
1739920575951274800,1.513274658203125,0.09481909511834383,6.831763251841068,3.1617139726281165
1739920575961257700,1.5232578125,-0.0029889526829123495,7.220494858402013,3.114673404511809
1739920575971239700,1.53323974609375,0.15310820247977971,7.973705089277028,3.2099931426286696
1739920575981221600,1.5432216796875,0.5746668506264686,8.693235753390192,3.2253900337249037
1739920575991203600,1.55320361328125,1.0585969070121646,9.1328020596534,3.337565629574656
1739920576001185500,1.563185546875,1.4262120757862924,9.249956612959503,3.363866192001104
1739920576011168800,1.573168701171875,1.4294874441951513,9.383325218963623,3.247193284732103
1739920576021150500,1.583150390625,1.0345227884635328,9.443955921015142,2.532069331145286
1739920576031132700,1.593132568359375,0.8460898823633789,8.773613942962884,1.0847165599137545
1739920576041114600,1.603114501953125,0.6960419442370533,7.81993257766962,-0.49801206549108024
1739920576051096600,1.6130966796875,0.5425435733959079,7.187223872441053,-1.7805775946259497
1739920576061078500,1.62307861328125,0.6203142108187079,6.85721684204936,-2.83542508597672
1739920576071061500,1.6330615234375,0.8543462540552019,6.7208619137108325,-3.3323908572852607
1739920576081043700,1.643043701171875,1.2430910123586654,6.68578475511074,-3.091866529420018
1739920576091025700,1.653025634765625,1.5147006527088582,6.7338242711365215,-2.7817081088364124
1739920576101007600,1.663007568359375,1.5183774415254592,7.72474143436849,-3.3099481393307446
1739920576110990600,1.672990478515625,1.7856519752807913,7.865161712449789,-3.218356481826305
1739920576120972500,1.68297265625,2.2772090194135903,7.7746251169562335,-3.6996103047400712
1739920576130954800,1.692954833984375,2.5999241392314434,7.894837888789176,-4.416085672935843
1739920576140936700,1.702936767578125,2.6848879030287263,8.117728944808244,-4.457207956919074
1739920576150918700,1.712918701171875,2.2903414727091786,8.448867025056481,-4.28376862181127
1739920576160900600,1.722900634765625,1.5206430483698845,8.490623515290022,-4.273051412963867
1739920576170883600,1.732883544921875,0.7422153741300106,8.274012562453747,-4.22921753193438
1739920576180865500,1.742865478515625,0.1910217535495758,8.032825971287489,-4.107492601972818
1739920576190847700,1.75284765625,-0.33504677812457084,7.698330981826782,-4.144384116518498
1739920576200829700,1.76282958984375,-0.7379565476417541,7.310315999102592,-4.235702802300453
1739920576210811600,1.772811767578125,-1.0066729507684706,7.017480469241738,-4.447165870854258
1739920576220794600,1.782794677734375,-1.1161001246929168,6.766964324194192,-4.745889289709925
1739920576230776600,1.792776611328125,-1.2629343614697455,6.382103421586751,-4.9733624128222464
1739920576240758800,1.8027587890625,-1.3150707914203406,6.1073500763833515,-5.211081035616994
1739920576250740500,1.812740478515625,-1.1323486641824245,5.71974893515706,-4.753689734327793
1739920576260722700,1.82272265625,-0.942452699792385,5.525626877504587,-4.772171147435904
1739920576270705700,1.83270556640625,-1.710081916642189,5.711048911350965,-5.719565979805588
1739920576280687600,1.8426875,-1.743086945143342,5.235738507011533,-4.919911393141747
1739920576290669600,1.852669677734375,-1.4613117384791374,4.994286542907357,-4.459474148285389
1739920576300651500,1.862651611328125,-1.6074024634122848,5.19171056471467,-4.101138264510035
1739920576310633700,1.8726337890625,-1.6936445765823125,5.335966475436091,-3.635225218591094
1739920576320616700,1.88261669921875,-1.5934358973801135,5.194086061674356,-3.5107699868828055
1739920576330598700,1.8925986328125,-1.4165414533823728,4.757178745487332,-3.7241567169755694
1739920576340580600,1.90258056640625,-1.1631699189037084,4.3448570045024155,-3.8470793322890993
1739920576350562600,1.9125625,-0.7046995902061463,4.151240266023576,-3.67555372184813
1739920576360544800,1.922544677734375,-0.2562882987082004,4.170168546116352,-3.226092629036307
1739920576370526500,1.9325263671875,0.011085457637906073,4.287009795689583,-2.5782003832012412
1739920576380509700,1.942509765625,0.17160393637418747,4.348544753104448,-1.7575696440041064
1739920576390491600,1.95249169921875,0.19232640640735624,4.40281293438673,-0.8730570920050144
1739920576400473600,1.9624736328125,0.10940262400507926,4.329364836338162,0.013278583768010138
1739920576410455800,1.972455810546875,-0.0576654225051403,4.163558772587776,1.1088269188195465
1739920576420437500,1.9824375,-0.14860416905879972,4.137659192177653,2.378499648633599
1739920576430420700,1.992420654296875,-0.13688334525995888,4.1690760747045275,3.5031776320576666
1739920576440402400,2.00240234375,-0.0704582685828209,4.240866760934889,4.645108363577723
1739920576450384600,2.012384521484375,0.13357260414361952,4.580703111423552,5.515573685523867
1739920576460366800,2.022366943359375,0.15437573819756506,4.54885192913264,6.179755387380719
1739920576470348500,2.0323486328125,-0.06613054157681762,4.25201768502444,7.038757650548219
1739920576480331800,2.042331787109375,-0.6022481005132198,3.704718441534042,8.358605739372969
1739920576490313500,2.0523134765625,-1.1797218252539634,3.2466356508493424,9.757973939636349
1739920576500295700,2.062295654296875,-1.69137370904088,2.8647958496287464,11.365071867144108
1739920576510277600,2.072277587890625,-1.9224235215961931,2.6385049220383165,13.136816166973114
1739920576520259600,2.082259521484375,-1.9647101731836796,2.603299753144383,14.2316361877501
1739920576530242600,2.09224267578125,-2.1755822901070117,2.2390707196772097,14.33814425935745
1739920576540224500,2.102224609375,-2.542775434076786,1.3770230974644422,13.859656978547573
1739920576550206700,2.112206787109375,-3.0245722778260706,-0.0012777648508548736,13.199199850171803
1739920576560188400,2.1221884765625,-3.348217371970415,-1.5724457163214682,12.666472445130347
1739920576570170600,2.132170654296875,-3.4675299800932406,-2.9249937132209536,12.350662282395362
1739920576580153600,2.142153564453125,-3.6439351792693135,-4.219790362897515,12.152450909602642
1739920576590135600,2.152135498046875,-3.5978608258366584,-5.637026812806726,12.603984717035292
1739920576600117800,2.16211767578125,-3.2474896373301743,-7.036157112661003,13.087311839091777
1739920576610099200,2.17209912109375,-3.174486360439658,-8.466503804033994,13.085434354782103
1739920576620081400,2.182081298828125,-3.161947781383991,-9.483398873609303,12.44234921696782
1739920576630064000,2.192064208984375,-3.0889146938771006,-10.095378094542026,11.436056205427645
1739920576640046300,2.20204638671875,-2.7975340389996766,-10.40928856113553,10.510853915643692
1739920576650028300,2.2120283203125,-2.020970989587903,-10.376355428826809,9.5379949716717
1739920576660010200,2.22201025390625,-0.8802122244566678,-9.98279684050083,8.599158124288916
1739920576669992400,2.231992431640625,0.18170739723742008,-9.247773423701524,8.153551953339576
1739920576679975200,2.24197509765625,1.0382863787807524,-8.514812200129033,7.664853659638762
1739920576689957400,2.251957275390625,2.2656056753814218,-8.32930307252109,6.6526803578883404
1739920576699939300,2.261939208984375,2.662076351761818,-8.34321527801752,5.822475150138139
1739920576709921300,2.27192138671875,2.3478834149651227,-8.115559199553728,5.499164402514696
1739920576719903200,2.2819033203125,2.1157908153586087,-7.92301125935018,4.959263160321116
1739920576729886200,2.29188623046875,1.8044062139809132,-7.770609451574087,4.613434291419386
1739920576739868400,2.301868408203125,1.2074739016629754,-7.4853271135717625,4.797677344614267
1739920576749850400,2.311850341796875,0.2601503078985959,-7.053558913838863,5.776223686572909
1739920576759832300,2.321832275390625,-1.0120645076137036,-6.5553919500470155,6.626727001464366
1739920576769814300,2.331814208984375,-2.2286586312562227,-5.966016190588474,6.852566385895013
1739920576779797200,2.34179736328125,-3.179475839290023,-5.522773241639137,6.55364890577197
1739920576789779500,2.351779541015625,-4.018313266307115,-5.026186825037002,6.008186522319913
1739920576799761400,2.361761474609375,-4.55384111572206,-4.323476947343349,5.3455245773762465
1739920576809743400,2.371743408203125,-4.577887761741876,-3.5152369031637907,4.38606404415965
1739920576819725300,2.381725341796875,-4.300792237326503,-2.7660920220315455,3.4989877791523933
1739920576829708300,2.391708251953125,-3.988141415405273,-2.238556924936175,2.8428204569250344
1739920576839690500,2.4016904296875,-3.5053321797430512,-1.7944313479334115,2.3162007211089133
1739920576849672200,2.411672119140625,-2.8066169246435164,-1.1663216609328984,2.094668678483367
1739920576859654400,2.421654296875,-2.302217788463831,-0.3486953642487526,2.102866597986221
1739920576869636400,2.43163623046875,-2.0944477292090653,0.3293623027473688,2.1822446706056593
1739920576879619300,2.441619384765625,-1.9536609559029339,0.7845756754755974,2.2265736416757105
1739920576889601300,2.451601318359375,-1.7633879748940466,1.27578536747545,2.332400745281577
1739920576899583200,2.461583251953125,-1.5135545514136552,1.870644965172559,2.4589736997961995
1739920576909565400,2.4715654296875,-1.2433897030442953,2.53525205283463,2.557945530679822
1739920576919547400,2.48154736328125,-0.9180687846422195,3.1116420739918946,2.6206892793625594
1739920576929530400,2.4915302734375,-0.7255845573246479,3.4191339057147503,2.5838006874263284
1739920576939512300,2.50151220703125,-0.6142109255075454,3.5442882256031036,2.567201434803009
1739920576949494300,2.511494384765625,-0.3901262757897377,3.55412397544086,2.5928233673155305
1739920576959476200,2.521476318359375,-0.035548867765069006,3.582326279835403,2.8292987120509148
1739920576969458400,2.53145849609375,0.4634393127491697,3.8144977898970245,3.3029373837858436
1739920576979441400,2.54144140625,0.8759311861366033,4.142368392781913,3.692489659079909
1739920576989423400,2.55142333984375,1.2614251259505749,4.669823118117451,4.187690174281597
1739920576999405300,2.5614052734375,1.544870311653614,5.3314375998348,4.678871516969799
1739920577009387300,2.57138720703125,1.8185639186710119,6.204978091442585,5.120200741252303
1739920577019369500,2.581369384765625,1.890946433314681,7.0922004869222635,5.214618562093377
1739920577029352400,2.5913525390625,1.4981138211756944,7.563882763892412,4.663860994842648
1739920577039334400,2.60133447265625,0.9634704264450817,7.715935612100362,3.8854555324345825
1739920577049316400,2.61131640625,0.816505183699727,8.132612041163444,3.354050900429487
1739920577059298300,2.62129833984375,0.9075041360080242,8.871699054139851,3.165779906892776
1739920577069280500,2.631280517578125,0.8850485585719347,9.47102220711708,2.9050071562469
1739920577079263500,2.641263427734375,0.7228507484465837,9.709188573679327,2.3860896653711796
1739920577089245400,2.651245361328125,0.6072413787558675,9.452768757545947,1.6864134562849997
1739920577099227400,2.661227294921875,0.5124240372031926,8.99605900878012,1.0067927777558565
1739920577109209300,2.671209228515625,0.373260481184721,8.630971312656998,0.3514256659954786
1739920577119191300,2.68119140625,0.23848843812346457,8.18112969609499,-0.3371662544965744
1739920577129174300,2.69117431640625,0.012760989634692669,7.645699461835623,-0.8624562030136584
1739920577139156200,2.70115625,-0.27685996209383007,7.239708677437901,-1.0938923845380544
1739920577149138400,2.711138427734375,-0.5539119396284222,6.942804875224828,-1.37618781568408
1739920577159120400,2.721120361328125,-0.7429077403083443,6.765766638842225,-1.7844868770241735
1739920577169102300,2.731102294921875,-0.7822723669692874,6.596929244571924,-2.2173247518151995
1739920577179085300,2.741085205078125,-0.7343848266348242,6.566701864090562,-2.51699334256649
1739920577189067300,2.7510673828125,-0.7225818683773279,6.691910544514656,-2.367423543345928
1739920577199049200,2.76104931640625,-0.7048468897223472,7.1424331290781495,-1.711279017472267
1739920577209031400,2.771031494140625,-0.46666766367852686,7.95434280168116,-0.9745675014555454
1739920577219014400,2.781014404296875,-0.07157207504361868,8.334835572206973,-1.2062807463556526
1739920577228996400,2.790996337890625,0.09770809455811977,8.156782021301984,-1.8622300419181583
1739920577238978300,2.800978271484375,0.05656856717914342,7.909242846238612,-2.414040917614102
1739920577248960300,2.810960205078125,-0.011844751572608947,7.72364311773777,-2.8050428071945905
1739920577258942500,2.8209423828125,0.052771512983739374,7.708128737741708,-2.7511025426924225
1739920577268925400,2.830925537109375,0.21926585125923156,7.816676790744066,-2.4581962856829165
1739920577278907400,2.840907470703125,0.32571371711194513,7.690010312727093,-2.176315865078568
1739920577288889300,2.850889404296875,0.43441330741420386,7.344293087506294,-2.1460119122296573
1739920577298871300,2.860871337890625,0.6664959701485932,6.978936511313915,-2.535734283393621
1739920577308853500,2.870853515625,0.9075614922184496,6.615458588474988,-3.208621269753575
1739920577318836500,2.88083642578125,1.0338193894345313,6.195449800118803,-3.9444747076362368
1739920577328818400,2.890818359375,1.074447533225268,5.847477489447593,-4.496721052139997
1739920577338800400,2.90080029296875,1.0484311945676803,5.561585495114326,-4.7469040197104215
1739920577348782300,2.9107822265625,0.9505028083223849,5.388089461383223,-4.587689609310031
1739920577358764300,2.920764404296875,0.883735868538171,5.206605351507664,-4.326505939775705
1739920577368747300,2.930747314453125,0.8672492825090885,5.064094238626956,-4.1248868043661115
1739920577378729200,2.940729248046875,0.8773101463396101,4.981403095936775,-4.072638730734586
1739920577388711400,2.95071142578125,0.7545400912392884,4.973664026117325,-4.076885282263159
1739920577398693400,2.960693359375,0.4360669198401272,4.822516310055554,-4.0097447599262
1739920577408675300,2.97067529296875,0.2600644562460482,4.6890854524701835,-3.491951304644346
1739920577418658300,2.980658203125,0.33185134308412667,4.320019792626798,-3.3509856676399705
1739920577428640300,2.99064013671875,0.5798042135149241,3.615569793267548,-3.5855157235264774
1739920577438622200,3.000622314453125,0.7286456984609365,2.8618302778214213,-3.0043168407827614
1739920577448604400,3.0106044921875,1.1409949119746685,2.1227210530132052,-2.040061474505067
1739920577458586000,3.020586181640625,1.5033078826874493,1.851138885191828,-1.0773381401002406
1739920577468569300,3.0305693359375,1.609112189939618,1.765754119503498,-0.21373685870468614
1739920577478551300,3.04055126953125,1.8736003078468142,1.1979120003305375,0.4268973788261413
1739920577488533200,3.050533203125,2.032583685970306,0.7720441106826067,1.3412836755633353
1739920577498515500,3.060515380859375,1.9599018961191177,0.3449610730912536,2.1667554250508547
1739920577508497200,3.0704970703125,1.5012399903722107,-0.18051380353868007,3.0985049445211885
1739920577518480400,3.08048046875,0.5414303514569997,-0.6031004795588553,4.035211209616064
1739920577528462300,3.09046240234375,-0.5790630397588015,-0.9470252684049307,5.397534750598669
1739920577538444300,3.1004443359375,-1.455521464639902,-1.1835121574476362,6.6631643425017595
1739920577548426500,3.110426513671875,-2.2282877521172164,-1.1631249107182025,7.2634314983308315
1739920577558409500,3.120409423828125,-3.223231978908181,-1.0144473841622472,7.542805489072204
1739920577568391400,3.130391357421875,-4.173072450864315,-1.2272566066280006,7.696758617943525
1739920577578373400,3.140373291015625,-4.953303959655761,-1.7998320379331707,7.701272295975684
1739920577588355300,3.150355224609375,-5.41526856020987,-2.545329502473771,7.9655229518651955
1739920577598337500,3.160337646484375,-5.606392605090141,-3.274156110459566,8.660040755274892
1739920577608320000,3.170320068359375,-5.595294872492551,-3.767392632111907,9.251489813876152
1739920577618302000,3.180302001953125,-4.864437927722931,-4.05970852201283,8.866373475202918
1739920577628284000,3.190283935546875,-5.082544087553024,-4.269484368132055,8.638062732222675
1739920577638265900,3.200265869140625,-6.249388311055302,-4.7098932626992465,8.900084606146812
1739920577648248000,3.210248046875,-7.542986106336117,-5.602548789143562,8.89762844516635
1739920577658231000,3.22023095703125,-8.764777725556492,-6.5320894003927705,8.304906297889351
1739920577668213000,3.230212890625,-9.452014139786362,-7.242782093533873,7.292331429600715
1739920577678195000,3.24019482421875,-9.401892556789516,-7.684836709481477,6.271973652350902
1739920577688177000,3.250177001953125,-8.800205012768506,-7.853756521338224,5.165175024488568
1739920577698159000,3.2601591796875,-8.265136597558856,-7.937675744518637,4.212503713020682
1739920577708142000,3.27014208984375,-8.166207436773181,-7.986883719801902,3.7223826930403705
1739920577718124000,3.2801240234375,-8.30201642166674,-7.822454789623618,3.236630389663577
1739920577728106000,3.29010595703125,-8.547860483250021,-7.491943316841125,3.1146354105889795
1739920577738088000,3.300087890625,-8.455651570630073,-6.8135571485429995,2.7518910627216098
1739920577748070000,3.31006982421875,-8.531042619439958,-6.153191790103912,2.766827935090661
1739920577758053000,3.32005322265625,-8.26623023801446,-5.650397166511416,2.697471490269899
1739920577768034800,3.330034912109375,-7.479115983971953,-5.136590150517225,2.9549405231952663
1739920577778017000,3.34001708984375,-6.949429846322536,-4.477013019846379,3.813081201097369
1739920577787999000,3.3499990234375,-6.881447612464427,-3.595354688234627,4.632510163289308
1739920577797982000,3.35998193359375,-6.239822610330581,-2.8174168433383104,5.017735807555914
1739920577807964000,3.3699638671875,-5.415606998383999,-2.411529811576009,4.81447533468008
1739920577817945900,3.37994580078125,-5.143699105739593,-2.214192591269314,4.303691465899348
1739920577827928000,3.389927978515625,-5.0565527372062204,-1.9960899385705588,3.384173066970706
1739920577837910000,3.399909912109375,-5.02464251820445,-1.7149726112931967,1.926633248245716
1739920577847893000,3.40989306640625,-4.943934073764085,-1.8035797000288962,0.9176841692388057
1739920577857875000,3.419875,-5.230517557492852,-2.2703525776475666,1.3174614859491587
1739920577867857000,3.42985693359375,-6.42934623427689,-2.4493545153185723,3.856753754085302
1739920577877838800,3.4398388671875,-6.894362039095163,-1.3843757983148097,5.641548674145341
1739920577887821000,3.449821044921875,-5.752854501423239,-0.1579755162551999,6.370579572531581
1739920577897804000,3.459803955078125,-4.784719663363695,0.7001333052039146,6.2872951401233665
1739920577907786000,3.469785888671875,-4.188054331418872,1.0088406501963734,5.23137914275825
1739920577917768000,3.479767822265625,-3.033518385347724,0.9218722685784101,3.421016066199541
1739920577927750000,3.48975,-1.4688836350381373,0.9131118928872048,2.0880407847762106
1739920577937732000,3.499732177734375,-0.03811857212260365,1.1553852563768625,2.375442599150538
1739920577947715000,3.509715087890625,0.8982764350660145,1.7919582358181476,3.6308822209507223
1739920577957697000,3.519697021484375,1.1021955179810523,2.9126553329125047,4.719745963671803
1739920577967679000,3.529678955078125,0.5537006349653005,4.019688646313548,4.94349626686871
1739920577977661000,3.539660888671875,0.022886370068788527,4.834510406970978,4.0669536708354945
1739920577987644000,3.549643798828125,-0.07865618808567523,5.667984845650196,2.84915141351223
1739920577997626000,3.559626220703125,-0.21249021964445708,6.607910072791576,1.678559235653281
1739920578007608000,3.569608154296875,-0.6031500177890062,7.2517936675071715,1.0833511167794465
1739920578017590000,3.579590087890625,-0.9422469480872153,7.617422630900144,0.9621031566798687
1739920578027572000,3.589572021484375,-0.9554998128920793,8.007656458717584,0.9572475333422422
1739920578037555000,3.599554931640625,-0.7134943065583705,8.438484162729978,1.042280855244398
1739920578047537000,3.609536865234375,-0.31219197223782535,8.871917665326595,1.1945055528879165
1739920578057518800,3.619518798828125,0.12452902759686112,9.37801366855204,1.1638485488176344
1739920578067501000,3.6295009765625,0.5141106751158834,9.701247843807936,0.8377963935315609
1739920578077483000,3.63948291015625,0.8278861171528696,9.97373441312313,0.4468523716181516
1739920578087466000,3.649466064453125,1.0081367397107184,10.321309833431243,0.054231940925121305
1739920578097448000,3.659447998046875,1.13440851932168,10.682394723653793,-0.26964520840942857
1739920578107430000,3.669429931640625,1.1927969954043627,10.959890645563602,-0.3949170171976089
1739920578117411800,3.679411865234375,1.295996673116088,11.190385162323713,-0.831852390435338
1739920578127394800,3.689394775390625,1.5544075169362126,11.39568678563833,-1.3349556415855883
1739920578137377000,3.699376953125,1.8220482536554337,11.64259818419218,-1.4194056106418371
1739920578147359000,3.70935888671875,1.9824018972188233,12.008536944186687,-1.4863058944821357
1739920578157341000,3.7193408203125,2.3918666413374243,12.230172447186709,-1.817323563221097
1739920578167323000,3.729322998046875,2.83697231541872,12.116811440944671,-2.7281968834012744
1739920578177305900,3.739305908203125,2.9604309373050928,11.674651026535033,-3.6670875067979094
1739920578187288000,3.7492880859375,3.0163550691008565,11.134317822664975,-4.245056321579217
1739920578197270000,3.75927001953125,3.1296985396862027,10.79937392039299,-4.480280204948783
1739920578207252000,3.769251953125,3.2642028717219826,10.629864910471438,-4.393658737072348
1739920578217234000,3.77923388671875,3.194231509873271,10.285214437699317,-4.4617549526989455
1739920578227217000,3.789216796875,2.7043974901407957,9.910613063299655,-4.438983733442425
1739920578237199000,3.79919921875,1.9544203959681092,9.536484567108749,-4.040028254508972
1739920578247181000,3.80918115234375,1.3344050219655037,9.027982671785354,-3.2979689477235077
1739920578257163000,3.8191630859375,1.0118377861857413,8.476482761734724,-2.712944369211793
1739920578267146000,3.82914599609375,0.9331436041772365,8.033070301437377,-2.246502915504575
1739920578277128000,3.8391279296875,1.1457248631060122,7.798537907463312,-1.8088251994669435
1739920578287110000,3.84910986328125,1.6471395766474306,7.825630497050285,-1.6176543928354978
1739920578297092900,3.8590927734375,2.190485990858823,7.9253043387234205,-1.5535452010184525
1739920578307075000,3.869074951171875,2.621388952064514,8.016307967206835,-1.2402116575300692
1739920578317056800,3.879056884765625,2.8119565321058033,8.19593622008264,-0.855761673811078
1739920578327040000,3.8890400390625,2.646931974121928,8.328077914640307,-0.5745119523257016
1739920578337022000,3.89902197265625,2.1573446226269004,8.397541911488771,-0.16261983492970467
1739920578347004000,3.90900390625,1.3742683919288217,8.311742281389236,0.6245137083351612
1739920578356986000,3.918986083984375,0.4508547391273081,8.17217715883255,1.6860317634910345
1739920578366967800,3.9289677734375,-0.6026613574892282,7.96131907043457,2.700325126135349
1739920578376951000,3.938950927734375,-1.4757402229346335,7.779047025051713,3.313955036884546
1739920578386932700,3.9489326171875,-1.8627162179999053,7.397799052244425,3.312558029568195
1739920578396915000,3.9589150390625,-1.7676022315882145,6.6985261632621285,2.827799997925758
1739920578406897200,3.968897216796875,-1.5335072061181068,5.859653080409765,2.0821254232525823
1739920578416879900,3.9788798828125,-1.3793987405546009,5.178316245612502,1.4821505283683538
1739920578426862000,3.988862060546875,-1.212957155379653,4.468068665890395,1.3392770119160413
1739920578436843800,3.99884375,-1.107652175951749,3.7957621097669003,1.557132411855459
1739920578446826000,4.008825927734375,-0.9909650940269231,3.1636931637465953,1.7824696919828653
1739920578456808000,4.018807861328125,-0.9014820992395282,2.4904724153876305,1.9562994877129791
1739920578466791000,4.028791015625,-0.8728915261797606,1.8278630774140356,2.202387294924259
1739920578476773000,4.038773193359375,-0.9465868769876659,1.3384655494026838,2.684291690701246
1739920578486754800,4.0487548828125,-1.1514718823254109,0.963389397098124,3.1739252194255587
1739920578496737000,4.058737060546875,-1.3791561639703809,0.5521750328332186,3.4825334879577157
1739920578506719000,4.068718994140625,-1.6899943835116922,0.11143149948418139,3.5508354552894827
1739920578516702000,4.078701904296875,-1.8447427544139325,-0.3416442766934633,3.453600823462009
1739920578526684200,4.08868408203125,-1.9944844030700624,-0.7517401583224534,3.54541343024075
1739920578536665900,4.098665771484375,-2.2572819375418125,-1.231198622252047,3.8756244587719437
1739920578546648000,4.10864794921875,-2.593035548761487,-1.818125234992802,4.685580659219623
1739920578556630800,4.118630859375,-2.8082459871500727,-2.239286115993559,5.427399142986536
1739920578566613000,4.128613037109375,-2.8128911826074123,-2.682719326817989,6.010141163519024
1739920578576595000,4.138594970703125,-2.766671283224225,-3.1094939560472965,6.333551864385605
1739920578586577000,4.148576904296875,-2.738080564033985,-3.543768585643172,6.327900706756115
1739920578596559000,4.15855908203125,-2.7567431789278984,-4.109617923563719,6.44160015117228
1739920578606541800,4.168541748046875,-2.803344771105051,-4.530374315416813,7.175870703777671
1739920578616524000,4.17852392578125,-2.906880548903346,-4.689247365033626,8.025701233974099
1739920578626506000,4.188506103515625,-3.0892770974487065,-5.033457108300924,8.793904451319575
1739920578636488000,4.198488037109375,-3.1567139723837374,-5.440681818407774,9.393285471963882
1739920578646471000,4.208470947265625,-3.1805355774760242,-5.7778550871670245,9.874057064318656
1739920578656452900,4.218452880859375,-3.1594962965786455,-6.25316023080945,10.177999094605445
1739920578666435000,4.22843505859375,-3.2540485574543476,-6.6795584279417985,10.259539898216724
1739920578676417000,4.2384169921875,-3.5988264559984207,-7.0250973739862435,10.229158788478374
1739920578686399000,4.24839892578125,-3.930422216886282,-7.316337743610143,10.542266121995448
1739920578696381200,4.258381103515625,-4.1527264129281045,-7.436629425898194,11.094653336274623
1739920578706363000,4.26836279296875,-4.2762347191751005,-7.515831557428837,11.608403653645516
1739920578716346000,4.27834619140625,-4.431625187373161,-7.69680421065092,11.733536930745839
1739920578726327800,4.288327880859375,-4.686531676334142,-7.9761483907759185,11.500417910701035
1739920578736310000,4.29831005859375,-5.031116682654619,-8.362597439357637,11.119439402484893
1739920578746292200,4.308292236328125,-5.351859041094779,-8.956929944440722,10.659175176107883
1739920578756275000,4.31827490234375,-5.472141955554485,-9.506367661264537,10.102852960467338
1739920578766257200,4.328257080078125,-5.436476767933368,-9.893901582473516,9.386301604425906
1739920578776238800,4.33823876953125,-5.312106876420974,-10.086612604284285,8.48853677214384
1739920578786221000,4.348220947265625,-5.025919114011526,-9.781299285644293,7.649978162068128
1739920578796203000,4.358203125,-4.6854912273705,-9.111126234418153,6.907844036480784
1739920578806186000,4.36818603515625,-4.377600167196989,-8.291216795232891,6.352700216969847
1739920578816168200,4.378168212890625,-4.137871373623609,-7.274154552397132,6.17777619626224
1739920578826150000,4.38814990234375,-3.890038768571615,-6.1022320027172565,6.4615773557960985
1739920578836132000,4.398132080078125,-3.5135213314175604,-4.866739190402627,6.753103556624055
1739920578846115000,4.408114990234375,-3.1751123833835124,-3.6855133903265,6.774487705436348
1739920578856097000,4.418096923828125,-2.881231143862009,-2.708906491997838,6.4201107884198425
1739920578866079000,4.428078857421875,-2.499188221284747,-1.796295388239622,5.907037347397208
1739920578876061000,4.43806103515625,-2.0990221975177525,-1.0051572855085134,5.459346771389246
1739920578886043100,4.448043212890625,-1.8979349770277738,-0.36842736193984743,5.195304789814353
1739920578896025900,4.45802587890625,-1.7941840951740742,0.10740385140329599,5.159142174065113
1739920578906008000,4.468008056640625,-1.8412024514585732,0.38328152446150776,5.158033336040377
1739920578915990000,4.477989990234375,-1.9348072023510932,0.571033170299232,5.204882180976868
1739920578925972000,4.487971923828125,-1.9036685522437093,0.6983648342266678,5.086511237618327
1739920578935955000,4.497954833984375,-1.723914627161622,0.859101924149692,4.717029690450429
1739920578945937000,4.50793701171875,-1.4762708226799963,1.0177595774501562,4.175997982922196
1739920578955919000,4.517919189453125,-1.2259849792569875,1.1135343658581376,3.6905209893554445
1739920578965900800,4.52790087890625,-0.7168371872454882,1.3100636307828128,3.286338131162524
1739920578975883000,4.537883056640625,-0.27012166681475935,1.5721515556804835,2.9897552314668894
1739920578985866000,4.547865966796875,-0.15056812607552855,1.8524201571740209,2.7968285210788246
1739920578995848000,4.557847900390625,-0.27763145792298016,2.1616804598741233,2.6661481312453743
1739920579005830100,4.567830078125,-0.4998649633487686,2.624531926265359,2.7441964165657757
1739920579015811800,4.577811767578125,-0.7976134362250566,3.3277851170554755,3.1575451625108717
1739920579025795000,4.587795166015625,-1.152083292222023,4.088584487885236,3.315125834229588
1739920579035777000,4.597777099609375,-1.3304957395672798,4.861909870550036,3.1037492749154567
1739920579045759000,4.607759033203125,-1.2869178791254758,5.578035694655775,2.59679636259973
1739920579055741200,4.6177412109375,-1.1993617607474327,6.216787771701813,1.9313526779830454
1739920579065723000,4.627722900390625,-1.166613337355852,6.714802759802341,1.3748252951592206
1739920579075706000,4.6377060546875,-1.3600117569088934,7.142041499412059,1.117587732902169
1739920579085688000,4.64768798828125,-1.590279479175806,7.544208341607451,1.029563412490487
1739920579095670000,4.657669921875,-1.6513037105895578,7.781396218526363,0.9955483301639556
1739920579105652000,4.66765185546875,-1.2031529697239398,8.11823923241794,1.0584867246359586
1739920579115635000,4.677635009765625,-0.6560996638186276,8.508329852372407,1.1714321358144282
1739920579125617200,4.6876171875,-0.22300036161243914,8.81927796202898,1.2039409052312373
1739920579135598800,4.697598876953125,0.0946001916706562,9.211147282093762,1.143047168329358
1739920579145581000,4.7075810546875,0.3405290089279413,9.58212228268981,1.0149211391538382
1739920579155564000,4.71756396484375,0.5912965714532882,9.94933880753517,0.8925368685007095
1739920579165546000,4.7275458984375,0.8636405174273997,10.391648859548567,0.8369950140208006
1739920579175528000,4.73752783203125,1.0784550883661954,10.827003101074695,0.7628846526712179
1739920579185510000,4.747510009765625,1.1815244907617568,11.297110676074027,0.39606677175462246
1739920579195492000,4.7574921875,1.1887726352591066,11.678941417205333,-0.3714163146227598
1739920579205475000,4.76747509765625,1.1240268260389565,11.934260578620433,-1.2140700850576163
1739920579215457000,4.77745703125,1.1691098303467036,12.133423553049564,-2.0590619430512187
1739920579225439000,4.78743896484375,1.2957365608751774,12.305806072580813,-2.724035087546706
1739920579235421000,4.7974208984375,1.496372530466318,12.580011136251688,-3.0708091283440586
1739920579245404000,4.80740380859375,1.8290940805137157,12.902754897642135,-3.3644787709414956
1739920579255386000,4.81738623046875,2.1095219642221927,13.01078623329401,-3.7210382926940917
1739920579265368000,4.8273681640625,2.216497653341293,12.81451196604371,-3.9827895329833027
1739920579275350000,4.83735009765625,2.0786755750596524,12.494763294816016,-4.042607165086269
1739920579285333000,4.8473330078125,1.6941998723775147,12.199661573588847,-3.966161054265499
1739920579295315000,4.85731494140625,1.1711660322241484,11.66923017053008,-3.77915496609807
1739920579305297000,4.867296875,0.5931746402848511,11.006007084572314,-3.4772529172062874
1739920579315279000,4.877279052734375,0.17279343841969966,10.475399155902862,-3.3536884968578815
1739920579325261000,4.887260986328125,0.026734423799067736,10.109310758304595,-3.3797342077404258
1739920579335244000,4.897244140625,0.10562193642258644,9.656746438780427,-3.1731612493157386
1739920579345226000,4.90722607421875,0.21385493212640283,9.218246300444006,-2.433075288429856
1739920579355208000,4.9172080078125,0.5029179577112197,9.146329649746418,-1.7493500971913336
1739920579365190100,4.927190185546875,1.0497194808125496,9.158926096469163,-1.3493991774797438
1739920579375173000,4.937173095703125,1.6501900502592324,9.060228406351804,-1.1304244181215763
1739920579385155000,4.947155029296875,2.0638697817243634,8.953699876478314,-0.7363730778425932
1739920579395137000,4.957136962890625,2.2779233051627874,8.881715421241521,0.33749592484235763
1739920579405119000,4.967118896484375,2.2542757414631542,8.853509317454694,1.752143527302146
1739920579415101000,4.977100830078125,2.0133743969790636,8.66148160173297,3.053662178710103
1739920579425084200,4.987084228515625,1.6522968132801352,8.261435989475249,4.21312272170186
1739920579435066000,4.997066162109375,1.3219986909873782,7.925490801206231,5.26045559963882
1739920579445048000,5.007048095703125,1.052592405900359,7.506382176560163,6.034056292113662
1739920579455030000,5.017030029296875,0.8475257603853941,6.72265581139028,6.465109037053585
1739920579465013000,5.027012939453125,0.6731020904153585,5.764944752189517,6.814660725870728
1739920579474995000,5.036994873046875,0.4924631261270493,4.753875612288713,7.080836796864867
1739920579484977000,5.046976806640625,0.2446914574820548,3.8198675002366302,7.03088706330359
1739920579494959000,5.056958984375,-0.21704466807842254,2.9123657023161647,6.680282650563121
1739920579504941800,5.06694189453125,-0.8595306709557771,2.102423822654784,6.127627140736579
1739920579514924000,5.076924072265625,-1.5303028571188448,1.2346531466200947,5.644338597124815
1739920579524906000,5.086906005859375,-2.292093869334459,0.14521101948916912,5.619945329624414
1739920579534888000,5.096887939453125,-2.8813328506708142,-0.8589747906386852,5.793586324784159
1739920579544870000,5.106869873046875,-3.1234254507660864,-1.4834899602785705,5.891916350632906
1739920579554852900,5.116852783203125,-3.1880741562873123,-1.9905679602786897,5.977092880398034
1739920579564835000,5.1268349609375,-3.198923467081785,-2.7177997002884746,5.852483919432759
1739920579574817000,5.136817138671875,-3.246002029120922,-3.452743914371729,5.676857887935638
1739920579584799000,5.146799072265625,-2.9908886194109914,-4.070583551770448,5.538890848225355
1739920579594782200,5.1567822265625,-2.5355694482207296,-4.551725146481394,5.384879267165065
1739920579604764000,5.166763916015625,-2.0620798295676708,-5.014398187565803,5.4240773050874465
1739920579614746600,5.17674658203125,-1.6831132456958293,-5.409015929555893,5.466821637314558
1739920579624728600,5.186728515625,-1.3119161267817019,-5.740720996037125,5.367613075065613
1739920579634710500,5.19671044921875,-0.9504828615128993,-6.1075856387048955,5.135217693120241
1739920579644693500,5.206693603515625,-0.5201192313482984,-6.467670411974192,5.275552046483755
1739920579654675500,5.216675537109375,-0.1789478693962097,-6.677408556431532,5.600639740651846
1739920579664657700,5.22665771484375,-0.10075049446132034,-6.816174637565016,5.617144300729036
1739920579674639600,5.2366396484375,-0.3032897403905168,-7.0831170167565345,5.369281885060667
1739920579684622600,5.24662255859375,-0.6160369718909263,-7.374599378442764,5.343648262110352
1739920579694604500,5.2566044921875,-0.8661305076122283,-7.491682035556435,5.954213524591922
1739920579704586500,5.26658642578125,-1.1109586701512335,-7.439743174004554,6.315155791473388
1739920579714568700,5.276568603515625,-1.4808862075209617,-7.617210449454188,6.195580733022093
1739920579724551700,5.2865517578125,-1.8990309555709362,-7.930739807775616,5.997407938674092
1739920579734533600,5.29653369140625,-2.0864391947984693,-8.069417626103759,6.16507628916502
1739920579744515600,5.306515625,-2.1952830158770085,-8.141395651599764,6.79800302105844
1739920579754497500,5.31649755859375,-2.402548632740974,-8.211113330948352,7.795237696874141
1739920579764480500,5.32648046875,-2.7121079183876513,-8.104016645798087,8.960815845963358
1739920579774462700,5.336462646484375,-3.1124843700349327,-7.984134713354706,10.05689434236884
1739920579784444700,5.346444580078125,-3.476048802113533,-8.039134716042875,11.259362252438068
1739920579794426600,5.356426513671875,-3.7382279124259945,-8.29834270159006,12.205536018580197
1739920579804408600,5.36640869140625,-3.984620255541801,-8.568038763403893,12.660980277454852
1739920579814391600,5.3763916015625,-4.068371720939874,-8.905647500970959,12.500823617768287
1739920579824373500,5.38637353515625,-3.949733651077747,-9.17838424565494,11.751306396192312
1739920579834355700,5.396355712890625,-3.7251416363596914,-9.269123670244216,10.822453182685374
1739920579844337700,5.406337646484375,-3.4301918908238407,-8.96391147389114,10.49077091255784
1739920579854320600,5.416320556640625,-3.2388673549354072,-8.128540261679888,10.746783316934108
1739920579864302600,5.426302490234375,-3.1372306887567043,-6.997607309514284,10.656470008802414
1739920579874284500,5.436284423828125,-3.0756606600284573,-5.963780978882313,10.03365725916624
1739920579884266500,5.4462666015625,-2.9228455952763555,-4.8298219568938014,9.435327793401479
1739920579894249700,5.456249755859375,-2.7232605960428713,-3.4440532429158686,8.894086827036737
1739920579904231400,5.4662314453125,-2.4923498996973037,-1.9632874469041823,8.380809972396493
1739920579914213600,5.476213623046875,-2.2233774759829044,-0.5847703114897013,7.9006305007159705
1739920579924195600,5.486195556640625,-1.9448165551900862,0.6011480303168296,7.453102421793341
1739920579934177500,5.496177490234375,-1.6110989798426627,1.6531640976339577,6.8620631130367515
1739920579944160800,5.506160888671875,-1.3020973280787467,2.5194796064242717,6.121459265756607
1739920579954142500,5.516142578125,-1.1181693321824073,3.1477222721546885,5.262426607450842
1739920579964124700,5.526124755859375,-1.026501102310419,3.4498797571122646,4.49673391162157
1739920579974106600,5.536106689453125,-0.8822165500164032,3.594705868937075,3.93560984865725
1739920579984089600,5.546089599609375,-0.838993494361639,3.693824999336898,3.7117584231734275
1739920579994071600,5.556071533203125,-0.7996879044115542,3.6128421218693254,3.6133792974859475
1739920580004053500,5.566053466796875,-0.7237818918168545,3.401263902503252,3.4185458766937256
1739920580014035700,5.57603564453125,-0.6520856058716774,3.1464149889484045,3.401763668718934
1739920580024018400,5.586018310546875,-0.6199439162015915,3.036966479974985,3.629514439728856
1739920580034000600,5.596000732421875,-0.7374830849111079,3.0811195099562405,3.7999808965057134
1739920580043982600,5.605982666015625,-0.9972936394613235,3.2163325747832654,3.8174125082999466
1739920580053964500,5.615964599609375,-1.3374467277489601,3.3590503161519765,3.711104343178868
1739920580063947800,5.62594775390625,-1.6281787094593048,3.7040208146587013,3.6146798586905002
1739920580073929500,5.635929443359375,-1.7893477610588073,4.168565202572942,3.4747499944746494
1739920580083911700,5.64591162109375,-1.9514649071633814,4.677082879987359,3.230159732344746
1739920580093893600,5.6558935546875,-2.166295406323671,5.12488743776381,2.9634564226061104
1739920580103875600,5.66587548828125,-2.2865561089515687,5.627742851632833,2.6721517555743453
1739920580113858800,5.67585888671875,-2.3866169041156766,6.273869841361045,2.386622164812684
1739920580123840500,5.685840576171875,-2.454903089356422,6.854447377336025,2.0739958928108213
1739920580133822700,5.69582275390625,-2.506745504796505,7.452392812219261,1.6820511694222688
1739920580143804700,5.7058046875,-2.5074551143705843,8.033283651927112,1.2978946156919002
1739920580153787600,5.71578759765625,-2.5326526839911936,8.594611128509044,1.0456330882817506
1739920580163769600,5.72576953125,-2.5503683734238147,8.995655104154348,0.823713507643342
1739920580173751600,5.73575146484375,-2.436337505096197,9.300807094752788,0.6916022082239389
1739920580183733800,5.745733642578125,-2.1643466103434563,9.684219552117586,0.6039642567813396
1739920580193716500,5.755716552734375,-1.7064695713639257,10.078440988266468,0.32097792076170445
1739920580203698700,5.76569873046875,-1.193532908463478,10.416024591392278,-0.030927053183317184
1739920580213680400,5.775680419921875,-0.6736755063891411,10.724966621923446,-0.3833528361320495
1739920580223662600,5.78566259765625,-0.13563304380476474,10.933916830873489,-0.6237263573497533
1739920580233645600,5.7956455078125,0.18558102380037306,11.294527089321612,-0.7948965784817934
1739920580243627500,5.80562744140625,0.336333310803771,11.56007070763111,-0.990998996296525
1739920580253609700,5.815609619140625,0.48477615182101724,11.634134307229518,-1.248291503611207
1739920580263591400,5.82559130859375,0.7414233469694852,11.716072585725783,-1.5060662414848804
1739920580273574700,5.83557470703125,1.2549369329750537,11.805894895470141,-1.8281208515673875
1739920580283556600,5.845556640625,2.0190116722136735,11.832144604492187,-2.1701275318324567
1739920580293538600,5.85553857421875,2.7932272817164656,11.921420970791578,-2.4314538247078654
1739920580303520800,5.865520751953125,3.399379403930902,12.177739664638041,-2.362158754685521
1739920580313502500,5.87550244140625,3.756724523103237,12.431922515499592,-2.261623912268877
1739920580323485700,5.885485595703125,3.6931542604684826,12.514089926576613,-2.6069880862683057
1739920580333467400,5.89546728515625,3.2302935878574845,12.238575533872842,-3.110188368052244
1739920580343449600,5.90544970703125,2.4710920076131817,11.939542318415642,-3.3157477655202148
1739920580353431800,5.915431884765625,1.793839227259159,11.860085919862986,-3.324061420357227
1739920580363414500,5.92541455078125,1.191069806285575,11.699062998735904,-3.4393817439734935
1739920580373396700,5.935396728515625,0.6014877105999737,11.210164214026927,-3.5224265224069353
1739920580383378400,5.94537841796875,0.2747621130317449,10.703965919470786,-3.4755309157192706
1739920580393360600,5.955360595703125,0.285877381286025,10.40893434087038,-3.121265057861805
1739920580403343600,5.965343505859375,0.4609539622068405,10.344099172866343,-2.814789709705114
1739920580413325600,5.97532568359375,0.6004686697505414,10.158553220379352,-2.6661241658478976
1739920580423307800,5.985307861328125,0.5892179385483265,9.781755212718247,-2.6506477797746655
1739920580433289500,5.99528955078125,0.4592570951610803,9.596397476279735,-2.480761753234267
1739920580443272700,6.005272705078125,0.3460404658257961,9.547522093951702,-1.8579688773423433
1739920580453254700,6.015254638671875,0.2522235334873199,9.479011452305317,-0.8639256910443306
1739920580463236600,6.025236572265625,0.15918920289389787,9.45880569962263,0.19874094962477684
1739920580473218600,6.035218505859375,0.10250994188189506,9.3898215952456,1.2755752318561075
1739920580483201500,6.045201416015625,0.087124229766801,9.325062415087222,2.4451719689369202
1739920580493183500,6.05518359375,0.16541680870447306,9.217973913243412,3.6921886303067204
1739920580503165400,6.06516552734375,0.25275548493955285,9.052785689130426,4.923121587359905
1739920580513147600,6.075147705078125,0.31481179934740067,8.757077818703651,5.9805398059815165
1739920580523129600,6.085129638671875,0.3159270671129227,8.372503331822156,6.832936387273669
1739920580533112600,6.095112548828125,0.15993220328092575,7.907279437211155,7.422917126888036
1739920580543094500,6.105094482421875,-0.16170096651911733,7.129030626669525,7.668522703540325
1739920580553076500,6.115076416015625,-0.5099159268397837,6.201819335150718,7.571003409552573
1739920580563058700,6.12505859375,-0.8653391380388289,5.377552285277843,7.2123086293369525
1739920580573041700,6.135041748046875,-1.2421440868973732,4.616777464367449,6.873877469471097
1739920580583023600,6.145023681640625,-1.6181541590511799,3.925052798807621,6.5941919285625215
1739920580593005600,6.155005615234375,-1.901286041021347,3.1844562580510973,6.507184091717004
1739920580602987500,6.164987548828125,-2.0013728474095465,2.3383605304688215,6.685335842299461
1739920580612970200,6.17497021484375,-1.5890999140024185,1.618836588357389,7.3179124455809585
1739920580622952000,6.184951904296875,-0.7327260996423661,0.9927215823054313,8.799035968989134
1739920580632934100,6.19493408203125,0.12401684029102325,-0.5282470447570086,9.53385597217083
1739920580642916000,6.204916015625,0.7149686168946325,-1.9744909779638051,9.591610242003203
1739920580652899000,6.214899169921875,1.2531705078244209,-2.866086766222119,9.643829089540242
1739920580662881000,6.224881103515625,2.0024211874186992,-3.682857322859764,9.46829891963303
1739920580672863000,6.234863037109375,2.6992612962961195,-4.3978392376273865,9.098072107055783
1739920580682845200,6.24484521484375,3.354726607733965,-4.9537744997769595,8.556289873421191
1739920580692828200,6.254828125,3.9609260762214658,-5.41606993972063,7.941380444255471
1739920580702810000,6.26481005859375,4.3393163215100765,-5.69052517876029,7.185206687399744
1739920580712792000,6.2747919921875,4.374339704096317,-5.904036996537447,6.310491891315579
1739920580722774000,6.28477392578125,4.37610612924695,-6.152194011238217,5.524712685269117
1739920580732757000,6.294757080078125,4.003489791184664,-6.074139880698919,4.995487150868773
1739920580742739200,6.3047392578125,3.5236896742105484,-6.200177413162589,4.739610355570912
1739920580752721200,6.31472119140625,3.1952818957090376,-6.206960205170512,4.613198729097843
1739920580762703000,6.324703125,2.7247861981749533,-6.19375936281383,4.576480233031511
1739920580772686000,6.33468603515625,2.1516355973303316,-6.270069280034304,4.683891975480318
1739920580782668000,6.34466796875,1.502471431863308,-6.304292452153563,5.0163329550206655
1739920580792650000,6.35464990234375,0.8774350878935306,-6.257051393029093,5.405490678039193
1739920580802632200,6.364632080078125,0.2497721217472106,-6.158564715313911,5.9234279257059095
1739920580812615200,6.374615234375,-0.4204957681555301,-6.074392978677153,6.835877701422572
1739920580822597000,6.38459716796875,-1.059243753548339,-6.158673436385393,7.605038950145244
1739920580832579000,6.3945791015625,-1.612700569820404,-6.469177893927693,8.135363385698199
1739920580842561000,6.40456103515625,-1.9961869692042469,-6.885609408318996,8.69286750459969
1739920580852543200,6.414543212890625,-2.178753759749979,-7.243937108787894,9.460586737820506
1739920580862526200,6.424526123046875,-2.3329997340880335,-7.480421805873513,10.465069485068321
1739920580872508200,6.434508056640625,-2.3662008696831762,-7.513042803493142,11.61055469419956
1739920580882490000,6.444489990234375,-2.3972249535001815,-7.49402304572463,12.841980987727641
1739920580892472000,6.45447216796875,-2.5304396841168404,-7.683530303058028,13.761329875308274
1739920580902455000,6.464455078125,-2.629289349925518,-8.036506705626845,14.156937797379493
1739920580912437200,6.474437255859375,-2.5758722325146195,-8.297837674677371,14.080278920590876
1739920580922419000,6.4844189453125,-2.331847349182516,-8.399319442555308,13.645429705977438
1739920580932401200,6.494401123046875,-2.0091455272376537,-8.386317337641119,12.968936804080009
1739920580942384000,6.504384033203125,-1.6649125492252408,-8.330236553978919,11.88447100405693
1739920580952366000,6.514365966796875,-1.2706839526832103,-8.159190836009383,10.630650507891177
1739920580962348000,6.52434814453125,-0.8362638502020389,-7.668917840337753,9.613706922999024
1739920580972330000,6.534330078125,-0.4397254423476755,-6.906055399498343,8.939936724063754
1739920580982313200,6.544313232421875,-0.10176175386309623,-5.775051135662197,8.47714210242629
1739920580992295000,6.554294921875,0.11700140857100486,-4.47620024215877,8.329276184514164
1739920581002277000,6.564277099609375,0.2543430098593235,-3.0737159557014704,8.386625380676984
1739920581012259000,6.574259033203125,0.22547814990282058,-1.7019962253421543,8.39075561234951
1739920581022242000,6.584241943359375,0.17196166377067565,-0.4231804041296243,8.361507306033372
1739920581032224300,6.594224365234375,0.07175364215560256,0.7411889536917209,8.20621036133766
1739920581042206000,6.6042060546875,-0.15775770878605544,1.6898977912694215,7.960944391903281
1739920581052188200,6.614188232421875,-0.3881307911235839,2.370477085697651,7.597891416478157
1739920581062171000,6.6241708984375,-0.5881213754832745,2.7422844454646107,7.230732174777984
1739920581072153000,6.634153076171875,-0.6697241384148598,3.016768326076865,6.916417219036817
1739920581082135300,6.64413525390625,-0.590305295393616,3.2339740299358963,6.502150773724913
1739920581092117000,6.654116943359375,-0.4196600479837507,3.30980785407722,6.006271044087409
1739920581102100200,6.664100341796875,-0.3595766776166856,3.4304616476759313,5.492414928254485
1739920581112082000,6.67408203125,-0.5159178706683218,3.4953280876010653,5.000300104108453
1739920581122064100,6.684064208984375,-0.8095173706389963,3.4017592848047613,4.6344759104043245
1739920581132046000,6.694046142578125,-1.047248268393427,3.35887495958507,4.522573870798945
1739920581142028000,6.704028076171875,-1.2702490683972836,3.623011049184203,4.646656762063503
1739920581152011300,6.71401123046875,-1.6350995947636664,4.001028661768138,4.84893991433978
1739920581161993000,6.723992919921875,-1.9804934332489965,4.2372067771226165,4.865877605137229
1739920581171975200,6.73397509765625,-2.151958107282966,4.5484535774648185,4.76725239573419
1739920581181958100,6.743958251953125,-2.133758579856157,4.996577868714929,4.581011446720361
1739920581191940000,6.753940185546875,-2.0843080279886723,5.448126873716712,4.2964504087299105
1739920581201922300,6.76392236328125,-2.0714146441459653,5.972012800654769,3.915049875709414
1739920581211904000,6.773904052734375,-2.057040081834793,6.618008272957802,3.5548102041393514
1739920581221886200,6.78388623046875,-2.069879835794121,7.3210922446608535,3.231120686331391
1739920581231869000,6.793868896484375,-2.1662067051269114,8.005437613624334,2.8456337607800957
1739920581241851100,6.80385107421875,-2.191301398894936,8.640513632506131,2.4605238518476487
1739920581251833000,6.8138330078125,-2.1794180688776073,9.187052120757102,2.12562203515172
1739920581261815000,6.82381494140625,-2.234158251585811,9.660825817048549,1.7273884407520292
1739920581271798000,6.833798095703125,-2.2749488193966445,9.960182857632637,1.240419162800908
1739920581281780000,6.843780029296875,-2.2317853849746285,10.234082800877093,0.8030138339638709
1739920581291762200,6.85376220703125,-2.029561853931099,10.532489408868551,0.5404793343424796
1739920581301743900,6.863743896484375,-1.7919572129048407,10.881233872956036,0.4265647858709097
1739920581311727000,6.87372705078125,-1.5697463942348957,11.345538314634561,-0.12724515468776226
1739920581321709000,6.883708984375,-1.3738757393494248,11.790927627962827,-1.3408388544052838
1739920581331691000,6.89369091796875,-1.188170796908438,12.217157482790947,-2.8625387183517215
1739920581341673200,6.903673095703125,-0.9919055897474288,12.575564093714952,-4.287185736778378
1739920581351656200,6.91365625,-0.5550314451776445,12.639112144517897,-5.028416776046156
1739920581361638100,6.92363818359375,-0.0016273089408874511,12.790554751873016,-4.990254510912298
1739920581371620000,6.9336201171875,0.49692529316768047,12.998817563080786,-4.7207776448071
1739920581381602000,6.94360205078125,0.8776910354159771,12.917065162545441,-4.738128592580557
1739920581391585000,6.9535849609375,1.1405287557676433,12.4125841933012,-5.159904390609264
1739920581401567000,6.96356689453125,1.2578323621556162,11.788586033272743,-5.657274066543579
1739920581411549200,6.973549072265625,1.3268413087129591,11.284351732265948,-5.846020860898494
1739920581421531100,6.98353125,1.3298589029684662,10.961102943962812,-5.68336244752407
1739920581431514000,6.99351416015625,1.1344462209835648,10.894876613861321,-5.235826185294986
1739920581441496000,7.00349609375,0.6957385773763061,10.789631109535694,-4.894208212086558
1739920581451478000,7.01347802734375,-0.13510492827743292,10.602065049397945,-4.523993089947104
1739920581461460200,7.023460205078125,-1.0421318021625279,10.623921491897105,-4.02190281523168
1739920581471443200,7.033443115234375,-1.7685566097036003,10.778008476281165,-3.533997717735171
1739920581481425200,7.043425048828125,-2.4393200280383227,10.636616138297319,-3.2494284964382647
1739920581491407000,7.053406982421875,-2.9563337311193347,10.151607931286096,-3.0682582748174667
1739920581501389000,7.06338916015625,-3.2455829269260166,9.68844622990191,-2.534162504032254
1739920581511372000,7.0733720703125,-3.298184928561747,9.31083865942359,-1.4884206946790217
1739920581521354200,7.083354248046875,-3.269128053164482,9.159874190974236,-0.5140653746694326
1739920581531336200,7.093336181640625,-3.2314909809485077,9.055307901084422,0.10111176552176475
1739920581541318100,7.103318115234375,-3.1608745991945266,8.963250379633903,0.26798691980838774
1739920581551301000,7.113301025390625,-3.0803453107133505,9.053105422604084,0.46646600362658497
1739920581561283000,7.123282958984375,-3.015786913824081,9.177821351075172,0.9042202920317649
1739920581571265000,7.13326513671875,-2.9061425900176165,9.19664354044497,1.6702800676077603
1739920581581247000,7.1432470703125,-2.699523162102699,9.187450764685869,2.7117344089001416
1739920581591230200,7.153230224609375,-2.343011425014585,9.134626352471113,3.877399067229032
1739920581601212000,7.1632119140625,-1.988841428747028,8.859826830038427,4.955247494938969
1739920581611194000,7.173194091796875,-1.627779919400066,8.395804712432623,5.928273612171411
1739920581621175800,7.18317578125,-1.3867875356316566,7.762392827370762,6.581219049742818
1739920581631158500,7.193158447265625,-1.440769301187992,6.867243146023154,6.817576905578375
1739920581641140700,7.203140625,-1.604062651465088,5.796590182775259,6.80126699129045
1739920581651122700,7.213122802734375,-1.7127264398016036,4.712576218172908,6.657789079204202
1739920581661104600,7.223104736328125,-1.7270600855804978,3.649342883531749,6.461110322806238
1739920581671087600,7.233087646484375,-1.5490497892953454,2.5708909369707107,6.132188749563694
1739920581681069600,7.243069580078125,-1.2246084302067757,1.6281778326764702,5.7715311448425055
1739920581691051800,7.2530517578125,-0.8965047492183744,0.8165911084175109,5.530168612587452
1739920581701033500,7.263033447265625,-0.6194419580288231,-0.031302023975551124,5.3299634356290095
1739920581711016700,7.2730166015625,-0.377591934517771,-0.7975935624808073,5.178342549097538
1739920581720998700,7.28299853515625,-0.2060499574638903,-1.4829042693451047,4.902441202902794
1739920581730980600,7.292980712890625,-0.055158846511691804,-2.061914409872889,4.567487948280573
1739920581740962800,7.302962890625,0.11048384337052702,-2.453089317932725,4.3697664048314095
1739920581750945800,7.31294580078125,0.1895427670381963,-2.7745833715230224,4.3318502234131095
1739920581760927700,7.322927734375,0.2385270165681839,-3.148027392581105,4.409059135299921
1739920581770909700,7.33290966796875,0.2616248374305665,-3.488821774446964,4.588779158112406
1739920581780891600,7.3428916015625,0.4458415871404111,-3.772369836002588,4.593073640435934
1739920581790874600,7.35287451171875,0.6474046084485948,-4.003077703252434,4.487953223794698
1739920581800856600,7.362856689453125,0.655527270758152,-4.382376295557618,4.397893598163128
1739920581810838800,7.3728388671875,0.5239151530325412,-4.905667763733864,4.503154884579778
1739920581820820700,7.38282080078125,0.41983387018069623,-5.343260139575601,4.755699320584536
1739920581830803700,7.3928037109375,0.4727693415544927,-5.700032427296042,5.107255919483304
1739920581840785700,7.40278564453125,0.7562121891699731,-5.995633914738893,5.525688252303004
1739920581850767600,7.412767578125,1.0350397250097245,-6.357371131390333,6.11873013305366
1739920581860749800,7.422749755859375,1.0381506235718727,-6.733301124045252,6.570840863591433
1739920581870732800,7.43273291015625,0.6713736591875553,-7.098964574229717,6.970956618475913
1739920581880714800,7.44271484375,0.061089551734924315,-7.448417478847503,7.496991832402348
1739920581890696700,7.45269677734375,-0.5431973611295223,-7.738159134346247,8.351006370285154
1739920581900678700,7.4626787109375,-0.9990380719758569,-7.880335316184163,9.34948257059455
1739920581910661600,7.47266162109375,-1.334690414778143,-7.842918900981545,9.991218631887435
1739920581920643800,7.482643798828125,-1.5089561177074908,-7.854804569086432,10.21452703653574
1739920581930625800,7.492625732421875,-1.2943814930044113,-7.848004241421818,10.288816261583566
1739920581940607700,7.502607666015625,-0.7040075162887572,-7.725155275866388,10.29709075345397
1739920581950590700,7.5125908203125,0.21801029824018478,-7.357057876533269,10.350139622074366
1739920581960572700,7.52257275390625,1.2698457482933998,-6.915577261081338,10.240602558034658
1739920581970554600,7.5325546875,2.1928609032966193,-6.600483722183108,10.082029952669144
1739920581980536600,7.54253662109375,2.985902647691965,-6.1668099810898305,9.963577760767937
1739920581990519800,7.552519775390625,3.434190020549297,-5.733267172899842,9.505538809224962
1739920582000501800,7.562501708984375,3.3538077393233774,-5.739971054452657,8.721491541537642
1739920582010483700,7.572483642578125,3.0066613580822943,-6.130061674407124,7.68792883027792
1739920582020465700,7.582465576171875,2.512808165836334,-6.6422624242484565,6.900341698026657
1739920582030448600,7.59244873046875,2.0484698218882085,-6.977225031220913,6.525526973137259
1739920582040430800,7.602430908203125,1.4358265840888023,-7.1574290381580585,6.402579807904362
1739920582050412500,7.61241259765625,0.7141302663743495,-7.246707742545008,6.2399810157626865
1739920582060394800,7.622394775390625,0.11294007741622626,-7.1463295519948,6.0543321874231095
1739920582070377700,7.632377685546875,-0.2634311562001705,-6.673125764545798,5.887938094651699
1739920582080359700,7.642359619140625,-0.37855383835248646,-5.750919149446487,5.85897328145206
1739920582090342000,7.652341796875,-0.36228199105262754,-4.627409040758013,6.0482414693325754
1739920582100323600,7.662323486328125,-0.5052257962621748,-3.4384938552230593,6.4660851886093615
1739920582110306800,7.672306884765625,-0.6506734009861945,-2.3007418706923723,6.997797863650321
1739920582120288500,7.68228857421875,-0.7916051357209682,-1.249216217240691,7.56951813943088
1739920582130270700,7.692270751953125,-0.9546259526669979,-0.46177872259318825,7.959407099333405
1739920582140252700,7.702252685546875,-1.1215140395004302,0.10418693518340587,8.27376530969441
1739920582150235600,7.712235595703125,-1.2032229662202298,0.5633136819630861,8.593231072327495
1739920582160217900,7.7222177734375,-1.280342446257919,0.8505436469018459,8.821088810843229
1739920582170199600,7.732199462890625,-1.4565443779468537,0.9996592726141214,8.844251659765838
1739920582180181800,7.742181640625,-1.7335316196821628,1.0310136112987995,8.703487682813405
1739920582190164700,7.752164794921875,-1.9737654401682316,0.9300964915663004,8.461879651364683
1739920582200146700,7.762146728515625,-1.9346552266597747,0.7664327005416154,8.231529511511326
1739920582210129000,7.77212890625,-1.5462307863518594,0.8749301924005151,7.9276079394906755
1739920582220110600,7.782110595703125,-0.9647488488830626,1.1141410995796321,7.507501535978913
1739920582230093800,7.79209375,-0.45834129549041386,1.295248777358234,6.987269455373287
1739920582240075800,7.80207568359375,-0.23700024539232253,1.6471251097306607,6.552683860132098
1739920582250057700,7.8120576171875,-0.36640024002641436,2.082420899067819,6.3484513273537155
1739920582260040700,7.822040771484375,-0.7887699122950435,2.5447189693599936,6.322189927893876
1739920582270022700,7.832022705078125,-1.1649676159754394,3.1849460873946547,6.276319572600722
1739920582280004900,7.8420048828125,-1.358403152668476,3.9530192486196754,6.053414488056302
1739920582289986600,7.851986572265625,-1.3031868768811226,4.732290387946367,5.7576522570937865
1739920582299969800,7.8619697265625,-1.0540297452270984,5.5885489053636785,5.371648029670119
1739920582309951700,7.87195166015625,-0.6757268859609961,6.503260196271539,4.983285840943456
1739920582319933700,7.88193359375,-0.10194193273559211,7.390825121578573,4.813672201603651
1739920582329916700,7.891916748046875,0.6257542099155485,8.306911792492865,4.6991176016628735
1739920582339899000,7.90189892578125,1.2881060659967363,9.238650206047296,4.592737540349364
1739920582349880600,7.911880615234375,1.7440134123384952,10.071623124945162,4.474623202100396
1739920582359862800,7.92186279296875,1.987865423321724,10.869169341152906,4.251543930032849
1739920582369845500,7.931845458984375,2.0576703425623477,11.52672607191205,3.865004280558228
1739920582379827700,7.94182763671875,1.8502303920447825,12.043340546542405,3.4441654711186884
1739920582389809700,7.9518095703125,1.4197241750717162,12.480180642712115,3.124688602569699
1739920582399791600,7.96179150390625,1.1041501591801643,12.945316274517774,2.8276445151031018
1739920582409774800,7.97177490234375,1.0042086795467884,13.420093010371923,2.280461883729696
1739920582419756500,7.981756591796875,0.9275789557874202,13.681803334128857,1.5248124430090189
1739920582429738800,7.99173876953125,0.830287625336647,13.816069181233644,0.709329003572464
1739920582439720700,8.001720703125,0.7041039624005556,13.923042532265185,-0.013140636602044104
1739920582449703700,8.01170361328125,0.6474860031217337,13.945606246250867,-0.6740221278697252
1739920582459686000,8.021685791015624,0.5767068685540929,13.878810591828822,-1.2790537216216324
1739920582469667600,8.03166748046875,0.4345909290034324,13.815516223526,-1.8137527189970015
1739920582479650800,8.04165087890625,0.39945122656114396,13.635149134981631,-2.386008416828513
1739920582489632500,8.051632568359375,0.375799132816866,13.439797243273258,-2.8316707018792626
1739920582499614700,8.06161474609375,0.4669529834259301,13.35032798475027,-3.2186054881513115
1739920582509597000,8.071596923828125,0.571512112922594,13.301387135970591,-3.5738889986187217
1739920582519579600,8.08157958984375,0.6540881778657436,13.370039231914282,-3.804441967567801
1739920582529561900,8.091561767578124,0.9806816004216671,13.448359319913386,-4.174514466366172
1739920582539543600,8.10154345703125,1.3541741367965936,13.400606219613552,-4.520477775302529
1739920582549525800,8.11152587890625,1.675315285295993,13.38608201969862,-4.7331320994675155
1739920582559508700,8.1215087890625,1.8668875123351811,13.3577677793622,-4.77711970975399
1739920582569490700,8.13149072265625,1.7394360214203595,13.01790804799795,-4.755816224962473
1739920582579473000,8.141472900390625,1.3211620940327644,12.363804672563075,-4.491286167609691
1739920582589454600,8.15145458984375,0.8266343635261059,11.627951234680413,-3.7949282892912626
1739920582599437800,8.161437744140626,0.5214694769134745,10.914564480149746,-2.920726118904352
1739920582609419800,8.171419677734375,0.5075245381912217,10.511835912418364,-2.300967496141791
1739920582619402200,8.18140234375,0.685695614528656,10.335094028633833,-1.9041396768867969
1739920582629384000,8.191384033203125,0.9677525607436894,10.247468352150916,-1.7606155875712632
1739920582639367200,8.2013671875,1.3287339905917643,10.207821401417254,-1.52011054892838
1739920582649349000,8.21134912109375,1.729132654070854,10.33905357991457,-1.2343570862829685
1739920582659331000,8.2213310546875,2.093345905447006,10.680710131567716,-0.8517594524323939
1739920582669313300,8.231313232421876,2.3832453818559647,10.895754565739631,-0.2669283506661653
1739920582679295000,8.241294921875,2.5471184317171573,11.0205792152822,0.3959942910403013
1739920582689277200,8.251277099609375,2.579569917988777,11.093063436734676,1.3841262074679135
1739920582699260200,8.26126025390625,2.393089899522066,11.053619899618624,2.7055811469674107
1739920582709242000,8.2712421875,2.066083804512024,10.939348208272456,4.14145040115416
1739920582719224300,8.281224365234374,1.7316741552472112,10.663244617503882,5.557546448856592
1739920582729206000,8.2912060546875,1.3668109155297279,10.111332034999132,6.7718193630099295
1739920582739189200,8.301189208984376,0.970118120831251,9.428554353743792,7.560000369501114
1739920582749171000,8.3111708984375,0.5973766220193356,8.709383755114674,7.9509385461956255
1739920582759153200,8.321153076171875,0.19746778788380323,7.935909319368005,8.24992850703299
1739920582769135400,8.33113525390625,-0.2796482045728713,7.323473002317547,8.429794660317897
1739920582779118000,8.3411181640625,-0.8398258535325527,6.803938840848207,8.551139066529274
1739920582789100300,8.351100341796876,-1.4224807803034782,6.230135329052805,8.664561447569728
1739920582799082000,8.36108203125,-2.08711022592783,5.597390967988968,8.871597347331047
1739920582809064200,8.371064208984375,-2.8556396064877507,4.750282263971865,9.313366132074593
1739920582819047200,8.381047119140625,-3.5642379576981065,3.761263335576653,9.836212779092788
1739920582829029000,8.391029052734375,-4.123998331093788,2.668107448619604,10.255639968168735
1739920582839011000,8.401010986328124,-4.422065916389227,1.413849730080366,10.79676227658987
1739920582848993000,8.410992919921876,-4.324234487712383,0.05510317080169916,11.01791262642145
1739920582858976000,8.42097607421875,-3.9643186412692066,-1.1624164701879023,10.77059673871994
1739920582868958200,8.430958251953125,-3.5066406319931147,-2.20977097543478,10.341503895676135
1739920582878940200,8.440940185546875,-3.061064563921094,-3.246058143222332,9.979195016616583
1739920582888922000,8.450922119140625,-2.696313260145485,-4.14152580447793,9.80696797990799
1739920582898905000,8.460905029296875,-2.5402459155991672,-4.902749245938659,10.342309366840123
1739920582908887000,8.470886962890624,-2.3063898134514687,-5.596076962780952,11.441429130637646
1739920582918869000,8.480868896484376,-2.2421172477662563,-5.933088318976759,11.785742918801308
1739920582928851200,8.490851318359375,-2.40318196220845,-6.0702919730991125,11.239820516622066
1739920582938834200,8.500834228515625,-2.7304233272790905,-6.224675894603132,9.862241538840532
1739920582948816100,8.510816162109375,-3.3831139133065937,-6.477884931996464,8.410749183586239
1739920582958798000,8.520798095703125,-4.131442801880836,-6.585078063258528,7.540486690735817
1739920582968781300,8.53078125,-4.746662612169981,-6.588624357563257,7.41101041599512
1739920582978763000,8.540762939453124,-5.08641245341897,-6.60212096799612,7.774058715245127
1739920582988745200,8.5507451171875,-5.497613081419468,-6.544774109920859,8.04919784489572
1739920582998727200,8.56072705078125,-5.865652613085508,-6.621772009405493,8.239611111158132
1739920583008710100,8.570710205078125,-6.092858609694242,-6.4763961547434326,8.289334634748101
1739920583018692000,8.580692138671875,-6.806389156609773,-6.569694616165757,8.08121795401275
1739920583028674000,8.590674072265625,-7.711468695819377,-7.511242476072907,7.963249161714315
1739920583038656300,8.60065625,-8.446079440164565,-8.51410668220818,8.304882332491875
1739920583048639000,8.610638916015626,-8.733491775932908,-9.350138404154777,9.46031610418558
1739920583058621200,8.62062109375,-8.581261233070492,-10.030477460086345,11.523458594548702
1739920583068603100,8.63060302734375,-8.334677751296757,-10.82567039116621,14.673451734244823
1739920583078585000,8.640585205078125,-7.865637513267994,-11.39203469287157,17.523947548103333
1739920583088568300,8.650568359375,-7.1912371997356415,-11.756963399040698,18.902202233189342
1739920583098550000,8.660550048828124,-6.205429926863312,-11.6681862144351,18.521400250583888
1739920583108532200,8.6705322265625,-4.941638071781396,-10.933388423085212,16.614674648857115
1739920583118514200,8.68051416015625,-3.6659964966908096,-9.534891744959355,13.84276195784807
1739920583128497200,8.6904970703125,-2.664289351636171,-8.066992444783448,11.020615455639362
1739920583138479400,8.700479248046875,-2.302413018774986,-6.8091364094913,8.82479877127707
1739920583148461000,8.7104609375,-2.4207398307308554,-5.872388058820366,7.753993832337856
1739920583158443300,8.720443359375,-2.497199970076978,-4.982585583719611,8.076941591867804
1739920583168426000,8.730426025390624,-2.030986918298155,-3.6778415405243634,9.430215564954281
1739920583178408200,8.740408203125,-1.093022031444311,-1.9557535442680118,10.42733859708905
1739920583188390100,8.75039013671875,-0.10528393663987516,-0.3132160545885563,10.533914473235606
1739920583198372000,8.7603720703125,0.5967348900496959,1.0324924516797065,9.703189041003585
1739920583208355000,8.77035498046875,0.7528055955968797,1.9827052640795706,8.551800745308398
1739920583218337000,8.7803369140625,0.3297977715551853,2.5266163264364003,7.5853522529006
1739920583228319200,8.7903193359375,-0.5464731679297984,2.915765281626582,7.174577156835794
1739920583238302200,8.80030224609375,-1.5191526636816561,3.38011765410006,7.506736981347203
1739920583248284200,8.8102841796875,-2.3861565931275486,3.7482711675345897,8.694890534859896
1739920583258266000,8.82026611328125,-2.641406488698721,4.4168826685324305,9.998214189863205
1739920583268248000,8.830248046875,-2.1803416134633125,5.129382995617389,10.025596702307462
1739920583278231000,8.84023095703125,-1.2901356721282005,5.431396688190103,8.979999269860983
1739920583288213000,8.850212890625,-0.545539028884843,5.195937827020884,7.215420623877644
1739920583298195200,8.8601953125,-0.028308395117521284,4.7831291793018575,5.531584324604273
1739920583308177200,8.87017724609375,0.5004336666148156,4.472855023384094,4.4550376271426675
1739920583318160100,8.88016015625,0.6553589284539222,4.360830234181881,3.945890419653058
1739920583328142000,8.89014208984375,0.09602291795015334,4.384286513093113,3.934993178063631
1739920583338124000,8.9001240234375,-0.8140681658111513,4.5120469238266345,4.105305321061611
1739920583348106200,8.910106201171875,-1.7340682107768952,4.754983573530614,4.3540854360967876
1739920583358089200,8.920089111328124,-2.550597506004572,5.166791227513551,4.990652570319176
1739920583368071200,8.9300712890625,-2.9515538033664224,5.738317442026734,5.435193742385506
1739920583378053000,8.94005322265625,-3.0272669237375256,6.377171225881576,5.3132162989676
1739920583388035000,8.95003515625,-2.6456442723989486,6.877755772209167,4.8289241312712425
1739920583398018000,8.96001806640625,-2.101698577120155,7.265110245198011,4.251812810102105
1739920583408000300,8.970000244140625,-1.8036159403860568,7.835600686922669,3.9086762490242717
1739920583417982200,8.979982177734374,-1.8286521819651125,8.714605873677135,3.39817119718492
1739920583427965200,8.989965087890624,-2.1733540926635264,9.360528280743956,2.7483611350297927
1739920583437947100,8.999947021484376,-2.6286580662846566,9.63188029307127,3.3106717774301764
1739920583447929000,9.00992919921875,-4.319207599461079,10.555134955918788,6.141847973790765
1739920583457911000,9.0199111328125,-3.491939614206552,11.523690065217018,5.414643706309795
1739920583467894000,9.02989404296875,-1.1706116132117808,11.119186889028548,3.209014652985334
1739920583477876200,9.039876220703125,-1.4099498000323771,12.225829449546337,2.078469238832593
1739920583487858200,9.049858154296874,-1.2523882714055479,13.131195404481886,0.7859393650442361
1739920583497840000,9.059840087890626,-0.5979400280557573,13.149031505423784,-1.0668939029753208
1739920583507823000,9.069822998046876,0.07634878792613745,13.077594747197628,-2.8659336214870215
1739920583517805000,9.07980517578125,0.540673541740328,13.265887952566146,-4.206575492015481
1739920583527787300,9.089787353515625,1.0368274121440946,13.423610663104057,-4.9492882942736145
1739920583537769000,9.09976904296875,1.4355438216246663,13.440316298711299,-4.838773909634352
1739920583547752200,9.109752197265625,1.6552525943458078,13.207703474622964,-4.817238954174519
1739920583557734000,9.11973388671875,1.3480536080896854,12.593256402271985,-5.00688825032711
1739920583567716000,9.129716064453126,0.9301087665259837,11.92143383027315,-5.007012168967724
1739920583577698300,9.1396982421875,0.49802550949454305,11.546979755389689,-4.954394092980027
1739920583587681000,9.149680908203125,-0.013631041334336623,11.278559120339155,-5.029664145758748
1739920583597663200,9.159663330078125,-0.5855243447273969,11.107931335520744,-4.7746927748680115
1739920583607645000,9.16964501953125,-0.8965255728106946,11.150333722442388,-4.203509090182185
1739920583617628700,9.179628662109375,-1.0731231527537106,11.388358050185442,-3.5942297758579254
1739920583627610400,9.1896103515625,-0.8156454250652343,11.575675103998183,-3.104352501505613
1739920583637592600,9.199592529296876,-0.5309866988539695,11.465516108667849,-2.8283073629260063
1739920583647574500,9.209574462890625,-0.9591471564184874,10.849822835648059,-2.1149866593688724
1739920583657557500,9.2195576171875,-1.1980973668348043,10.293638567173481,-0.9874632233858108
1739920583667539700,9.229539794921875,-1.024290294393152,9.864700037908554,0.3147118461042642
1739920583677521400,9.239521484375,-0.5918378387231379,8.647704420793056,0.8868278432041407
1739920583687503600,9.249503662109374,-0.06255319454669953,7.65504888946116,1.6196990504056215
1739920583697486300,9.259486328125,0.8760082699608057,6.928063817688822,2.2753233517974616
1739920583707468500,9.269468505859376,2.0275591358065603,6.293557707649469,2.9116894104897972
1739920583717450500,9.279450439453125,2.8125141659885644,5.644610984325409,2.866426373440027
1739920583727432400,9.289432373046875,3.197760268521309,5.255774163824319,2.851420527487993
1739920583737415700,9.299415771484375,3.3247657692342996,5.1980684093087905,3.2125843281656503
1739920583747397400,9.3093974609375,3.3567303487718103,4.581961002530157,4.034195310571789
1739920583757379600,9.319379638671874,3.1390339387863873,4.15274307180196,4.407811765587329
1739920583767361300,9.329361328125,2.7093191644519568,3.7799899556174874,4.397992966884375
1739920583777344500,9.339344482421875,2.171577730640769,3.564567920304835,4.496919205060601
1739920583787326500,9.349326416015625,1.3083758238263428,3.4792698099866506,5.0171822653263805
1739920583797308400,9.359308349609375,0.28921368610188364,3.1773990330159663,5.48725769162178
1739920583807291400,9.36929150390625,-0.44008667687550185,2.8508821828275916,5.853096498373151
1739920583817273600,9.379273681640624,0.13257497140839694,3.018603140288591,5.8039323622316115
1739920583827255600,9.389255615234376,0.6515189118996262,3.0698075500860806,5.358603839179873
1739920583837237500,9.399237548828125,0.2303098078429699,2.6258722349584103,4.872277535307407
1739920583847220500,9.409220458984375,-0.31908991505801676,2.3909616553217172,3.8268928688287733
1739920583857202400,9.419202392578125,-0.6439768259570002,2.2591659977227447,2.833008087962866
1739920583867184400,9.429184326171875,-0.6765116065979003,2.1276626010686157,1.8942635950386524
1739920583877166600,9.43916650390625,-0.6746060652375221,1.9106087267704306,1.1140642349511385
1739920583887149600,9.449149658203124,-0.8905524166852236,1.4396458501160143,0.6120446873843669
1739920583897131500,9.459131591796876,-1.0042582908421753,1.1523558255530892,0.2749076589822769
1739920583907113500,9.469113525390625,-0.8343471298605203,1.543234527145326,-0.39119828893542286
1739920583917095400,9.479095458984375,-0.628139497616887,1.4527588680587709,-0.7609282579064369
1739920583927078400,9.489078369140625,-0.4223071284264326,-0.265318065925315,0.08656827638447284
1739920583937060600,9.499060546875,-1.0046458288550377,-0.5268421098625287,-0.3524509173899889
1739920583947042600,9.50904248046875,-1.43641841250211,-0.3875777238180861,-0.7104501165568828
1739920583957024500,9.5190244140625,-1.4002356307476758,-0.6960515888482331,-0.5805336968332528
1739920583967007500,9.529007568359376,-1.3748942687422037,-0.7680020687501877,-0.6600877105414867
1739920583976989400,9.538989501953125,-1.5451944290414452,-0.7879265933386981,-0.3735732003957033
1739920583986971600,9.5489716796875,-1.9453364874109624,-0.9157080468602478,-0.16179215193390845
1739920583996954400,9.558954345703125,-2.421891631114483,-1.2056933018565177,-0.40837388014197346
1739920584006936600,9.5689365234375,-2.8622651621073483,-1.784928191050887,-0.5342576833486556
1739920584016918500,9.57891845703125,-3.4411256650313735,-2.561023915211856,0.22901392281353472
1739920584026900500,9.588900390625,-5.317679123595356,-3.1408199454203247,2.279179442703724
1739920584036883700,9.5988837890625,-5.557510793021321,-3.514954286830127,3.335886298185587
1739920584046865400,9.608865478515625,-5.734945919767021,-3.7125957507804035,3.2534406546890735
1739920584056847600,9.61884765625,-5.672517812904715,-4.05201358359605,2.5457038887441157
1739920584066829600,9.62882958984375,-5.45409893386364,-4.739830720323324,2.20909994430542
1739920584076812500,9.6388125,-5.689513371369243,-5.0209401565551754,2.0164397758990527
1739920584086794500,9.64879443359375,-6.126557465678453,-5.112276377993822,1.7816408399432897
1739920584096776400,9.6587763671875,-6.4612640520632265,-5.161995809930563,2.247315400931239
1739920584106758700,9.668758544921875,-7.4928721221238375,-5.232840447482467,3.0871558675110338
1739920584116741400,9.678741455078125,-8.703132878026366,-5.51903697772026,3.6684208012282844
1739920584126723600,9.6887236328125,-9.183505826452373,-5.925061079865694,3.9042262838780877
1739920584136705300,9.698705322265624,-9.68273895817101,-6.26746523501575,3.9817987683802842
1739920584146688500,9.7086884765625,-10.154188010907173,-6.4849103005886075,4.031615815472603
1739920584156670500,9.71867041015625,-10.631602109527588,-6.8932812581211325,3.764693310025334
1739920584166652400,9.72865234375,-11.081145035403967,-7.447198166185617,3.756835582262277
1739920584176634600,9.738634521484375,-10.972210028910636,-7.373057994219661,3.915969328641891
1739920584186617600,9.74861767578125,-10.674073470032214,-7.13180067590475,4.173988981187343
1739920584196599600,9.758599609375,-10.5871901363492,-7.6337448201477525,4.022555141660571
1739920584206581500,9.76858154296875,-10.600110408198832,-8.517652976512908,3.570876372799277
1739920584216563500,9.7785634765625,-10.35695514730811,-9.01071940229535,3.2242280042082068
1739920584226546400,9.78854638671875,-10.331134477353096,-9.398896882104873,3.1930566208750006
1739920584236528400,9.7985283203125,-10.447816736972332,-9.542762332203983,3.6675685683131216
1739920584246510600,9.808510498046875,-10.647082587254047,-9.12603388069272,4.37836238374114
1739920584256492500,9.818492431640625,-10.335409670454263,-8.037423820471764,4.925117729613184
1739920584266475500,9.8284755859375,-10.034980616724491,-6.778301710766553,5.90943856332004
1739920584276457500,9.83845751953125,-9.867835413324832,-5.507887222674489,7.0187950589716435
1739920584286439400,9.848439453125,-9.678632691895961,-4.281399554592371,9.029483139476179
1739920584296422400,9.85842236328125,-9.246282308360934,-2.3124910529360174,9.744460962590574
1739920584306404600,9.868404541015625,-8.168256185996531,0.021914310166239737,9.866758724004029
1739920584316386600,9.878386474609375,-7.409630359813571,0.48490240854918953,9.575532967427373
1739920584326368500,9.888368408203124,-6.918387057805061,1.553171399269998,8.245950251051783
1739920584336351500,9.8983515625,-6.14875585348308,2.4115748197615146,8.070176920038461
1739920584346333400,9.90833349609375,-5.78446427617371,2.603201845727861,8.086967895841598
1739920584356315600,9.918315673828126,-5.453683923321962,2.7605475396469235,8.068920782497525
1739920584366297600,9.928297607421875,-4.785153086344898,2.6973350044086573,7.947772191119194
1739920584376280600,9.938280517578125,-3.491993974742293,2.686623056258261,7.3918182242691515
1739920584386262500,9.948262451171875,-1.7382774990350007,2.7077573219627142,6.272690860709548
1739920584396244500,9.958244384765624,-0.11061492240428925,2.6807494880497456,5.054273101836443
1739920584406227700,9.968227783203124,0.7839131199136375,2.6655942967548967,4.141881778308749
1739920584416209400,9.97820947265625,0.6401631128877401,2.7835110666051506,3.8489310976356266
1739920584426191600,9.988191650390625,0.1078325982093811,3.130936557048559,4.317783119615912
1739920584436173300,9.99817333984375,-0.3990010716408491,3.5780987252682444,4.845491819712519
1739920584446156500,10.008156494140625,-0.6301116744726896,4.1336397274032235,5.000394796654581
1739920584456138500,10.018138427734375,-0.6955214274942875,4.599690428227186,4.4786838756680485
1739920584466120400,10.028120361328124,-0.26867490207254885,5.2170869980335235,3.8211896887511014
1739920584476102700,10.0381025390625,0.34068332270681856,5.946717031356692,3.2518466634958982
1739920584486085400,10.04808544921875,0.5635206027120352,6.542479861503839,2.872387327671051
1739920584496067600,10.058067626953125,0.4009466527506709,6.9650260593831534,2.6121938382178542
1739920584506049300,10.06804931640625,0.06622633010149001,7.255718731996416,2.768127327251434
1739920584516031500,10.078031494140625,-0.2997469166845083,7.789212445235252,3.1505688937574625
1739920584526014500,10.088014404296874,-0.36896541433930397,8.205566218215226,3.133573919814825
1739920584535996400,10.097996337890624,-0.014039046746492385,8.514358026620744,2.9347143122464416
1739920584545978600,10.107978515625,0.5816074635446071,8.91941006886363,2.648795429906249
1739920584555961600,10.117961669921876,1.135352229912579,9.277188903278113,2.1193483617097137
1739920584565943600,10.127943603515625,1.3024869119182227,9.387702118873596,1.5655337449759243
1739920584575925500,10.137925537109375,1.0877334235168994,9.408371397414802,1.6317694274276493
1739920584585907500,10.147907470703124,0.8044666631206869,9.713748428940772,2.2369623492211104
1739920584595890400,10.157890380859374,0.6513008852347731,10.211576370036601,2.3117338048279286
1739920584605872400,10.167872314453126,0.6774880504146218,10.639044242227078,1.9248475338727236
1739920584615854600,10.1778544921875,0.7470863411672413,10.975795486181974,1.4204606726527214
1739920584625836500,10.18783642578125,0.9572183072477578,11.282310581827163,0.7389841371238232
1739920584635819800,10.19781982421875,1.2116355513870716,11.705642377126216,0.350507382106781
1739920584645801500,10.207801513671875,1.5704478205025194,12.13078151410818,-0.14430617960393427
1739920584655783700,10.21778369140625,1.8125684776484965,12.470094132983684,-0.5995283201605082
1739920584665765600,10.227765625,2.16629233758375,12.73940908652544,-0.9692115273803472
1739920584675748600,10.23774853515625,2.397498363614082,12.923044821476935,-1.164384555390477
1739920584685730800,10.247730712890625,2.461395958507061,13.025672836780547,-1.2006167292445897
1739920584695712500,10.25771240234375,2.387685410130024,13.049328437656163,-1.1852519868522882
1739920584705695700,10.26769580078125,2.336855971124768,13.106446747672557,-1.2587643823087216
1739920584715677400,10.277677490234375,2.4353153224416078,13.100533724236488,-1.4457751466512678
1739920584725659600,10.28765966796875,2.473530632936954,12.884253610789775,-1.6618717202246187
1739920584735641600,10.2976416015625,2.4168660580374297,12.59391925009489,-1.691946540492773
1739920584745624600,10.30762451171875,2.2030649019248782,12.181883924835919,-1.5923586235374212
1739920584755606500,10.3176064453125,1.7785254844017326,11.667394771796465,-1.4319319147378204
1739920584765588500,10.32758837890625,1.2978202352814376,11.081832433146237,-1.189976677286625
1739920584775571700,10.33757177734375,0.9912386502712964,10.482841288602351,-0.8959107288479804
1739920584785553700,10.3475537109375,0.9602712650775909,10.249537559640407,-0.31044717439711095
1739920584795535600,10.35753564453125,1.176765386601165,10.226657034790515,0.1514636501431465
1739920584805517600,10.367517578125,1.5175887753657995,10.121229159635305,0.45788872941732406
1739920584815500500,10.37750048828125,1.9372374982379377,10.04135891958475,0.9625169981777667
1739920584825482500,10.387482421875,2.2424878346443173,10.058097288417816,1.52829794703722
1739920584835464400,10.39746435546875,2.285945283576846,10.140860911822319,2.2930261817485094
1739920584845446700,10.40744677734375,2.133736368024349,10.136619620990752,3.089943452402949
1739920584855429600,10.4174296875,1.8667016343742608,10.067703321152925,3.7631606936305757
1739920584865411600,10.42741162109375,1.4302958379685877,9.902890360093116,4.414176624444127
1739920584875393500,10.4373935546875,0.8754887030661106,9.854835646498202,5.367426612582802
1739920584885375500,10.44737548828125,0.08063654824793338,9.569951952424645,6.2314528413921595
1739920584895358500,10.4573583984375,-0.7641467084962874,9.06523542085886,6.795546275556087
1739920584905340700,10.467340576171875,-1.3773153584092854,8.590230721467734,7.034424589779973
1739920584915322600,10.477322509765624,-1.7262098984919487,7.9732666978597635,6.9198232280880205
1739920584925305600,10.4873056640625,-1.9377830032914876,7.2947361526548855,6.751407274100184
1739920584935287600,10.49728759765625,-2.027668441399932,6.691890670770406,6.728529087337851
1739920584945269500,10.50726953125,-2.1051807201474904,6.13219459478259,6.56913055254221
1739920584955251700,10.517251708984375,-2.1741700852215287,5.621838011503219,6.423849390426278
1739920584965234400,10.527234375,-2.3322172054082153,5.1624190037786954,6.313145036172866
1739920584975216600,10.537216552734375,-2.616540342989564,4.622143083053827,6.145871822479367
1739920584985198600,10.547198486328124,-3.053725307074189,3.983645565290749,6.350034797152876
1739920584995180500,10.5571806640625,-3.382781320351362,3.357987363095581,6.7701435387521975
1739920585005163800,10.567163818359376,-3.4834178695768117,2.573781105454266,7.063775771948695
1739920585015145500,10.5771455078125,-3.369385247683525,1.7313462384670972,7.301739309415221
1739920585025127700,10.587127685546875,-3.281784121119976,0.998896325417608,7.433569453805685
1739920585035110400,10.5971103515625,-3.392736897176504,0.11763473803848028,7.403972772443294
1739920585045092600,10.607092529296875,-3.6320892586529254,-0.7901558136954903,7.372309221678972
1739920585055074800,10.61707470703125,-3.9108360574066636,-1.6797639352679252,7.459511704313755
1739920585065056500,10.627056396484376,-4.109693911409378,-2.704499196949601,7.827704965236783
1739920585075039700,10.637039794921876,-4.051291991323232,-3.8580756503388285,8.453614511844515
1739920585085021400,10.647021484375,-3.8010336204290387,-4.803048223997652,8.662755859452485
1739920585095003600,10.657003662109375,-3.4614334167838097,-5.620671890333295,8.523644325882197
1739920585104985600,10.666985595703125,-3.163790194380283,-6.438792108014225,8.383231062063574
1739920585114968600,10.676968505859374,-3.069441347122192,-7.07053459855914,8.412971535810827
1739920585124950500,10.686950439453126,-3.1851649908423423,-7.576003994318842,8.589400700384378
1739920585134932500,10.696932373046875,-3.3292391152560707,-8.166445921704172,9.00542071136534
1739920585144915500,10.70691552734375,-3.3797347922623158,-8.574518773072958,9.44202290712595
1739920585154897700,10.716897705078125,-3.5325966187655924,-8.790437651991844,9.702985042864084
1739920585164879600,10.726879638671875,-3.900391820281744,-8.960156505271792,9.630511927327513
1739920585174861600,10.736861572265624,-4.358625709874928,-9.175422473239898,9.33953693064153
1739920585184844500,10.746844482421874,-4.685962644274532,-9.385811775082349,8.966625409024953
1739920585194826500,10.756826416015626,-4.933112235498428,-9.61535410568416,8.839300759360194
1739920585204808400,10.766808349609375,-4.917639941078424,-9.83128525956273,9.097931821802257
1739920585214790700,10.776790771484375,-4.4167011744856834,-9.861136792469024,9.569878302666543
1739920585224773600,10.786773681640625,-4.342649265325069,-9.952637849080562,9.734699447032808
1739920585234755600,10.796755615234375,-5.08585248144865,-10.12291375172138,9.788788764616847
1739920585244737500,10.806737548828124,-5.790366193693876,-10.925855104970932,9.373393023014067
1739920585254720800,10.816720703125,-5.963065524089336,-12.134966690838336,9.150973676159978
1739920585264702500,10.826702392578126,-5.683477013814449,-13.395728968966006,9.857454304563998
1739920585274684700,10.8366845703125,-4.951411277776956,-14.513895963060856,10.948010822677611
1739920585284666600,10.84666650390625,-4.0651568505465985,-15.273997707015274,12.121581139564514
1739920585294649600,10.856649658203125,-3.1911645235180854,-15.329049147629737,12.922855436384678
1739920585304631600,10.866631591796875,-2.4192646436117586,-14.793016855823993,12.852071004587412
1739920585314613500,10.876613525390624,-2.0559901343904436,-13.347678931546211,12.371163803154229
1739920585324595700,10.886595703125,-2.0416250705599785,-11.396856998461484,12.057236969947814
1739920585334578400,10.896578369140625,-2.188054818189144,-9.460476847705245,11.766329777801037
1739920585344560600,10.906560546875,-2.2787375441551205,-7.714071571794152,11.410960342615843
1739920585354542600,10.91654248046875,-2.623794844162464,-6.151465696963667,11.15790094282627
1739920585364525600,10.926525634765625,-3.0431062979042527,-4.650849537578225,11.386880378848314
1739920585374507800,10.9365078125,-3.22250658724308,-2.9702637645334002,12.147702253770827
1739920585384489500,10.946489501953126,-3.26366744967103,-1.2747925570458174,12.700340812462567
1739920585394471700,10.9564716796875,-3.3783342778146266,0.23709376889467237,12.70154726564288
1739920585404454400,10.966454345703125,-3.5660710183441635,1.3816609863981604,11.954796001648901
1739920585414436600,10.9764365234375,-3.5521675806760786,2.1362956971183418,10.86516770429611
1739920585424418600,10.98641845703125,-3.6127521054983136,2.7575746613159775,9.911775092816352
1739920585434400500,10.996400390625,-3.597809387910366,3.1344848971799015,8.856425497162341
1739920585444383700,11.0063837890625,-3.1021921086013315,3.355193640723824,7.844516399306058
1739920585454365400,11.016365478515626,-2.258309673154354,3.5151059702605005,7.009708081674575
1739920585464347600,11.02634765625,-1.411328102648258,3.640810617507994,6.261034909707307
1739920585474330600,11.03633056640625,-0.8102911314904689,3.8541099615782497,5.699710355734825
1739920585484312600,11.0463125,-0.5653612986752763,4.032900886847078,5.307735237208009
1739920585494294500,11.05629443359375,-0.629713615065813,4.233276744197309,5.131029593780636
1739920585504276500,11.0662763671875,-0.9358896880149841,4.611507999531924,5.1710488849580285
1739920585514259500,11.076259521484374,-1.1322726763367652,5.085253346511721,5.26243011458218
1739920585524241700,11.08624169921875,-1.2992051137685774,5.639899737894535,5.288641245159506
1739920585534223600,11.0962236328125,-1.3563152404785155,6.250341666257381,5.2586897590100765
1739920585544206600,11.10620654296875,-1.340142688834667,6.8070110879004,5.136904038771987
1739920585554188500,11.1161884765625,-1.3110603867352009,7.433171978920698,4.992263512647152
1739920585564170500,11.12617041015625,-1.285267919961363,8.07851629383862,4.886700028413534
1739920585574152400,11.13615234375,-1.3696563680887222,8.64723212710619,4.733954521766305
1739920585584135400,11.146135498046876,-1.4973101035773753,9.231226193526387,4.570064520770311
1739920585594117600,11.15611767578125,-1.730447828322649,9.75511855020523,4.417376297268271
1739920585604099600,11.166099609375,-1.9813398209452628,10.203324089998006,4.287255879405141
1739920585614081000,11.1760810546875,-2.2593547982931135,10.589266358101368,4.2119992706298826
1739920585624064000,11.18606396484375,-2.2897581198632717,11.004297942566872,4.5372307571828365
1739920585634046000,11.1960458984375,-1.9966274064481258,11.325976705074309,4.7978398416995995
1739920585644028000,11.20602783203125,-1.6845020697057247,11.628015532088279,4.755887536633014
1739920585654011100,11.21601123046875,-1.3013596614539622,12.012759530317783,4.513355960598588
1739920585663992800,11.225992919921875,-1.0561515596866606,12.364704836273193,4.1725867131739856
1739920585673975000,11.23597509765625,-0.953905821698904,12.760746473586558,3.618890754383802
1739920585683956700,11.245956787109375,-0.9184580762207507,13.067186750429867,3.0704648449510334
1739920585693940000,11.25593994140625,-0.827706376671791,13.334616036355495,2.523860305726528
1739920585703922000,11.265921875,-0.6168436120986938,13.68946290897131,1.7989976329356432
1739920585713903900,11.27590380859375,-0.3532289160251617,14.021513427889346,0.9528811548262834
1739920585723886000,11.285885986328125,0.029936909634806216,14.308101003271341,0.027953590330481528
1739920585733869000,11.295869140625,0.44967502782344815,14.704682738810776,-0.9775953248441219
1739920585743851000,11.30585107421875,0.8963912058413028,14.945810877788066,-2.0120383260697126
1739920585753833000,11.3158330078125,1.4057400733828544,14.939844078338146,-3.0337440107971427
1739920585763816000,11.32581591796875,1.893629973310232,14.872164626818895,-3.814313957762718
1739920585773798000,11.3357978515625,2.2154455139398572,14.570028769171238,-4.411008515802026
1739920585783779800,11.34577978515625,2.321738481491804,14.133431834107636,-4.608417924562096
1739920585793762000,11.355761962890625,2.1383704575657845,13.766774112188815,-4.4168221705168484
1739920585803745000,11.3657451171875,1.7117524802029132,13.283285662090778,-4.2240865987867116
1739920585813727000,11.37572705078125,1.3289783207416535,12.838546337103843,-4.012453434363008
1739920585823709000,11.385708984375,1.0650163456004111,12.41517713240385,-3.6633056501716372
1739920585833691000,11.39569091796875,0.8932873946070671,12.048587215024233,-3.204628400725126
1739920585843673900,11.405673828125,0.7510569252986461,11.800585098624229,-2.614699683558941
1739920585853656000,11.415656005859375,0.6577437777638435,11.59692130564451,-1.9587462963432072
1739920585863638000,11.425637939453125,0.5925871957857162,11.428374418753386,-1.316162678310275
1739920585873621000,11.43562109375,0.5903812832392752,11.364258212673663,-0.5624444979131221
1739920585883603000,11.44560302734375,0.5663584564864635,11.286343782866,0.3338637058198452
1739920585893585000,11.4555849609375,0.5265067769609392,11.213858392369746,1.2685177145600317
1739920585903567000,11.465567138671876,0.5097429814256728,11.084966639518736,2.1992010661035777
1739920585913549800,11.4755498046875,0.5294846967931837,10.865594405275584,3.0376088695317507
1739920585923532000,11.485531982421875,0.6016963118493557,10.58741342371106,3.836330559259653
1739920585933514000,11.495513916015625,0.7145499530911446,10.268522830617428,4.554955798965692
1739920585943497000,11.5054970703125,0.8026936620987951,9.895463424962758,5.1365860588639976
1739920585953479200,11.515479248046875,0.8978655161775648,9.507194759738445,5.44760781827867
1739920585963460900,11.5254609375,0.8820971614204347,9.124957191371918,5.503726595863699
1739920585973443000,11.535443115234376,0.715232528527826,8.767414503800868,5.452994772014022
1739920585983425800,11.54542578125,0.4055236052773893,8.444372636246682,5.449315791240334
1739920585993408000,11.555407958984375,-0.06845335850119591,8.110619989585876,5.4985050618231295
1739920586003390000,11.565389892578125,-0.6522143468178808,7.742226237654686,5.542656922760606
1739920586013372000,11.575371826171875,-1.2788111450374127,7.254206573867798,5.645729759222268
1739920586023355000,11.58535498046875,-1.8551975129328666,6.710823919299244,5.7834746806144715
1739920586033336800,11.5953369140625,-2.3669077027782794,6.0871343868285415,5.9918362760215995
1739920586043319000,11.605319091796876,-2.7531916239261625,5.427069472640753,6.4078159549921745
1739920586053302000,11.615302001953125,-3.0007167704641815,4.652445282337069,7.013871046572923
1739920586063284000,11.625283935546875,-2.985790419489145,3.7296459620416162,7.662085948491096
1739920586073266000,11.635265869140625,-2.7261984030604363,2.7977058884352446,8.250388525760174
1739920586083247900,11.645247802734374,-2.4631705669641493,1.9024930787235497,8.553312318915129
1739920586093230800,11.65523095703125,-2.258077033442259,0.9756775085240602,8.539464995348453
1739920586103213000,11.665213134765626,-2.0239583348356187,0.07523702729195356,8.538881642502545
1739920586113195000,11.675195068359375,-1.6754513327658176,-0.6171744514882564,8.540238902330398
1739920586123178000,11.685177978515625,-1.392584823733568,-1.2585536621674895,8.482014092376827
1739920586133160000,11.695159912109375,-1.0826457449890672,-1.9091864388823507,8.314842000970243
1739920586143142000,11.705141845703125,-0.967685486856848,-2.438368134140968,8.156358827453852
1739920586153123800,11.715123779296874,-1.0560067443884908,-2.9609137523859737,8.361571018919348
1739920586163106800,11.72510693359375,-1.2107913556478918,-3.5147014811128376,8.62423762048781
1739920586173089000,11.735089111328126,-1.6619021153628826,-4.064921872746944,8.70931887318492
1739920586183071000,11.745071044921875,-2.268591413193941,-4.54177366130948,8.83365836955905
1739920586193053000,11.755052978515625,-2.5236510468900204,-4.968463534864783,9.223781722739337
1739920586203036200,11.7650361328125,-2.331943941424787,-5.503191173812747,9.615458150580524
1739920586213017900,11.775017822265625,-1.9702188536025582,-5.813675173088908,9.747050394561887
1739920586223000000,11.785,-1.980871326650679,-6.0834770333647725,9.83333459330797
1739920586232982800,11.794982666015626,-2.2880291041135785,-6.4681520580112934,9.830507845449446
1739920586242965000,11.804965087890626,-2.9283909544438123,-7.059395949429273,9.822593419063091
1739920586252947000,11.814947021484375,-3.5191365409508344,-7.649189642038941,10.159310760748387
1739920586262929000,11.824928955078125,-3.7614278784886,-8.225297339123488,10.771232698535918
1739920586272912100,11.834912109375,-3.688591774858534,-8.865947943267226,11.315240207004546
1739920586282893800,11.844893798828124,-3.5523762549906968,-9.295442352849244,12.080749947482348
1739920586292876000,11.8548759765625,-3.024462972232699,-9.380265831393002,13.136637303274869
1739920586302859000,11.86485888671875,-2.5956036456838247,-9.626300447112321,13.916853614497184
1739920586312841000,11.874841064453125,-2.9516023186832663,-10.184550415945052,13.920651837736367
1739920586322824000,11.884823974609375,-3.5375086484655736,-11.039032571339607,13.38272569500804
1739920586332806000,11.894805908203125,-3.6184687295794484,-11.716124023652077,12.882796982240675
1739920586342788000,11.9047880859375,-3.540807690010965,-11.941125203692913,12.875654124748706
1739920586352771000,11.91477099609375,-3.517223693066835,-12.400939348214864,12.298550986886024
1739920586362753000,11.9247529296875,-3.3486116319850083,-12.371007151287793,11.549299138247966
1739920586372735000,11.93473486328125,-2.779982892479002,-11.655270618760586,10.987761818307638
1739920586382717000,11.944717041015625,-2.2063865936934945,-10.807096623599529,10.173168605709074
1739920586392700000,11.954699951171875,-1.7294295911908149,-9.850049581265448,9.316926454904674
1739920586402682000,11.96468212890625,-1.2320320043362676,-8.696383403766156,8.685674962747097
1739920586412664000,11.9746640625,-0.8613668003417551,-7.317894909924268,8.592502758052945
1739920586422647000,11.98464697265625,-0.5603846427738666,-5.751722867044806,9.080496702876687
1739920586432629000,11.99462890625,-0.37652686256952583,-4.215240444508194,9.591187048155069
1739920586442611000,12.00461083984375,-0.3426047922886908,-2.8585364969730374,9.876599734538793
1739920586452593000,12.014593017578125,-0.49991724152527744,-1.7727490929573773,9.908307708966731
1739920586462575900,12.024575927734375,-0.8277262504160404,-0.8561562260866165,10.063017793685198
1739920586472558000,12.03455810546875,-1.133897647190094,-0.09220599001049995,10.270762718498705
1739920586482539800,12.044539794921874,-1.2734008104264736,0.459511362183094,10.273063396656513
1739920586492522000,12.05452197265625,-1.2990987307846544,0.7811942163437604,10.068284335911274
1739920586502505000,12.0645048828125,-0.8456241645477711,1.026506655268371,9.781822432735561
1739920586512487000,12.07448681640625,0.006374941859394311,1.4546584180697797,9.132359576582909
1739920586522469000,12.08446923828125,0.8182792076349258,1.7193980265200137,8.006049608042836
1739920586532451800,12.094451904296875,1.6107387682281433,1.859791416594386,6.766824038940667
1739920586542434000,12.10443408203125,1.9086897414065895,2.0290847379386423,5.541126644453406
1739920586552415700,12.114415771484374,1.5897345586441456,2.2391534295246003,4.606486664238572
1739920586562398000,12.12439794921875,1.0724854393720626,2.4632260965436696,4.12858156723082
1739920586572381000,12.134380859375,0.4232673517607152,2.8148972617328165,4.14870548684895
1739920586582363000,12.14436279296875,-0.2913034979879856,3.2724989909023043,4.290878746077418
1739920586592345000,12.154344970703125,-0.7718927195131778,3.8234249004572627,4.327515993601083
1739920586602328000,12.164328125,-1.0457894478872418,4.417933346629143,4.230756578069925
1739920586612310000,12.17431005859375,-1.1757834628917276,5.082037307074666,4.181677197602391
1739920586622292000,12.1842919921875,-1.1587491798520086,5.82103897985518,4.143330223551392
1739920586632274000,12.19427392578125,-1.0489476196572185,6.570851384985446,4.0151965955913065
1739920586642257000,12.2042568359375,-0.9765443544864654,7.284406481820344,4.1350118925392625
1739920586652238800,12.21423876953125,-0.9009436084486544,8.053903830629586,4.3349803381323815
1739920586662221000,12.224220947265625,-0.8597372263785451,8.705282165014744,4.337309657862782
1739920586672203000,12.234203125,-0.8546693485297262,9.21118702958226,4.23986752076447
1739920586682185000,12.24418505859375,-0.8651566941440105,9.75912953941226,4.178462911731004
1739920586692167200,12.254167236328126,-1.0275392131865024,10.276339057326316,4.152164687392116
1739920586702150000,12.26414990234375,-1.3027695282518863,10.659897645163536,4.010437418365478
1739920586712132000,12.274132080078125,-1.5188544113874434,10.986063197696208,3.9002527040719985
1739920586722113800,12.28411376953125,-1.6745650514505803,11.27942655082345,3.7661265576988456
1739920586732097000,12.294096923828125,-1.8052865039467811,11.539206783300637,3.698993049624562
1739920586742079000,12.304078857421874,-1.8254490020096301,11.887407642030714,3.685293025574088
1739920586752061000,12.31406103515625,-1.7239631424784658,12.234665082430839,3.5464702458173036
1739920586762043000,12.32404296875,-1.5476396302364765,12.616294748032093,3.232064104661345
1739920586772026000,12.334026123046876,-1.4978279899716376,12.970503322744369,2.8910791686594486
1739920586782007800,12.3440078125,-1.435562380194664,13.260371234971284,2.3238392531633374
1739920586791990000,12.353989990234375,-1.2820447201311587,13.449881414914131,1.6450275529295204
1739920586801973000,12.363972900390625,-1.104007608904317,13.557348102420567,0.8665449336320161
1739920586811955000,12.373954833984374,-0.9624760085802525,13.584323787629604,0.03650923722982406
1739920586821937000,12.38393701171875,-0.7349066585518419,13.58132869746685,-0.8301724745243787
1739920586831918800,12.3939189453125,-0.3647848407190293,13.737099104893208,-1.5339794998049736
1739920586841902000,12.403902099609375,0.05987367313914001,13.939322635936737,-2.1132056211709975
1739920586851883800,12.4138837890625,0.37119594987034793,14.016816209983824,-2.7953461735665797
1739920586861866000,12.423865966796875,0.5125309316437691,13.943382724982499,-3.5287528028190134
1739920586871849000,12.433848876953125,0.5752828636329621,13.78037944369316,-4.142247689011692
1739920586881831000,12.443830810546874,0.6170832660734653,13.613231902205943,-4.494539616447687
1739920586891813000,12.453813232421876,0.6247498551785946,13.551100732463597,-4.673790268182755
1739920586901794800,12.463794921875,0.733128396832943,13.51472827335596,-4.975533327120543
1739920586911778000,12.473778076171875,0.8150971435327082,13.374668645280599,-5.515449766883254
1739920586921759700,12.483759765625,0.8065630508780479,13.1214011556983,-5.784724388414621
1739920586931742000,12.493741943359375,0.7297510293543338,12.752233496785163,-5.433597413104772
1739920586941724200,12.50372412109375,0.8024164525926113,12.369992421287298,-4.654041611617803
1739920586951707000,12.513706787109374,0.7688157962858676,11.945422608625888,-3.2903362608879805
1739920586961689000,12.523689208984376,0.4739221648514271,11.417751317930222,-1.3960171362698077
1739920586971670800,12.5336708984375,0.32602176014781,10.871012923192977,0.6377320863485336
1739920586981654000,12.543654052734375,0.14083705132179894,10.552135189580916,2.6042747356563805
1739920586991636000,12.553635986328125,-0.08828735526204108,10.294120213210583,4.216520547446608
1739920587001618000,12.563617919921874,-0.012127660167217254,9.916004693210125,5.316467409718037
1739920587011600100,12.57360009765625,0.17960951164271682,9.42887350269556,5.982056640285253
1739920587021582800,12.583582763671876,0.3769709896078333,8.949223023325205,6.338275970298051
1739920587031565000,12.59356494140625,0.38550972190499305,8.582614401245117,6.726273417365551
1739920587041547000,12.603547119140625,0.23469722914695737,8.246524251547456,7.232954527002573
1739920587051530000,12.613530029296875,-0.017675868878886104,7.911700760784745,7.895168143656849
1739920587061512000,12.623511962890625,-0.2636275555551052,7.614787021699548,8.778681163224578
1739920587071494000,12.633493896484374,-0.683940952881053,7.115292024174332,9.518866492831707
1739920587081476000,12.64347607421875,-1.1551683987557888,6.303637787637114,9.80183470867276
1739920587091459000,12.653458984375,-1.6613351291298866,5.348987869572639,9.842953485524653
1739920587101441000,12.66344091796875,-2.0958711861409247,4.390474846339226,9.721832951197028
1739920587111423000,12.673423095703125,-2.192867771428823,3.163529497617483,9.249377936288713
1739920587121406000,12.683406005859375,-2.097775412327051,1.9687818065367637,8.7180820253551
1739920587131388000,12.693387939453125,-1.9005670790970324,0.9537889173209667,8.333464283853768
1739920587141370000,12.7033701171875,-1.7862426346503197,-0.03404576972573995,8.041809488210081
1739920587151351800,12.713351806640626,-1.7864789276242254,-1.0223521659374237,7.707496285057068
1739920587161335000,12.7233349609375,-1.8071862000882624,-1.9181375148400663,7.200019641128182
1739920587171316700,12.733316650390625,-1.6668880870819092,-2.75407249841392,6.912711350256204
1739920587181299000,12.743298828125,-1.3146364916563034,-3.467753267455101,6.716193337377906
1739920587191282000,12.753281982421875,-1.1967606383383274,-4.006381128711999,6.434945369458198
1739920587201263900,12.763263916015624,-1.2264321385025978,-4.672528285422921,6.1257636849522585
1739920587211246000,12.77324609375,-1.2203694043975322,-5.339861144787073,5.85345188768208
