time,seconds_elapsed,z,y,x
1740247032608117000,0.020116943359375,-0.8900604248046875,-0.4568939208984375,-0.03106689453125
1740247032618097700,0.03009765625,-0.93035888671875,-0.4614105224609375,-0.0113372802734375
1740247032628078800,0.040078857421875,-0.9726409912109375,-0.4612274169921875,0.0078582763671875
1740247032638060800,0.050060791015625,-1.007965087890625,-0.44921875,0.0110626220703125
1740247032648041700,0.060041748046875,-1.04254150390625,-0.445648193359375,-0.0083770751953125
1740247032658023000,0.07002294921875,-1.0746612548828125,-0.459930419921875,-0.016876220703125
1740247032668004900,0.0800048828125,-1.1031494140625,-0.4750823974609375,-0.0168304443359375
1740247032677985800,0.08998583984375,-1.009246826171875,-0.43255615234375,0.010650634765625
1740247032687966700,0.099966796875,-1.03851318359375,-0.49542236328125,-0.049774169921875
1740247032697949000,0.109948974609375,-1.1014556884765625,-0.52099609375,-0.044586181640625
1740247032707929900,0.119929931640625,-1.0256805419921875,-0.3983306884765625,0.0662841796875
1740247032717910800,0.129910888671875,-0.9557647705078125,-0.3141326904296875,0.1779327392578125
1740247032727893000,0.13989306640625,-0.9763031005859375,-0.2966461181640625,0.2637481689453125
1740247032737874000,0.1498740234375,-1.049652099609375,-0.2850494384765625,0.3509063720703125
1740247032747854800,0.159854736328125,-1.1125640869140625,-0.2465972900390625,0.4403839111328125
1740247032757836800,0.1698369140625,-1.15228271484375,-0.1941070556640625,0.4811553955078125
1740247032767817700,0.179817626953125,-1.1388702392578125,-0.155670166015625,0.4666748046875
1740247032777799000,0.189798828125,-1.061676025390625,-0.14459228515625,0.4024810791015625
1740247032787780900,0.19978076171875,-0.95654296875,-0.146636962890625,0.34967041015625
1740247032797761800,0.20976171875,-0.8414764404296875,-0.13214111328125,0.3462677001953125
1740247032807742700,0.21974267578125,-0.7314300537109375,-0.115631103515625,0.3780517578125
1740247032817725000,0.229724853515625,-0.634246826171875,-0.0908203125,0.4090576171875
1740247032827705900,0.239705810546875,-0.547882080078125,-0.0480194091796875,0.392822265625
1740247032837686800,0.249686767578125,-0.47381591796875,-0.0145263671875,0.3531036376953125
1740247032847669000,0.2596689453125,-0.42120361328125,0.009796142578125,0.33154296875
1740247032857650000,0.26964990234375,-0.3791656494140625,0.0403594970703125,0.3449554443359375
1740247032867630800,0.279630859375,-0.3314208984375,0.063232421875,0.36602783203125
1740247032877612800,0.28961279296875,-0.262359619140625,0.0935211181640625,0.385711669921875
1740247032887593700,0.29959375,-0.19012451171875,0.1284942626953125,0.3878173828125
1740247032897575000,0.309574951171875,-0.140625,0.1501617431640625,0.375274658203125
1740247032907556900,0.319556884765625,-0.112060546875,0.1696624755859375,0.3614654541015625
1740247032917538000,0.3295380859375,-0.0997772216796875,0.1898345947265625,0.34814453125
1740247032927518700,0.339518798828125,-0.0967254638671875,0.20465087890625,0.3419647216796875
1740247032937500700,0.349500732421875,-0.099334716796875,0.2292938232421875,0.3349609375
1740247032947481900,0.35948193359375,-0.115966796875,0.2661590576171875,0.3170013427734375
1740247032957463800,0.3694638671875,-0.135711669921875,0.3003997802734375,0.2958526611328125
1740247032967445000,0.379445068359375,-0.149993896484375,0.3358612060546875,0.2777099609375
1740247032977426000,0.389426025390625,-0.161285400390625,0.374755859375,0.2682342529296875
1740247032987408000,0.399407958984375,-0.1603546142578125,0.411285400390625,0.2746124267578125
1740247032997388800,0.409388916015625,-0.1426849365234375,0.451385498046875,0.3063812255859375
1740247033007369700,0.41936962890625,-0.1264801025390625,0.4991607666015625,0.3571319580078125
1740247033017352000,0.42935205078125,-0.1010589599609375,0.553863525390625,0.4213409423828125
1740247033027332900,0.439332763671875,-0.0863189697265625,0.612762451171875,0.5146942138671875
1740247033037314000,0.44931396484375,-0.092620849609375,0.66363525390625,0.6255950927734375
1740247033047295700,0.459295654296875,-0.1126861572265625,0.7273712158203125,0.737091064453125
1740247033057276700,0.469276611328125,-0.13922119140625,0.819488525390625,0.8496551513671875
1740247033067257900,0.4792578125,-0.171051025390625,0.9226531982421875,0.9594879150390625
1740247033077239800,0.48923974609375,-0.213592529296875,1.0294647216796875,1.115875244140625
1740247033087221200,0.49922119140625,-0.2600250244140625,1.135772705078125,1.315155029296875
1740247033097202200,0.5092021484375,-0.2866363525390625,1.2331695556640625,1.5445709228515625
1740247033107184000,0.51918408203125,-0.29071044921875,1.3212738037109375,1.8065185546875
1740247033117165000,0.5291650390625,-0.2792816162109375,1.3895111083984375,2.0530242919921875
1740247033127146000,0.53914599609375,-0.2599334716796875,1.4108734130859375,2.2594451904296875
1740247033137128200,0.549128173828125,-0.241607666015625,1.361541748046875,2.401214599609375
1740247033147109000,0.559109130859375,-0.2445831298828125,1.2713165283203125,2.518707275390625
1740247033157090300,0.56909033203125,-0.263397216796875,1.177642822265625,2.558563232421875
1740247033167072000,0.579072021484375,-0.2804718017578125,1.05877685546875,2.501220703125
1740247033177053000,0.589052978515625,-0.3300933837890625,0.943115234375,2.4502410888671875
1740247033187034000,0.5990341796875,-0.4355621337890625,0.8287200927734375,2.4545745849609375
1740247033197016000,0.60901611328125,-0.5662994384765625,0.7018585205078125,2.488006591796875
1740247033206997200,0.618997314453125,-0.6688385009765625,0.58837890625,2.495513916015625
1740247033216978200,0.628978271484375,-0.7113494873046875,0.4948577880859375,2.465301513671875
1740247033226960100,0.638960205078125,-0.66839599609375,0.410614013671875,2.3954925537109375
1740247033236941000,0.648941162109375,-0.57159423828125,0.3469390869140625,2.2840576171875
1740247033246922000,0.658921875,-0.4578857421875,0.3304901123046875,2.1511993408203125
1740247033256904200,0.668904296875,-0.35504150390625,0.3415985107421875,1.992340087890625
1740247033266885000,0.678885009765625,-0.267242431640625,0.3358001708984375,1.8216552734375
1740247033276867000,0.6888671875,-0.1803741455078125,0.2977294921875,1.6508636474609375
1740247033286848000,0.698847900390625,-0.0820159912109375,0.2677764892578125,1.4917144775390625
1740247033296829000,0.708828857421875,-0.0025482177734375,0.26446533203125,1.382843017578125
1740247033306811100,0.71881103515625,0.045684814453125,0.26239013671875,1.3125
1740247033316792000,0.7287919921875,0.0718994140625,0.2370452880859375,1.2711639404296875
1740247033326773200,0.738773193359375,0.0932769775390625,0.18853759765625,1.260955810546875
1740247033336755000,0.7487548828125,0.1253204345703125,0.10809326171875,1.297637939453125
1740247033346736000,0.758736083984375,0.1736297607421875,0.0158233642578125,1.3585662841796875
1740247033356717000,0.768717041015625,0.2227783203125,-0.0645294189453125,1.427947998046875
1740247033366699000,0.778698974609375,0.2376708984375,-0.1555023193359375,1.4835662841796875
1740247033376680200,0.78868017578125,0.1893310546875,-0.29876708984375,1.4803009033203125
1740247033386661000,0.7986611328125,0.09710693359375,-0.44488525390625,1.4498138427734375
1740247033396643000,0.80864306640625,0.00372314453125,-0.5283355712890625,1.4633941650390625
1740247033406624000,0.8186240234375,-0.0693817138671875,-0.5213165283203125,1.5745391845703125
1740247033416605000,0.82860498046875,-0.1203765869140625,-0.436676025390625,1.719879150390625
1740247033426587100,0.838587158203125,-0.147674560546875,-0.3364410400390625,1.7778778076171875
1740247033436568000,0.848568115234375,-0.1820831298828125,-0.254791259765625,1.7276611328125
1740247033446549200,0.85854931640625,-0.2282562255859375,-0.1948699951171875,1.626800537109375
1740247033456531000,0.868531005859375,-0.251678466796875,-0.12713623046875,1.4964447021484375
1740247033466512000,0.878511962890625,-0.204193115234375,-0.0305633544921875,1.3768310546875
1740247033476493000,0.8884931640625,-0.125274658203125,0.0799560546875,1.293975830078125
1740247033486475000,0.89847509765625,-0.0633392333984375,0.1764678955078125,1.245758056640625
1740247033496456200,0.908456298828125,-0.0163421630859375,0.25811767578125,1.2337646484375
1740247033506437000,0.91843701171875,0.0279388427734375,0.3222503662109375,1.2355499267578125
1740247033516419000,0.928419189453125,0.06805419921875,0.3692474365234375,1.2534027099609375
1740247033526400000,0.93839990234375,0.0954437255859375,0.4095611572265625,1.279754638671875
1740247033536382200,0.94838232421875,0.1176300048828125,0.448455810546875,1.314300537109375
1740247033546363100,0.958363037109375,0.136077880859375,0.493743896484375,1.3459014892578125
1740247033556344000,0.968343994140625,0.1463775634765625,0.5526580810546875,1.38482666015625
1740247033566326000,0.978325927734375,0.15216064453125,0.603790283203125,1.4271697998046875
1740247033576307000,0.988306884765625,0.166748046875,0.6473388671875,1.46820068359375
1740247033586287900,0.998287841796875,0.19232177734375,0.702178955078125,1.5019073486328125
1740247033596270000,1.00827001953125,0.22235107421875,0.77545166015625,1.5467987060546875
1740247033606251000,1.0182509765625,0.24713134765625,0.8565521240234375,1.5995635986328125
1740247033616232200,1.028232177734375,0.2742919921875,0.9306793212890625,1.6518096923828125
1740247033626214100,1.038214111328125,0.306915283203125,0.98028564453125,1.6793670654296875
1740247033636195000,1.048195068359375,0.3397369384765625,0.9989166259765625,1.6705322265625
1740247033646176000,1.058176025390625,0.365692138671875,0.985595703125,1.6362457275390625
1740247033656158000,1.068157958984375,0.377838134765625,0.9560699462890625,1.583770751953125
1740247033666139100,1.07813916015625,0.386871337890625,0.943756103515625,1.5400390625
1740247033676120000,1.0881201171875,0.3923797607421875,0.96771240234375,1.5231781005859375
1740247033686102300,1.098102294921875,0.394195556640625,1.02978515625,1.53424072265625
1740247033696083000,1.1080830078125,0.38275146484375,1.08929443359375,1.5232696533203125
1740247033706064000,1.11806396484375,0.3417510986328125,1.075531005859375,1.443756103515625
1740247033716046000,1.128046142578125,0.279754638671875,0.9727325439453125,1.2996826171875
1740247033726027000,1.138027099609375,0.215179443359375,0.8381500244140625,1.1549835205078125
1740247033736008200,1.14800830078125,0.1591339111328125,0.739898681640625,1.044921875
1740247033745990100,1.157990234375,0.1337890625,0.68194580078125,0.9559783935546875
1740247033755971000,1.16797119140625,0.1441497802734375,0.6383514404296875,0.8572540283203125
1740247033765952000,1.177951904296875,0.16595458984375,0.5970001220703125,0.74591064453125
1740247033775934000,1.187933837890625,0.1907806396484375,0.5737762451171875,0.6477813720703125
1740247033785915100,1.1979150390625,0.221435546875,0.5891265869140625,0.5695037841796875
1740247033795897000,1.20789697265625,0.286285400390625,0.6478424072265625,0.4741058349609375
1740247033805878300,1.217878173828125,0.3610992431640625,0.7677154541015625,0.372833251953125
1740247033815859200,1.227859130859375,0.384033203125,0.867889404296875,0.2601318359375
1740247033825841200,1.237841064453125,0.3283233642578125,0.8759918212890625,0.127838134765625
1740247033835822000,1.247822021484375,0.2233428955078125,0.8217315673828125,0.0064849853515625
1740247033845803000,1.257802978515625,0.1285552978515625,0.7476348876953125,-0.06427001953125
1740247033855785200,1.26778515625,0.0635833740234375,0.6752777099609375,-0.0476837158203125
1740247033865766100,1.27776611328125,0.02435302734375,0.618194580078125,0.0605621337890625
1740247033875747000,1.2877470703125,0.014678955078125,0.5865020751953125,0.2164306640625
1740247033885729000,1.29772900390625,0.0491790771484375,0.5874176025390625,0.3616790771484375
1740247033895710000,1.3077099609375,0.1081390380859375,0.594329833984375,0.480926513671875
1740247033905691100,1.317691162109375,0.148681640625,0.5751190185546875,0.5559844970703125
1740247033915673000,1.327673095703125,0.16058349609375,0.5282135009765625,0.5706024169921875
1740247033925654300,1.337654296875,0.1597137451171875,0.4759979248046875,0.532073974609375
1740247033935635200,1.34763525390625,0.1552276611328125,0.4318389892578125,0.47796630859375
1740247033945617200,1.3576171875,0.1393585205078125,0.3976287841796875,0.44757080078125
1740247033955598000,1.36759814453125,0.107757568359375,0.380157470703125,0.4522552490234375
1740247033965579000,1.3775791015625,0.0648345947265625,0.38897705078125,0.4919586181640625
1740247033975561200,1.387561279296875,0.0176849365234375,0.4132537841796875,0.5498504638671875
1740247033985542100,1.397542236328125,-0.0198974609375,0.4283447265625,0.5980987548828125
1740247033995523000,1.407523193359375,-0.0500946044921875,0.445556640625,0.6396636962890625
1740247034005505000,1.417505126953125,-0.067840576171875,0.473724365234375,0.691680908203125
1740247034015486000,1.42748583984375,-0.07684326171875,0.5065460205078125,0.753265380859375
1740247034025468200,1.43746826171875,-0.079193115234375,0.53314208984375,0.8135833740234375
1740247034035449000,1.447448974609375,-0.0760498046875,0.53472900390625,0.8678131103515625
1740247034045430300,1.45743017578125,-0.0688323974609375,0.51873779296875,0.9089813232421875
1740247034055412000,1.467411865234375,-0.05926513671875,0.5191497802734375,0.951446533203125
1740247034065393000,1.477392822265625,-0.0408782958984375,0.5403594970703125,1.0169525146484375
1740247034075374000,1.4873740234375,-0.005340576171875,0.5809783935546875,1.0908660888671875
1740247034085356000,1.49735595703125,0.0390167236328125,0.623626708984375,1.1702728271484375
1740247034095337000,1.5073369140625,0.0878753662109375,0.6551971435546875,1.26080322265625
1740247034105318000,1.51731787109375,0.1373291015625,0.690216064453125,1.349945068359375
1740247034115299800,1.5272998046875,0.1801300048828125,0.7466583251953125,1.431671142578125
1740247034125280800,1.53728076171875,0.2048797607421875,0.8185272216796875,1.5047454833984375
1740247034135261700,1.54726171875,0.2106170654296875,0.8771820068359375,1.57928466796875
1740247034145244000,1.557243896484375,0.209991455078125,0.915771484375,1.662506103515625
1740247034155224800,1.567224853515625,0.22674560546875,0.9554290771484375,1.776275634765625
1740247034165205800,1.577205810546875,0.2509765625,0.9855194091796875,1.893890380859375
1740247034175187700,1.587187744140625,0.24774169921875,1.0019683837890625,2.0006256103515625
1740247034185168600,1.597168701171875,0.213592529296875,1.0121917724609375,2.1046142578125
1740247034195149800,1.60714990234375,0.15606689453125,0.9960784912109375,2.1875762939453125
1740247034205131800,1.6171318359375,0.086090087890625,0.952850341796875,2.2416839599609375
1740247034215113000,1.627113037109375,0.022735595703125,0.8772125244140625,2.2692413330078125
1740247034225094000,1.637093994140625,-0.02691650390625,0.7683563232421875,2.2823028564453125
1740247034235075800,1.647075927734375,-0.0553436279296875,0.6291046142578125,2.26611328125
1740247034245056800,1.657056884765625,-0.0597686767578125,0.4884185791015625,2.2196502685546875
1740247034255038700,1.667038818359375,-0.0628204345703125,0.3430938720703125,2.139068603515625
1740247034265020000,1.67702001953125,-0.0652923583984375,0.1851806640625,2.0284271240234375
1740247034275000800,1.687000732421875,-0.07257080078125,0.04791259765625,1.9099578857421875
1740247034284983000,1.696983154296875,-0.066131591796875,-0.029693603515625,1.79180908203125
1740247034294963700,1.706963623046875,-0.0533599853515625,-0.0535888671875,1.6739044189453125
1740247034304944600,1.716944580078125,-0.0247802734375,-0.040191650390625,1.5399932861328125
1740247034314926800,1.7269267578125,0.0136260986328125,-0.0220489501953125,1.406036376953125
1740247034324907800,1.73690771484375,0.0526580810546875,-0.0153045654296875,1.281402587890625
1740247034334889000,1.746888916015625,0.0923614501953125,-0.0141143798828125,1.1718597412109375
1740247034344871000,1.756870849609375,0.1215362548828125,-0.0199127197265625,1.0902099609375
1740247034354851800,1.766851806640625,0.1302947998046875,-0.0292510986328125,1.0358734130859375
1740247034364832800,1.776832763671875,0.1280975341796875,-0.040802001953125,1.0051116943359375
1740247034374814700,1.786814697265625,0.1132659912109375,-0.059295654296875,0.9994659423828125
1740247034384796000,1.7967958984375,0.0815277099609375,-0.074951171875,1.0285797119140625
1740247034394776800,1.80677685546875,0.0406036376953125,-0.07403564453125,1.0851287841796875
1740247034404759000,1.816759033203125,0,-0.0633392333984375,1.150665283203125
1740247034414740000,1.826739990234375,-0.035675048828125,-0.04718017578125,1.2197265625
1740247034424720600,1.836720703125,-0.0648040771484375,-0.026580810546875,1.2677459716796875
1740247034434702800,1.846702880859375,-0.0729827880859375,-0.000885009765625,1.28472900390625
1740247034444683800,1.856683837890625,-0.0706329345703125,0.0249786376953125,1.278900146484375
1740247034454666000,1.866666015625,-0.067413330078125,0.042022705078125,1.25732421875
1740247034464647000,1.87664697265625,-0.0634918212890625,0.06475830078125,1.22845458984375
1740247034474627800,1.8866279296875,-0.0582427978515625,0.0890655517578125,1.1984100341796875
1740247034484609800,1.89660986328125,-0.0539398193359375,0.1215362548828125,1.1865997314453125
1740247034494590700,1.9065908203125,-0.0470428466796875,0.1613922119140625,1.19073486328125
1740247034504572000,1.916572021484375,-0.034881591796875,0.2022552490234375,1.1956939697265625
1740247034514553900,1.926553955078125,-0.02178955078125,0.244415283203125,1.20135498046875
1740247034524535000,1.93653515625,-0.002899169921875,0.285675048828125,1.2037811279296875
1740247034534516000,1.946515869140625,0.0168914794921875,0.3283538818359375,1.20440673828125
1740247034544497700,1.95649755859375,0.0370330810546875,0.374359130859375,1.208953857421875
1740247034554478800,1.966478759765625,0.054779052734375,0.4213714599609375,1.2181396484375
1740247034564459800,1.976459716796875,0.0728759765625,0.4638519287109375,1.219268798828125
1740247034574442000,1.98644189453125,0.092071533203125,0.4985198974609375,1.2242431640625
1740247034584423000,1.9964228515625,0.112579345703125,0.5365142822265625,1.2380523681640625
1740247034594403800,2.00640380859375,0.133056640625,0.574462890625,1.24951171875
1740247034604385800,2.0163857421875,0.14990234375,0.6058502197265625,1.2647705078125
1740247034614366700,2.02636669921875,0.165740966796875,0.64471435546875,1.2943267822265625
1740247034624348000,2.036347900390625,0.1786651611328125,0.6937408447265625,1.3336639404296875
1740247034634329900,2.046329833984375,0.1899261474609375,0.7489013671875,1.3813629150390625
1740247034644310800,2.056310791015625,0.207000732421875,0.8119659423828125,1.4413299560546875
1740247034654292000,2.0662919921875,0.22613525390625,0.8817138671875,1.4983673095703125
1740247034664273700,2.076273681640625,0.23284912109375,0.934967041015625,1.542388916015625
1740247034674254800,2.0862548828125,0.2374114990234375,0.96533203125,1.5708465576171875
1740247034684236800,2.09623681640625,0.232574462890625,0.9742889404296875,1.5789794921875
1740247034694218000,2.106218017578125,0.2296142578125,0.9659423828125,1.5687713623046875
1740247034704199000,2.116198974609375,0.2301788330078125,0.95465087890625,1.5532379150390625
1740247034714180900,2.126180908203125,0.2343292236328125,0.9671478271484375,1.5443572998046875
1740247034724161800,2.136161865234375,0.225433349609375,1.0050048828125,1.542144775390625
1740247034734142700,2.146142822265625,0.1970672607421875,1.0291595458984375,1.5135345458984375
1740247034744125000,2.156125,0.16204833984375,0.9944000244140625,1.414093017578125
1740247034754105900,2.16610595703125,0.1260223388671875,0.909576416015625,1.275482177734375
1740247034764086800,2.176086669921875,0.0887908935546875,0.825439453125,1.1446075439453125
1740247034774068700,2.18606884765625,0.0661468505859375,0.770751953125,1.01971435546875
1740247034784049700,2.196049560546875,0.0670013427734375,0.7391204833984375,0.9021759033203125
1740247034794030800,2.20603076171875,0.083709716796875,0.7298126220703125,0.7966156005859375
1740247034804012800,2.2160126953125,0.1074371337890625,0.72857666015625,0.6894378662109375
1740247034813994000,2.225993896484375,0.1311187744140625,0.7161407470703125,0.578369140625
1740247034823975000,2.235974853515625,0.14837646484375,0.69775390625,0.479278564453125
1740247034833956600,2.24595654296875,0.1577301025390625,0.6909027099609375,0.413604736328125
1740247034843937800,2.255937744140625,0.16680908203125,0.7064208984375,0.38623046875
1740247034853918700,2.265918701171875,0.1715087890625,0.739166259765625,0.382904052734375
1740247034863901000,2.27590087890625,0.1669464111328125,0.75555419921875,0.3915252685546875
1740247034873881900,2.2858818359375,0.14666748046875,0.7556610107421875,0.410430908203125
1740247034883863800,2.29586376953125,0.119903564453125,0.744415283203125,0.44091796875
1740247034893844700,2.3058447265625,0.0978851318359375,0.7322540283203125,0.4835357666015625
1740247034903825700,2.31582568359375,0.0876922607421875,0.7274017333984375,0.515167236328125
1740247034913808000,2.325807861328125,0.090728759765625,0.7112274169921875,0.51348876953125
1740247034923788800,2.335788818359375,0.1103973388671875,0.690338134765625,0.472076416015625
1740247034933770000,2.34577001953125,0.1299591064453125,0.6579742431640625,0.401031494140625
1740247034943752000,2.355751953125,0.142120361328125,0.6203155517578125,0.33319091796875
1740247034953732600,2.365732666015625,0.1533203125,0.590484619140625,0.276947021484375
1740247034963713800,2.3757138671875,0.1533050537109375,0.5601806640625,0.240478515625
1740247034973695700,2.38569580078125,0.136993408203125,0.5274200439453125,0.228485107421875
1740247034983677000,2.395677001953125,0.104949951171875,0.498443603515625,0.246917724609375
1740247034993657900,2.405657958984375,0.0652618408203125,0.48175048828125,0.28167724609375
1740247035003640000,2.41564013671875,0.026641845703125,0.46966552734375,0.32501220703125
1740247035013620700,2.425620849609375,-0.009857177734375,0.46728515625,0.379974365234375
1740247035023601700,2.4356015625,-0.0388031005859375,0.4692230224609375,0.4423828125
1740247035033583900,2.445583984375,-0.0547943115234375,0.473114013671875,0.5147247314453125
1740247035043564800,2.455564697265625,-0.056121826171875,0.4737396240234375,0.57965087890625
1740247035053547000,2.465547119140625,-0.052276611328125,0.48004150390625,0.634124755859375
1740247035063528000,2.47552783203125,-0.0547637939453125,0.495941162109375,0.6890716552734375
1740247035073508900,2.4855087890625,-0.05841064453125,0.5221099853515625,0.7476806640625
1740247035083490800,2.49549072265625,-0.0638580322265625,0.5478515625,0.8075714111328125
1740247035093471700,2.5054716796875,-0.0681915283203125,0.5686187744140625,0.8760528564453125
1740247035103452700,2.51545263671875,-0.0682373046875,0.5843963623046875,0.946319580078125
1740247035113435000,2.525434814453125,-0.065673828125,0.587615966796875,1.0247344970703125
1740247035123415800,2.535415771484375,-0.0394744873046875,0.58837890625,1.110443115234375
1740247035133396700,2.545396728515625,0.0206298828125,0.58966064453125,1.1811676025390625
1740247035143378700,2.555378662109375,0.101776123046875,0.6048583984375,1.248870849609375
1740247035153359600,2.565359619140625,0.1798858642578125,0.6454010009765625,1.308837890625
1740247035163340800,2.5753408203125,0.242584228515625,0.7074432373046875,1.3763427734375
1740247035173322800,2.58532275390625,0.277130126953125,0.7701416015625,1.453643798828125
1740247035183303700,2.5953037109375,0.2846221923828125,0.8117523193359375,1.54510498046875
1740247035193284900,2.605284912109375,0.2599029541015625,0.83197021484375,1.6751556396484375
1740247035203266600,2.6152666015625,0.2166748046875,0.8257293701171875,1.8287200927734375
1740247035213247700,2.625247802734375,0.1788787841796875,0.799407958984375,1.9520721435546875
1740247035223228700,2.635228759765625,0.15118408203125,0.7692108154296875,2.0485382080078125
1740247035233211000,2.6452109375,0.127838134765625,0.737274169921875,2.130706787109375
1740247035243191800,2.65519189453125,0.0988311767578125,0.7028045654296875,2.2148895263671875
1740247035253173500,2.665173583984375,0.0751800537109375,0.6412353515625,2.2701568603515625
1740247035263154700,2.67515478515625,0.0672607421875,0.5400390625,2.2773895263671875
1740247035273135600,2.685135498046875,0.05889892578125,0.417205810546875,2.238128662109375
1740247035283117800,2.695117919921875,0.0542144775390625,0.293365478515625,2.1398468017578125
1740247035293098800,2.7050986328125,0.0492095947265625,0.18115234375,2.0099945068359375
1740247035303079700,2.71507958984375,0.040130615234375,0.0859375,1.8791046142578125
1740247035313061600,2.7250615234375,0.058197021484375,0.0310821533203125,1.7549896240234375
1740247035323042600,2.73504248046875,0.113922119140625,0.0331573486328125,1.61651611328125
1740247035333023700,2.745023681640625,0.1777496337890625,0.0631866455078125,1.4680938720703125
1740247035343005700,2.755005615234375,0.226806640625,0.08941650390625,1.3226470947265625
1740247035352987000,2.76498681640625,0.250518798828125,0.09588623046875,1.1975250244140625
1740247035362967800,2.7749677734375,0.2502288818359375,0.0832061767578125,1.09527587890625
1740247035372949500,2.784949462890625,0.2435455322265625,0.0682373046875,1.0277862548828125
1740247035382930700,2.7949306640625,0.2368927001953125,0.05633544921875,1.0068206787109375
1740247035392911600,2.80491162109375,0.2278289794921875,0.06005859375,1.0164031982421875
1740247035402893800,2.814893798828125,0.2169189453125,0.0682525634765625,1.0398101806640625
1740247035412874800,2.824874755859375,0.2027587890625,0.0633392333984375,1.06427001953125
1740247035422856700,2.834856689453125,0.19134521484375,0.057861328125,1.0849151611328125
1740247035432837600,2.844837646484375,0.16888427734375,0.0570526123046875,1.1119232177734375
1740247035442818600,2.854818603515625,0.141876220703125,0.069671630859375,1.139190673828125
1740247035452800800,2.86480078125,0.119354248046875,0.080108642578125,1.1622467041015625
1740247035462781700,2.87478173828125,0.1050872802734375,0.083587646484375,1.1772918701171875
1740247035472763000,2.884762939453125,0.0956573486328125,0.0937957763671875,1.1923370361328125
1740247035482744600,2.89474462890625,0.086578369140625,0.112884521484375,1.200714111328125
1740247035492725500,2.9047255859375,0.0688934326171875,0.1327362060546875,1.1915130615234375
1740247035502706700,2.914706787109375,0.0529937744140625,0.1522216796875,1.1707916259765625
1740247035512688600,2.924688720703125,0.04510498046875,0.1853790283203125,1.139312744140625
1740247035522669800,2.934669921875,0.0054168701171875,0.22015380859375,1.114654541015625
1740247035532650800,2.944650634765625,-0.024688720703125,0.219879150390625,1.0930633544921875
1740247035542632700,2.9546328125,-0.012176513671875,0.2218017578125,1.0685272216796875
1740247035552613600,2.964613525390625,-0.0081787109375,0.2395782470703125,1.0749053955078125
1740247035562594600,2.974594482421875,0.046966552734375,0.29302978515625,1.0847625732421875
1740247035572576800,2.98457666015625,0.0816192626953125,0.357818603515625,1.0775146484375
1740247035582557700,2.9945576171875,0.0765228271484375,0.3895263671875,1.055145263671875
1740247035592540000,3.004539794921875,0.0719757080078125,0.3954010009765625,1.0278167724609375
1740247035602520800,3.014520751953125,0.05755615234375,0.4179534912109375,1.031646728515625
1740247035612501500,3.02450146484375,0.040130615234375,0.45782470703125,1.0680694580078125
1740247035622483700,3.034483642578125,0.0278472900390625,0.5121002197265625,1.12701416015625
1740247035632464600,3.044464599609375,0.024932861328125,0.573760986328125,1.1766510009765625
1740247035642445800,3.05444580078125,0.0275421142578125,0.636474609375,1.213470458984375
1740247035652427800,3.064427734375,0.0287933349609375,0.7007293701171875,1.254302978515625
1740247035662408700,3.07440869140625,0.02947998046875,0.772705078125,1.306121826171875
1740247035672389600,3.0843896484375,0.0240631103515625,0.840087890625,1.359893798828125
1740247035682371600,3.09437158203125,0.01318359375,0.8899688720703125,1.4053955078125
1740247035692352800,3.104352783203125,0.00811767578125,0.918792724609375,1.4319610595703125
1740247035702333700,3.114333740234375,0.0039520263671875,0.9278411865234375,1.4393157958984375
1740247035712316000,3.12431591796875,-0.0077667236328125,0.9129638671875,1.42816162109375
1740247035722296800,3.134296875,-0.01763916015625,0.8928680419921875,1.41302490234375
1740247035732277500,3.144277587890625,-0.0169219970703125,0.886016845703125,1.39959716796875
1740247035742259700,3.154259765625,-0.0017547607421875,0.9017333984375,1.38067626953125
1740247035752240600,3.16424072265625,0.02569580078125,0.9545440673828125,1.36529541015625
1740247035762221800,3.174221923828125,0.0524749755859375,1.023773193359375,1.3273468017578125
1740247035772203800,3.184203857421875,0.0694427490234375,1.0705108642578125,1.240325927734375
1740247035782184700,3.194184814453125,0.0869903564453125,1.0740966796875,1.1050262451171875
1740247035792166700,3.204166748046875,0.1025390625,1.047210693359375,0.92657470703125
1740247035802147600,3.214147705078125,0.1224365234375,1.00384521484375,0.72576904296875
1740247035812128800,3.224128662109375,0.145477294921875,0.9508209228515625,0.5353851318359375
1740247035822110700,3.23411083984375,0.16229248046875,0.903533935546875,0.3856048583984375
1740247035832092000,3.244091796875,0.15740966796875,0.8747711181640625,0.3002166748046875
1740247035842072800,3.25407275390625,0.134185791015625,0.8595123291015625,0.270751953125
1740247035852054500,3.264054443359375,0.1035614013671875,0.858551025390625,0.2927093505859375
1740247035862035700,3.27403564453125,0.0769195556640625,0.8910369873046875,0.3602752685546875
1740247035872016600,3.2840166015625,0.05157470703125,0.9410247802734375,0.4392242431640625
1740247035881998800,3.293998779296875,0.022552490234375,0.9601287841796875,0.4996490478515625
1740247035891979800,3.303979736328125,-0.0039520263671875,0.9485626220703125,0.5418548583984375
1740247035901960700,3.313960693359375,-0.0269622802734375,0.917388916015625,0.5655975341796875
1740247035911942700,3.323942626953125,-0.0384674072265625,0.87109375,0.583404541015625
1740247035921923600,3.333923583984375,-0.0331573486328125,0.8258514404296875,0.604278564453125
1740247035931905800,3.34390576171875,-0.01031494140625,0.784698486328125,0.6315765380859375
1740247035941886700,3.35388671875,0.0107574462890625,0.7449493408203125,0.6559906005859375
1740247035951868000,3.363867919921875,0.02691650390625,0.6963958740234375,0.67755126953125
1740247035961849600,3.373849609375,0.0374298095703125,0.6488494873046875,0.699188232421875
1740247035971830500,3.38383056640625,0.0460662841796875,0.6055145263671875,0.720245361328125
1740247035981811700,3.393811767578125,0.0463409423828125,0.56646728515625,0.72650146484375
1740247035991793700,3.403793701171875,0.0301513671875,0.5295257568359375,0.717315673828125
1740247036001774800,3.41377490234375,-0.0021820068359375,0.495025634765625,0.70587158203125
1740247036011755800,3.423755859375,-0.0449676513671875,0.46343994140625,0.696044921875
1740247036021737700,3.43373779296875,-0.087799072265625,0.44171142578125,0.698974609375
1740247036031718700,3.44371875,-0.1160736083984375,0.4305877685546875,0.71240234375
1740247036041699600,3.453699462890625,-0.137542724609375,0.42645263671875,0.7363433837890625
1740247036051681800,3.463681884765625,-0.149688720703125,0.4246826171875,0.771881103515625
1740247036061662700,3.473662841796875,-0.1483917236328125,0.4170379638671875,0.8185272216796875
1740247036071643600,3.4836435546875,-0.140106201171875,0.4027557373046875,0.8697967529296875
1740247036081625600,3.49362548828125,-0.1180572509765625,0.3860321044921875,0.9175262451171875
1740247036091606500,3.5036064453125,-0.0816650390625,0.3736114501953125,0.9513092041015625
1740247036101588500,3.51358837890625,-0.034332275390625,0.378082275390625,0.97998046875
1740247036111569700,3.523569580078125,0.012176513671875,0.3990325927734375,1.0145416259765625
1740247036121550600,3.533550537109375,0.0559234619140625,0.4200439453125,1.04840087890625
1740247036131532500,3.543532470703125,0.0941925048828125,0.4320220947265625,1.0877838134765625
1740247036141513500,3.553513427734375,0.1235198974609375,0.4417572021484375,1.1386566162109375
1740247036151494400,3.563494384765625,0.14697265625,0.4490203857421875,1.19891357421875
1740247036161476600,3.5734765625,0.164764404296875,0.4607696533203125,1.2696380615234375
1740247036171457500,3.58345751953125,0.17437744140625,0.4729766845703125,1.366058349609375
1740247036181438700,3.593438720703125,0.1837921142578125,0.48486328125,1.476776123046875
1740247036191420700,3.603420654296875,0.1904449462890625,0.5014495849609375,1.5831298828125
1740247036201401600,3.613401611328125,0.1951446533203125,0.5244140625,1.6820526123046875
1740247036211382500,3.623382568359375,0.188934326171875,0.5460052490234375,1.7776641845703125
1740247036221364500,3.633364501953125,0.1699676513671875,0.5544891357421875,1.871612548828125
1740247036231345700,3.643345703125,0.1407318115234375,0.5407562255859375,1.945465087890625
1740247036241326600,3.65332666015625,0.098724365234375,0.4994049072265625,1.9855499267578125
1740247036251308800,3.663308837890625,0.0558929443359375,0.4399871826171875,2.0027618408203125
1740247036261289500,3.67328955078125,0.02734375,0.3771514892578125,2.0231170654296875
1740247036271271400,3.683271484375,0.0137176513671875,0.33673095703125,2.073028564453125
1740247036281252600,3.693252685546875,0.0117340087890625,0.331634521484375,2.1321868896484375
1740247036291233500,3.703233642578125,0.0061798095703125,0.334228515625,2.152374267578125
1740247036301215700,3.7132158203125,0.002532958984375,0.324676513671875,2.1089324951171875
1740247036311196700,3.72319677734375,0.006561279296875,0.29217529296875,1.998870849609375
1740247036321177600,3.733177490234375,0.027679443359375,0.250091552734375,1.8311614990234375
1740247036331159600,3.74315966796875,0.0653228759765625,0.20245361328125,1.6441192626953125
1740247036341140500,3.753140380859375,0.0960540771484375,0.1548309326171875,1.47900390625
1740247036351121700,3.76312158203125,0.1168060302734375,0.12469482421875,1.3641510009765625
1740247036361103600,3.773103515625,0.133270263671875,0.1138458251953125,1.3033294677734375
1740247036371084800,3.783084716796875,0.1360015869140625,0.116119384765625,1.284698486328125
1740247036381065700,3.793065673828125,0.134307861328125,0.124359130859375,1.2953033447265625
1740247036391047400,3.80304736328125,0.1395263671875,0.148101806640625,1.32391357421875
1740247036401028600,3.813028564453125,0.1446990966796875,0.1839599609375,1.3467254638671875
1740247036411009500,3.823009521484375,0.1422882080078125,0.218109130859375,1.3459320068359375
1740247036420991700,3.83299169921875,0.1305084228515625,0.250640869140625,1.3275299072265625
1740247036430972700,3.84297265625,0.119476318359375,0.290069580078125,1.307647705078125
1740247036440954600,3.85295458984375,0.1051025390625,0.34393310546875,1.2986602783203125
1740247036450935600,3.862935546875,0.0877685546875,0.393524169921875,1.2935333251953125
1740247036460916500,3.87291650390625,0.0686798095703125,0.439361572265625,1.302825927734375
1740247036470898700,3.882898681640625,0.044342041015625,0.480194091796875,1.31646728515625
1740247036480879600,3.892879638671875,0.0240325927734375,0.510345458984375,1.326446533203125
1740247036490860500,3.902860595703125,0.005889892578125,0.5277557373046875,1.3168487548828125
1740247036500843500,3.912843505859375,-0.006927490234375,0.5321197509765625,1.285980224609375
1740247036510824700,3.92282470703125,-0.0218658447265625,0.53228759765625,1.2487335205078125
1740247036520805600,3.9328056640625,-0.0424652099609375,0.5245208740234375,1.2201385498046875
1740247036530787600,3.94278759765625,-0.0529022216796875,0.52703857421875,1.20355224609375
1740247036540768500,3.9527685546875,-0.0791168212890625,0.539947509765625,1.2046051025390625
1740247036550749400,3.96274951171875,-0.0944366455078125,0.5464935302734375,1.21197509765625
1740247036560731600,3.972731689453125,-0.09002685546875,0.5564422607421875,1.218414306640625
1740247036570712600,3.982712646484375,-0.0655364990234375,0.5773773193359375,1.2137908935546875
1740247036580694800,3.99269482421875,-0.0346527099609375,0.5999908447265625,1.19390869140625
1740247036590675700,4.00267578125,-0.01446533203125,0.6195068359375,1.1671600341796875
1740247036600656400,4.012656494140625,-0.0086212158203125,0.6394500732421875,1.14019775390625
1740247036610638600,4.022638671875,-0.0135040283203125,0.6513519287109375,1.1143798828125
1740247036620619500,4.03261962890625,-0.0275726318359375,0.655914306640625,1.097503662109375
1740247036630600700,4.0426005859375,-0.046112060546875,0.6645965576171875,1.092041015625
1740247036640582700,4.052582763671875,-0.062164306640625,0.68316650390625,1.0906219482421875
1740247036650563600,4.0625634765625,-0.0723419189453125,0.7067108154296875,1.090850830078125
1740247036660544500,4.07254443359375,-0.0815887451171875,0.7318878173828125,1.0906524658203125
1740247036670526500,4.0825263671875,-0.0846710205078125,0.7526702880859375,1.0785064697265625
1740247036680507600,4.092507568359375,-0.0907135009765625,0.7661590576171875,1.0596923828125
1740247036690488600,4.102488525390625,-0.095794677734375,0.775421142578125,1.044647216796875
1740247036700470800,4.112470703125,-0.102447509765625,0.798126220703125,1.045928955078125
1740247036710451700,4.12245166015625,-0.1074676513671875,0.833343505859375,1.058624267578125
1740247036720432600,4.1324326171875,-0.114715576171875,0.859222412109375,1.0675506591796875
1740247036730414600,4.14241455078125,-0.1170196533203125,0.8740997314453125,1.0708465576171875
1740247036740395500,4.1523955078125,-0.1105499267578125,0.895233154296875,1.0760040283203125
1740247036750377700,4.162377685546875,-0.0970306396484375,0.9271392822265625,1.0557708740234375
1740247036760358700,4.172358642578125,-0.0864410400390625,0.936859130859375,0.99298095703125
1740247036770339600,4.182339599609375,-0.07879638671875,0.9073333740234375,0.89471435546875
1740247036780321500,4.192321533203125,-0.063629150390625,0.8719635009765625,0.7738189697265625
1740247036790302500,4.202302490234375,-0.032501220703125,0.861175537109375,0.662109375
1740247036800283600,4.21228369140625,0.021240234375,0.8884735107421875,0.56256103515625
1740247036810265600,4.222265625,0.080657958984375,0.94219970703125,0.492523193359375
1740247036820246800,4.232246826171875,0.1288604736328125,0.986297607421875,0.4482879638671875
1740247036830227700,4.242227783203125,0.1548614501953125,0.97991943359375,0.40679931640625
1740247036840209400,4.25220947265625,0.17193603515625,0.926422119140625,0.365325927734375
1740247036850190600,4.262190673828125,0.1963653564453125,0.8602447509765625,0.3422088623046875
1740247036860172500,4.272172607421875,0.2229461669921875,0.8133392333984375,0.341796875
1740247036870152400,4.28215234375,0.236907958984375,0.7857666015625,0.357879638671875
1740247036880133600,4.292133544921875,0.2364959716796875,0.7679290771484375,0.387939453125
1740247036890115600,4.302115478515625,0.2096710205078125,0.7551727294921875,0.4381256103515625
1740247036900096800,4.3120966796875,0.1624755859375,0.7660369873046875,0.517822265625
1740247036910077700,4.32207763671875,0.1056060791015625,0.79583740234375,0.6238861083984375
1740247036920059600,4.3320595703125,0.048828125,0.8279876708984375,0.73150634765625
1740247036930040600,4.34204052734375,0.0038604736328125,0.8423309326171875,0.826416015625
1740247036940021500,4.352021484375,-0.031219482421875,0.8401641845703125,0.9025115966796875
1740247036950003700,4.362003662109375,-0.056884765625,0.8295440673828125,0.9608612060546875
1740247036959984600,4.371984619140625,-0.067596435546875,0.8163909912109375,0.99908447265625
1740247036969965800,4.3819658203125,-0.061126708984375,0.786865234375,1.000213623046875
1740247036979947500,4.391947509765625,-0.0494232177734375,0.74298095703125,0.9893341064453125
1740247036989928400,4.401928466796875,-0.0439453125,0.7139129638671875,0.9931640625
1740247036999910700,4.41191064453125,-0.039031982421875,0.6971282958984375,1.008026123046875
1740247037009891600,4.4218916015625,-0.0281524658203125,0.6729736328125,1.0261688232421875
1740247037019872800,4.431872802734375,-0.0216217041015625,0.64630126953125,1.0399017333984375
1740247037029854500,4.4418544921875,-0.020263671875,0.628814697265625,1.0686187744140625
1740247037039835600,4.451835693359375,-0.01812744140625,0.6227569580078125,1.092529296875
1740247037049816600,4.461816650390625,-0.019134521484375,0.6021881103515625,1.094024658203125
1740247037059798500,4.471798583984375,-0.0172119140625,0.584442138671875,1.0777740478515625
1740247037069779700,4.48177978515625,-0.014404296875,0.58184814453125,1.056427001953125
1740247037079760600,4.4917607421875,-0.00927734375,0.58367919921875,1.0499420166015625
1740247037089742600,4.50174267578125,-0.0034027099609375,0.5856170654296875,1.0685272216796875
1740247037099723800,4.511723876953125,0.0227813720703125,0.5623931884765625,1.1057586669921875
1740247037109704700,4.52170458984375,0.0736083984375,0.5326690673828125,1.141387939453125
1740247037119686700,4.531686767578125,0.14154052734375,0.5154266357421875,1.180267333984375
1740247037129667800,4.541667724609375,0.208648681640625,0.5196990966796875,1.2095489501953125
1740247037139649500,4.5516494140625,0.25189208984375,0.5365447998046875,1.22125244140625
1740247037149630700,4.561630615234375,0.262847900390625,0.545257568359375,1.220916748046875
1740247037159611600,4.571611572265625,0.2384033203125,0.5299530029296875,1.2250823974609375
1740247037169593900,4.58159375,0.186920166015625,0.5086517333984375,1.2663421630859375
1740247037179574800,4.59157470703125,0.1331329345703125,0.493988037109375,1.33245849609375
1740247037189555700,4.6015556640625,0.0972900390625,0.4730377197265625,1.417083740234375
1740247037199537700,4.61153759765625,0.08294677734375,0.4420013427734375,1.4812774658203125
1740247037209518600,4.6215185546875,0.074005126953125,0.4029388427734375,1.519561767578125
1740247037219499500,4.63149951171875,0.0594482421875,0.3686370849609375,1.550079345703125
1740247037229481700,4.641481689453125,0.0398712158203125,0.3301849365234375,1.579803466796875
1740247037239462700,4.651462646484375,0.01702880859375,0.28631591796875,1.6097564697265625
1740247037249443800,4.66144384765625,-0.003265380859375,0.2462310791015625,1.6573028564453125
1740247037259425500,4.671425537109375,-0.011260986328125,0.2092742919921875,1.7249603271484375
1740247037269406700,4.68140673828125,-0.0030059814453125,0.1801300048828125,1.794281005859375
1740247037279387600,4.6913876953125,0.014312744140625,0.1548004150390625,1.858428955078125
1740247037289369900,4.701369873046875,0.031951904296875,0.14849853515625,1.9098663330078125
1740247037299350800,4.711350830078125,0.058502197265625,0.1630706787109375,1.95953369140625
1740247037309332700,4.721332763671875,0.09417724609375,0.1978912353515625,1.998199462890625
1740247037319313700,4.731313720703125,0.142913818359375,0.256378173828125,2.031219482421875
1740247037329294600,4.741294677734375,0.1985015869140625,0.328277587890625,2.0628509521484375
1740247037339276800,4.75127685546875,0.2496337890625,0.38555908203125,2.0677947998046875
1740247037349257700,4.7612578125,0.290283203125,0.41387939453125,2.025482177734375
1740247037359238700,4.77123876953125,0.30352783203125,0.3912200927734375,1.938751220703125
1740247037369220600,4.781220703125,0.3014373779296875,0.309356689453125,1.8082733154296875
1740247037379201500,4.791201416015625,0.2982330322265625,0.2165679931640625,1.67181396484375
1740247037389182700,4.8011826171875,0.2989044189453125,0.17242431640625,1.5730743408203125
1740247037399164700,4.81116455078125,0.2953338623046875,0.19000244140625,1.5230712890625
1740247037409145600,4.8211455078125,0.2787017822265625,0.2469329833984375,1.4932861328125
1740247037419127800,4.8311279296875,0.2411651611328125,0.3004150390625,1.46661376953125
1740247037429108700,4.841108642578125,0.19677734375,0.339813232421875,1.4458160400390625
1740247037439089700,4.851089599609375,0.1662750244140625,0.3737030029296875,1.444000244140625
1740247037449071600,4.861071533203125,0.1553497314453125,0.427398681640625,1.4427642822265625
1740247037459052800,4.871052734375,0.1464080810546875,0.488006591796875,1.4393310546875
1740247037469033700,4.88103369140625,0.1356353759765625,0.531982421875,1.429931640625
1740247037479015700,4.891015625,0.1165618896484375,0.5690460205078125,1.42242431640625
1740247037488996900,4.900996826171875,0.091156005859375,0.603759765625,1.4366455078125
1740247037498977500,4.9109775390625,0.06292724609375,0.6493988037109375,1.4755859375
1740247037508959700,4.920959716796875,0.0379638671875,0.6993865966796875,1.5278472900390625
1740247037518940700,4.930940673828125,0.00994873046875,0.74932861328125,1.5677947998046875
1740247037528923000,4.9409228515625,-0.0253753662109375,0.7914276123046875,1.56707763671875
1740247037538903800,4.95090380859375,-0.0579986572265625,0.8126983642578125,1.5220489501953125
1740247037548884700,4.960884765625,-0.0876617431640625,0.8014373779296875,1.43817138671875
1740247037558866700,4.97086669921875,-0.1053619384765625,0.7568206787109375,1.348358154296875
1740247037568847600,4.98084765625,-0.0938568115234375,0.712310791015625,1.303466796875
1740247037578828800,4.990828857421875,-0.061737060546875,0.7048187255859375,1.331787109375
1740247037588810800,5.000810791015625,-0.0199432373046875,0.7364349365234375,1.386810302734375
1740247037598791700,5.010791748046875,0.0076446533203125,0.7671966552734375,1.4033050537109375
1740247037608772900,5.02077294921875,0.020965576171875,0.7744140625,1.35601806640625
1740247037618754600,5.030754638671875,0.0237274169921875,0.7644500732421875,1.270294189453125
1740247037628735700,5.04073583984375,0.013824462890625,0.7550506591796875,1.192474365234375
1740247037638716700,5.050716552734375,0.0009307861328125,0.744049072265625,1.135498046875
1740247037648699000,5.060698974609375,-0.0115966796875,0.7281494140625,1.1021270751953125
1740247037658679800,5.0706796875,-0.012939453125,0.71734619140625,1.0962371826171875
1740247037668661500,5.08066162109375,0.000946044921875,0.718963623046875,1.0903167724609375
1740247037678642700,5.090642578125,0.021881103515625,0.7205352783203125,1.0714111328125
1740247037688623600,5.10062353515625,0.0363922119140625,0.7217254638671875,1.0370330810546875
1740247037698605800,5.110605712890625,0.0404815673828125,0.71893310546875,0.991119384765625
1740247037708586800,5.120586669921875,0.032379150390625,0.7145538330078125,0.9418182373046875
1740247037718567700,5.130567626953125,0.0134429931640625,0.7052001953125,0.8933868408203125
1740247037728549600,5.140549560546875,-0.0126953125,0.6993560791015625,0.8636322021484375
1740247037738530600,5.150530517578125,-0.037750244140625,0.7092437744140625,0.854095458984375
1740247037748511700,5.16051171875,-0.053192138671875,0.7307586669921875,0.850341796875
1740247037758493700,5.17049365234375,-0.055511474609375,0.7575531005859375,0.846343994140625
1740247037768475000,5.180474853515625,-0.0480804443359375,0.7889404296875,0.8285064697265625
1740247037778456600,5.19045654296875,-0.035675048828125,0.824371337890625,0.78936767578125
1740247037788437500,5.2004375,-0.023101806640625,0.849639892578125,0.73297119140625
1740247037798418700,5.210418701171875,-0.006927490234375,0.8584442138671875,0.6634521484375
1740247037808400600,5.220400634765625,0.00616455078125,0.84954833984375,0.5775604248046875
1740247037818381800,5.2303818359375,0.0204620361328125,0.8164520263671875,0.487030029296875
1740247037828362800,5.24036279296875,0.036102294921875,0.7822723388671875,0.4078216552734375
1740247037838344700,5.2503447265625,0.062103271484375,0.7738800048828125,0.36370849609375
1740247037848325600,5.26032568359375,0.0919036865234375,0.79595947265625,0.3573760986328125
1740247037858306600,5.270306640625,0.1145172119140625,0.8227691650390625,0.36590576171875
1740247037868288800,5.280288818359375,0.1158905029296875,0.8258056640625,0.3726654052734375
1740247037878269700,5.290269775390625,0.1011199951171875,0.8059539794921875,0.3786163330078125
1740247037888252000,5.300251953125,0.0732421875,0.7825164794921875,0.3917236328125
1740247037898232600,5.310232666015625,0.048187255859375,0.7459869384765625,0.40740966796875
1740247037908213500,5.320213623046875,0.0316619873046875,0.709686279296875,0.430633544921875
1740247037918195700,5.33019580078125,0.020111083984375,0.685638427734375,0.4683074951171875
1740247037928176600,5.3401767578125,0.0157928466796875,0.66632080078125,0.52130126953125
1740247037938157800,5.35015771484375,0.01678466796875,0.6558990478515625,0.5953216552734375
1740247037948139800,5.360139892578125,0.0257110595703125,0.6573638916015625,0.6893310546875
1740247037958120700,5.37012060546875,0.0519866943359375,0.6753692626953125,0.787811279296875
1740247037968101600,5.3801015625,0.0847625732421875,0.694122314453125,0.8750762939453125
1740247037978083600,5.39008349609375,0.1151885986328125,0.712371826171875,0.94439697265625
1740247037988064800,5.400064697265625,0.1392974853515625,0.7279815673828125,1.003509521484375
1740247037998045700,5.410045654296875,0.162017822265625,0.7381134033203125,1.056671142578125
1740247038008028000,5.42002783203125,0.181365966796875,0.7373504638671875,1.1067352294921875
1740247038018008800,5.4300087890625,0.193206787109375,0.7276153564453125,1.1396026611328125
1740247038027990800,5.43999072265625,0.2004241943359375,0.713592529296875,1.1511688232421875
1740247038037971700,5.4499716796875,0.2037506103515625,0.702850341796875,1.148712158203125
1740247038047952600,5.45995263671875,0.2000732421875,0.7014923095703125,1.144073486328125
1740247038057934800,5.469934814453125,0.1759490966796875,0.7015228271484375,1.142547607421875
1740247038067915800,5.479915771484375,0.1347198486328125,0.70404052734375,1.1416473388671875
1740247038077896700,5.489896728515625,0.0841522216796875,0.7084197998046875,1.139678955078125
1740247038087878700,5.499878662109375,0.0225982666015625,0.698486328125,1.139984130859375
1740247038097860000,5.509860107421875,-0.0379638671875,0.678802490234375,1.156646728515625
1740247038107841300,5.51984130859375,-0.076629638671875,0.6546783447265625,1.1784515380859375
1740247038117823200,5.5298232421875,-0.0930633544921875,0.6251983642578125,1.19921875
1740247038127804200,5.53980419921875,-0.0895233154296875,0.6013031005859375,1.2250823974609375
1740247038137786000,5.5497861328125,-0.0763092041015625,0.591766357421875,1.2517547607421875
1740247038147767300,5.559767333984375,-0.0659942626953125,0.588348388671875,1.2729644775390625
1740247038157748200,5.569748291015625,-0.0656585693359375,0.5804290771484375,1.2995758056640625
1740247038167730200,5.579730224609375,-0.0757598876953125,0.5685882568359375,1.331024169921875
1740247038177711400,5.58971142578125,-0.0854644775390625,0.551239013671875,1.3668670654296875
1740247038187692300,5.5996923828125,-0.088287353515625,0.52044677734375,1.4192047119140625
1740247038197674200,5.60967431640625,-0.0797882080078125,0.47125244140625,1.472869873046875
1740247038207655200,5.6196552734375,-0.0497283935546875,0.4185333251953125,1.526397705078125
1740247038217636000,5.629635986328125,-0.0052947998046875,0.3720703125,1.56451416015625
1740247038227618300,5.639618408203125,0.0372314453125,0.3278045654296875,1.5731964111328125
1740247038237599200,5.64959912109375,0.07208251953125,0.2939453125,1.564239501953125
1740247038247581200,5.659581298828125,0.10443115234375,0.2719573974609375,1.5551910400390625
1740247038257562000,5.66956201171875,0.1286163330078125,0.261993408203125,1.5601959228515625
1740247038267543300,5.679543212890625,0.1522369384765625,0.2672882080078125,1.591217041015625
1740247038277525200,5.689525146484375,0.173126220703125,0.2896270751953125,1.63702392578125
1740247038287506200,5.699506103515625,0.1853179931640625,0.3203887939453125,1.6839599609375
1740247038297487400,5.7094873046875,0.1937408447265625,0.35382080078125,1.7308807373046875
1740247038307469000,5.719468994140625,0.200927734375,0.3903350830078125,1.7650299072265625
1740247038317450200,5.7294501953125,0.1950531005859375,0.419891357421875,1.7879486083984375
1740247038327431200,5.73943115234375,0.171234130859375,0.4141845703125,1.7940826416015625
1740247038337413400,5.749413330078125,0.1472320556640625,0.3619537353515625,1.7831268310546875
1740247038347394300,5.759394287109375,0.161834716796875,0.322998046875,1.7573394775390625
1740247038357376000,5.7693759765625,0.188568115234375,0.3275604248046875,1.7481231689453125
1740247038367357200,5.779357177734375,0.197418212890625,0.3586883544921875,1.7716064453125
1740247038377338000,5.789338134765625,0.1785125732421875,0.3825836181640625,1.7952728271484375
1740247038387320300,5.7993203125,0.1362457275390625,0.3658447265625,1.789794921875
1740247038397301200,5.80930126953125,0.0775604248046875,0.3246612548828125,1.757415771484375
1740247038407282200,5.8192822265625,0.0206756591796875,0.2783050537109375,1.7061004638671875
1740247038417264000,5.82926416015625,-0.033203125,0.217193603515625,1.6299896240234375
1740247038427245000,5.8392451171875,-0.0711822509765625,0.1519012451171875,1.5428619384765625
1740247038437226200,5.849226318359375,-0.08758544921875,0.1052703857421875,1.468017578125
1740247038447208200,5.859208251953125,-0.0790252685546875,0.09869384765625,1.4178924560546875
1740247038457189400,5.869189453125,-0.059234619140625,0.13409423828125,1.3949737548828125
1740247038467171000,5.879171142578125,-0.0364990234375,0.1946868896484375,1.38702392578125
1740247038477152000,5.889152099609375,-0.0189361572265625,0.2642822265625,1.3749542236328125
1740247038487133200,5.89913330078125,-0.0104522705078125,0.3228607177734375,1.351348876953125
1740247038497115100,5.909115234375,-0.010650634765625,0.3691558837890625,1.327301025390625
1740247038507096300,5.919096435546875,-0.0149688720703125,0.4179229736328125,1.3193206787109375
1740247038517077200,5.9290771484375,-0.0127716064453125,0.4721832275390625,1.3310394287109375
1740247038527059200,5.93905908203125,-0.0135040283203125,0.528778076171875,1.360870361328125
1740247038537040100,5.9490400390625,-0.0196990966796875,0.568817138671875,1.386383056640625
1740247038547021000,5.95902099609375,-0.0102386474609375,0.5956268310546875,1.4056396484375
1740247038557003300,5.969003173828125,-0.003753662109375,0.618408203125,1.4180145263671875
1740247038566984200,5.978984130859375,0.000457763671875,0.6320343017578125,1.4179534912109375
1740247038576966400,5.98896630859375,0.0117645263671875,0.63818359375,1.4060516357421875
1740247038586947300,5.998947265625,0.0298309326171875,0.6436004638671875,1.3837890625
1740247038596928000,6.008927978515625,0.0447540283203125,0.64013671875,1.3514251708984375
1740247038606910200,6.01891015625,0.0572509765625,0.6314239501953125,1.321380615234375
1740247038616891100,6.02889111328125,0.063262939453125,0.6300811767578125,1.2974395751953125
1740247038626872300,6.038872314453125,0.0571136474609375,0.63714599609375,1.2885589599609375
1740247038636854300,6.048854248046875,0.04852294921875,0.649322509765625,1.29180908203125
1740247038646835200,6.058835205078125,0.032073974609375,0.6677703857421875,1.2877349853515625
1740247038656816000,6.068816162109375,0.0085296630859375,0.686126708984375,1.2729339599609375
1740247038666798000,6.078798095703125,-0.012939453125,0.689727783203125,1.2478790283203125
1740247038676779300,6.088779296875,-0.01959228515625,0.68914794921875,1.223876953125
1740247038686761200,6.09876123046875,-0.0177001953125,0.6974945068359375,1.1942901611328125
1740247038696742400,6.108742431640625,-0.020233154296875,0.7135009765625,1.1709442138671875
1740247038706723300,6.118723388671875,-0.0272674560546875,0.7314605712890625,1.1529998779296875
1740247038716705300,6.128705322265625,-0.039093017578125,0.7437896728515625,1.1405181884765625
1740247038726686200,6.138686279296875,-0.0562896728515625,0.7425079345703125,1.1212158203125
1740247038736667100,6.148667236328125,-0.0744781494140625,0.7421417236328125,1.1040191650390625
1740247038746649300,6.1586494140625,-0.0865936279296875,0.75335693359375,1.0907745361328125
1740247038756630300,6.16863037109375,-0.1008758544921875,0.7651519775390625,1.0753936767578125
1740247038766611200,6.178611083984375,-0.11517333984375,0.772430419921875,1.058868408203125
1740247038776593200,6.18859326171875,-0.12347412109375,0.7890167236328125,1.046783447265625
1740247038786574000,6.198573974609375,-0.1269683837890625,0.817169189453125,1.04541015625
1740247038796556300,6.208556396484375,-0.13201904296875,0.8508758544921875,1.047943115234375
1740247038806537200,6.218537109375,-0.129974365234375,0.88470458984375,1.0502471923828125
1740247038816518400,6.228518310546875,-0.125457763671875,0.9149169921875,1.038970947265625
1740247038826500000,6.2385,-0.1201629638671875,0.9334869384765625,1.0056610107421875
1740247038836481000,6.24848095703125,-0.1180877685546875,0.9234771728515625,0.9453582763671875
1740247038846462200,6.258462158203125,-0.105804443359375,0.893035888671875,0.8595123291015625
1740247038856444200,6.268444091796875,-0.082000732421875,0.8559112548828125,0.767059326171875
1740247038866425300,6.27842529296875,-0.054229736328125,0.819061279296875,0.6761016845703125
1740247038876407000,6.288406982421875,-0.0116119384765625,0.800933837890625,0.602752685546875
1740247038886388200,6.29838818359375,0.0362548828125,0.80804443359375,0.5548248291015625
1740247038896369200,6.308369140625,0.0748138427734375,0.8144073486328125,0.51727294921875
1740247038906351000,6.31835107421875,0.094818115234375,0.8020172119140625,0.4755706787109375
1740247038916332300,6.328332275390625,0.09698486328125,0.770111083984375,0.4354248046875
1740247038926313200,6.338313232421875,0.0836639404296875,0.7301483154296875,0.4117889404296875
1740247038936295200,6.348295166015625,0.0611419677734375,0.688720703125,0.4009552001953125
1740247038946276000,6.358276123046875,0.0357513427734375,0.638946533203125,0.395355224609375
1740247038956257000,6.368257080078125,0.013763427734375,0.581298828125,0.3953094482421875
1740247038966239200,6.3782392578125,-0.00390625,0.5354461669921875,0.403564453125
1740247038976220200,6.38822021484375,-0.0127105712890625,0.508575439453125,0.440948486328125
1740247038986202000,6.3982021484375,-0.011871337890625,0.5096282958984375,0.5
1740247038996183000,6.40818310546875,0.00323486328125,0.5314483642578125,0.5718841552734375
1740247039006164200,6.418164306640625,0.029693603515625,0.5556640625,0.6324920654296875
1740247039016146200,6.428146240234375,0.0623321533203125,0.577850341796875,0.670501708984375
1740247039026127000,6.438127197265625,0.0936126708984375,0.6016998291015625,0.705657958984375
1740247039036108300,6.4481083984375,0.1166534423828125,0.6255340576171875,0.7258758544921875
1740247039046090200,6.45809033203125,0.1227264404296875,0.63824462890625,0.730865478515625
1740247039056071200,6.4680712890625,0.12628173828125,0.62945556640625,0.7455596923828125
1740247039066053000,6.47805322265625,0.1359100341796875,0.623687744140625,0.7837371826171875
1740247039076034300,6.488034423828125,0.146759033203125,0.6080474853515625,0.8224029541015625
1740247039086015200,6.49801513671875,0.1597442626953125,0.5937652587890625,0.8591766357421875
1740247039095997200,6.5079970703125,0.1795806884765625,0.5900115966796875,0.8919219970703125
1740247039105978000,6.51797802734375,0.202880859375,0.59405517578125,0.9181671142578125
1740247039115959000,6.527958984375,0.2201080322265625,0.6024322509765625,0.933380126953125
1740247039125941000,6.53794091796875,0.2173614501953125,0.619842529296875,0.9434356689453125
1740247039135922000,6.547921875,0.188385009765625,0.644378662109375,0.959014892578125
1740247039145903000,6.557903076171875,0.1313629150390625,0.65887451171875,0.97247314453125
1740247039155885000,6.567885009765625,0.057373046875,0.666961669921875,0.9923553466796875
1740247039165866000,6.577865966796875,-0.0095672607421875,0.6769256591796875,1.046844482421875
1740247039175847200,6.58784716796875,-0.058807373046875,0.686248779296875,1.1252899169921875
1740247039185828900,6.597828857421875,-0.079742431640625,0.67877197265625,1.1961669921875
1740247039195810000,6.60781005859375,-0.072906494140625,0.6630401611328125,1.259124755859375
1740247039205792000,6.6177919921875,-0.0450286865234375,0.6562957763671875,1.318695068359375
1740247039215773200,6.627773193359375,-0.0164794921875,0.65277099609375,1.3712158203125
1740247039225754000,6.637754150390625,-0.0040740966796875,0.6456146240234375,1.4200897216796875
1740247039235735800,6.64773583984375,0.003143310546875,0.6327362060546875,1.467437744140625
1740247039245717000,6.657717041015625,-0.002105712890625,0.6096343994140625,1.5086517333984375
1740247039255698000,6.667697998046875,-0.01019287109375,0.5728912353515625,1.542755126953125
1740247039265680100,6.67768017578125,-0.0160675048828125,0.52960205078125,1.58282470703125
1740247039275661000,6.6876611328125,-0.018646240234375,0.4901885986328125,1.6340179443359375
1740247039285643000,6.69764306640625,-0.0217742919921875,0.453125,1.684967041015625
1740247039295624000,6.7076240234375,-0.0245208740234375,0.405731201171875,1.72882080078125
1740247039305604900,6.71760498046875,-0.02728271484375,0.358795166015625,1.77630615234375
1740247039315587000,6.727587158203125,-0.0244293212890625,0.3224639892578125,1.8203582763671875
1740247039325568000,6.737568115234375,-0.0157623291015625,0.2975006103515625,1.863372802734375
1740247039335549200,6.747549072265625,0.0079803466796875,0.2957763671875,1.894500732421875
1740247039345531000,6.75753076171875,0.0474700927734375,0.31549072265625,1.893951416015625
1740247039355511800,6.76751171875,0.0889434814453125,0.3398590087890625,1.855804443359375
1740247039365494000,6.777493896484375,0.128875732421875,0.364288330078125,1.7981109619140625
1740247039375475000,6.787474853515625,0.16192626953125,0.37860107421875,1.73504638671875
1740247039385456000,6.7974560546875,0.189971923828125,0.380462646484375,1.6793060302734375
1740247039395438000,6.80743798828125,0.2260589599609375,0.3922119140625,1.6512603759765625
1740247039405419000,6.8174189453125,0.2700653076171875,0.422637939453125,1.6585235595703125
1740247039415400000,6.82739990234375,0.30694580078125,0.460296630859375,1.6898651123046875
1740247039425382000,6.8373818359375,0.322418212890625,0.478515625,1.708587646484375
1740247039435363000,6.847363037109375,0.303497314453125,0.456268310546875,1.6970062255859375
1740247039445344000,6.857343994140625,0.2634735107421875,0.394012451171875,1.656158447265625
1740247039455326200,6.867326171875,0.2165069580078125,0.297576904296875,1.5806732177734375
1740247039465307000,6.877306884765625,0.18280029296875,0.1887664794921875,1.497283935546875
1740247039475289000,6.8872890625,0.171600341796875,0.1004486083984375,1.435821533203125
1740247039485270000,6.89727001953125,0.1678619384765625,0.0673828125,1.394927978515625
1740247039495251000,6.9072509765625,0.163116455078125,0.0864715576171875,1.3790435791015625
1740247039505233200,6.917233154296875,0.1457366943359375,0.132965087890625,1.383575439453125
1740247039515214000,6.927214111328125,0.1215972900390625,0.19305419921875,1.3969268798828125
1740247039525195000,6.937195068359375,0.0913238525390625,0.2450714111328125,1.422698974609375
1740247039535177000,6.947177001953125,0.069915771484375,0.2927093505859375,1.457550048828125
1740247039545158000,6.957157958984375,0.062042236328125,0.344970703125,1.4962921142578125
1740247039555140000,6.96714013671875,0.07525634765625,0.4009857177734375,1.5311737060546875
1740247039565121000,6.97712109375,0.1041412353515625,0.451995849609375,1.546905517578125
1740247039575102200,6.987102294921875,0.1329193115234375,0.4902496337890625,1.5475006103515625
1740247039585084000,6.997083984375,0.1447296142578125,0.5123443603515625,1.547821044921875
1740247039595064800,7.00706494140625,0.1486053466796875,0.52099609375,1.55462646484375
1740247039605046000,7.0170458984375,0.1615142822265625,0.5255584716796875,1.55859375
1740247039615028000,7.027028076171875,0.189727783203125,0.5526885986328125,1.5449981689453125
1740247039625009200,7.037009033203125,0.2145233154296875,0.593719482421875,1.5155792236328125
1740247039634990000,7.046989990234375,0.226165771484375,0.628265380859375,1.466033935546875
1740247039644972000,7.056971923828125,0.2222747802734375,0.6427764892578125,1.3979339599609375
1740247039654953000,7.066952880859375,0.2021636962890625,0.641571044921875,1.333984375
1740247039664935200,7.07693505859375,0.19012451171875,0.6385955810546875,1.2839508056640625
1740247039674916000,7.086916015625,0.180419921875,0.646759033203125,1.25146484375
1740247039684897000,7.09689697265625,0.1658172607421875,0.6653594970703125,1.22674560546875
1740247039694879000,7.10687890625,0.14385986328125,0.675537109375,1.1962738037109375
1740247039704860000,7.11685986328125,0.116912841796875,0.6770477294921875,1.157928466796875
1740247039714840800,7.1268408203125,0.0984344482421875,0.6834869384765625,1.1199188232421875
1740247039724823000,7.136822998046875,0.08233642578125,0.6960906982421875,1.0772552490234375
1740247039734804000,7.146803955078125,0.0651397705078125,0.7049407958984375,1.03424072265625
1740247039744785200,7.15678515625,0.045257568359375,0.7097930908203125,0.999542236328125
1740247039754766800,7.166766845703125,0.029632568359375,0.718597412109375,0.9721527099609375
1740247039764748000,7.176748046875,0.011322021484375,0.7244110107421875,0.945953369140625
1740247039774730000,7.18672998046875,-0.006072998046875,0.71893310546875,0.9274444580078125
1740247039784711000,7.1967109375,-0.0191802978515625,0.7110595703125,0.915863037109375
1740247039794692000,7.206692138671875,-0.0197906494140625,0.7027740478515625,0.90191650390625
1740247039804673800,7.216673828125,-0.0070343017578125,0.6978302001953125,0.8927001953125
1740247039814655000,7.226655029296875,0.0086212158203125,0.70025634765625,0.88983154296875
1740247039824636000,7.236635986328125,0.023651123046875,0.703521728515625,0.8843231201171875
1740247039834618000,7.2466181640625,0.0365142822265625,0.7041168212890625,0.8699493408203125
1740247039844599000,7.25659912109375,0.047943115234375,0.713958740234375,0.8588409423828125
1740247039854581000,7.2665810546875,0.0514984130859375,0.7354888916015625,0.8484954833984375
1740247039864562000,7.27656201171875,0.0413055419921875,0.7596435546875,0.8326416015625
1740247039874542800,7.28654296875,0.0143890380859375,0.7729339599609375,0.807708740234375
1740247039884525000,7.296525146484375,-0.0227813720703125,0.7711029052734375,0.776702880859375
1740247039894506000,7.306506103515625,-0.0523529052734375,0.7648773193359375,0.745361328125
1740247039904487000,7.31648681640625,-0.06610107421875,0.7677001953125,0.726776123046875
1740247039914469000,7.32646923828125,-0.0577850341796875,0.7825469970703125,0.71624755859375
1740247039924450000,7.336449951171875,-0.0242462158203125,0.80963134765625,0.6991119384765625
1740247039934432000,7.346431884765625,0.0252685546875,0.843231201171875,0.67901611328125
1740247039944413000,7.356412841796875,0.074951171875,0.8739166259765625,0.6433563232421875
1740247039954394000,7.36639404296875,0.1228179931640625,0.88128662109375,0.58197021484375
1740247039964376000,7.3763759765625,0.160888671875,0.8568572998046875,0.49591064453125
1740247039974357000,7.38635693359375,0.1763153076171875,0.811737060546875,0.41204833984375
1740247039984338000,7.396337890625,0.167205810546875,0.7623138427734375,0.3616790771484375
1740247039994320000,7.40631982421875,0.1426849365234375,0.731201171875,0.3571624755859375
1740247040004301000,7.416301025390625,0.11181640625,0.71429443359375,0.400634765625
1740247040014283000,7.426282958984375,0.0886383056640625,0.7020721435546875,0.485687255859375
1740247040024264200,7.43626416015625,0.078826904296875,0.6963958740234375,0.595855712890625
1740247040034245000,7.4462451171875,0.086517333984375,0.699432373046875,0.725006103515625
1740247040044226800,7.456226806640625,0.1066131591796875,0.7159576416015625,0.8622589111328125
1740247040054208000,7.4662080078125,0.1275482177734375,0.7357635498046875,0.986480712890625
1740247040064189000,7.47618896484375,0.1436920166015625,0.7444915771484375,1.0672454833984375
1740247040074171100,7.486171142578125,0.1377105712890625,0.73345947265625,1.094757080078125
1740247040084152000,7.496152099609375,0.1165008544921875,0.700439453125,1.0928955078125
1740247040094134300,7.50613427734375,0.100433349609375,0.6754150390625,1.09307861328125
1740247040104115200,7.516115234375,0.0977935791015625,0.66436767578125,1.1046600341796875
1740247040114096000,7.52609619140625,0.1136932373046875,0.6469879150390625,1.1026153564453125
1740247040124078300,7.536078369140625,0.1410980224609375,0.6208343505859375,1.09014892578125
1740247040134059300,7.546059326171875,0.1639251708984375,0.6026458740234375,1.0688018798828125
1740247040144040400,7.55604052734375,0.1803131103515625,0.5988311767578125,1.03900146484375
1740247040154022100,7.566022216796875,0.1779937744140625,0.5963897705078125,1.0023345947265625
1740247040164003000,7.576003173828125,0.15283203125,0.58770751953125,0.974578857421875
1740247040173985300,7.5859853515625,0.1055755615234375,0.571685791015625,0.9596710205078125
1740247040183966200,7.59596630859375,0.046112060546875,0.5631561279296875,0.9597015380859375
1740247040193947400,7.605947509765625,0.002349853515625,0.552398681640625,0.9834136962890625
1740247040203929000,7.61592919921875,-0.0140380859375,0.545196533203125,1.03765869140625
1740247040213910300,7.62591015625,-0.004608154296875,0.5364532470703125,1.0807037353515625
1740247040223891200,7.63589111328125,0.01019287109375,0.5195465087890625,1.1053466796875
1740247040233873200,7.645873046875,0.021820068359375,0.5107879638671875,1.135345458984375
1740247040243854300,7.655854248046875,0.0316162109375,0.5130767822265625,1.17572021484375
1740247040253835300,7.665835205078125,0.0407867431640625,0.5173187255859375,1.2139739990234375
1740247040263817200,7.675817138671875,0.0476837158203125,0.5120849609375,1.24407958984375
1740247040273798100,7.685798095703125,0.0572052001953125,0.497314453125,1.28179931640625
1740247040283780400,7.6957802734375,0.083099365234375,0.4782562255859375,1.3343658447265625
1740247040293761300,7.70576123046875,0.1123046875,0.4571685791015625,1.3858184814453125
1740247040303742200,7.7157421875,0.13690185546875,0.4323272705078125,1.41619873046875
1740247040313724200,7.72572412109375,0.1490631103515625,0.4065704345703125,1.4342803955078125
1740247040323705000,7.735705078125,0.1548919677734375,0.389068603515625,1.4642791748046875
1740247040333686300,7.745686279296875,0.15533447265625,0.3709564208984375,1.5128173828125
1740247040343668200,7.755668212890625,0.1522369384765625,0.3520355224609375,1.5617218017578125
1740247040353649200,7.765649169921875,0.1484375,0.33636474609375,1.612518310546875
1740247040363631400,7.77563134765625,0.15325927734375,0.3339691162109375,1.67047119140625
1740247040373612300,7.7856123046875,0.154144287109375,0.34454345703125,1.712982177734375
1740247040383593200,7.79559326171875,0.143280029296875,0.34820556640625,1.725616455078125
1740247040393575200,7.8055751953125,0.125244140625,0.3406829833984375,1.710662841796875
1740247040403556400,7.815556396484375,0.1064300537109375,0.3287811279296875,1.679595947265625
1740247040413537300,7.825537353515625,0.094757080078125,0.3076324462890625,1.6468963623046875
1740247040423519200,7.835519287109375,0.0967254638671875,0.29425048828125,1.6228179931640625
1740247040433500400,7.84550048828125,0.1085357666015625,0.30853271484375,1.62530517578125
1740247040443482000,7.855482177734375,0.1276397705078125,0.361297607421875,1.6653594970703125
1740247040453463300,7.86546337890625,0.1455078125,0.4234771728515625,1.721435546875
1740247040463444200,7.8754443359375,0.1464691162109375,0.4506072998046875,1.7558135986328125
1740247040473426400,7.885426513671875,0.1274566650390625,0.4248809814453125,1.740753173828125
1740247040483407400,7.895407470703125,0.0912628173828125,0.3501129150390625,1.6855926513671875
1740247040493389000,7.90538916015625,0.06170654296875,0.258148193359375,1.61688232421875
1740247040503371300,7.915371337890625,0.05072021484375,0.1800384521484375,1.5579833984375
1740247040513352200,7.925352294921875,0.0565338134765625,0.130401611328125,1.5282440185546875
1740247040523334100,7.935334228515625,0.0691070556640625,0.11669921875,1.5204315185546875
1740247040533315000,7.945315185546875,0.0801544189453125,0.144989013671875,1.537689208984375
1740247040543296300,7.955296142578125,0.087554931640625,0.209197998046875,1.5714569091796875
1740247040553278200,7.9652783203125,0.0887908935546875,0.2884063720703125,1.6063079833984375
1740247040563259400,7.97525927734375,0.0846710205078125,0.3601226806640625,1.6242523193359375
1740247040573240300,7.985240234375,0.077056884765625,0.42388916015625,1.632080078125
1740247040583222300,7.99522216796875,0.0675201416015625,0.4813690185546875,1.62762451171875
1740247040593203200,8.005203125,0.0569305419921875,0.5358123779296875,1.60870361328125
1740247040603185200,8.01518505859375,0.0429534912109375,0.5759429931640625,1.5774993896484375
1740247040613166300,8.025166259765625,0.02978515625,0.604827880859375,1.5425262451171875
1740247040623147300,8.035147216796876,0.023834228515625,0.6196746826171875,1.507781982421875
1740247040633129500,8.04512939453125,0.021759033203125,0.6255645751953125,1.4748382568359375
1740247040643110400,8.0551103515625,0.0248565673828125,0.6282501220703125,1.4404296875
1740247040653091000,8.065091064453124,0.0335693359375,0.6287384033203125,1.4051513671875
1740247040663073300,8.0750732421875,0.0463104248046875,0.6338958740234375,1.3687286376953125
1740247040673054200,8.08505419921875,0.056732177734375,0.6441802978515625,1.3297576904296875
1740247040683036400,8.095036376953125,0.0533905029296875,0.657257080078125,1.2984771728515625
1740247040693017300,8.105017333984375,0.04205322265625,0.6730194091796875,1.2649993896484375
1740247040702998300,8.114998291015626,0.024749755859375,0.6847686767578125,1.22735595703125
1740247040712980200,8.124980224609375,0.0046539306640625,0.6939697265625,1.2035064697265625
1740247040722961200,8.134961181640625,-0.0092926025390625,0.7125396728515625,1.18792724609375
1740247040732942300,8.1449423828125,-0.02191162109375,0.7328948974609375,1.17626953125
1740247040742924300,8.15492431640625,-0.02606201171875,0.752349853515625,1.1675872802734375
1740247040752905200,8.1649052734375,-0.02642822265625,0.769775390625,1.1487274169921875
1740247040762887200,8.17488720703125,-0.0263824462890625,0.7753143310546875,1.1232452392578125
1740247040772868000,8.1848681640625,-0.0278167724609375,0.7801971435546875,1.0933685302734375
1740247040782849300,8.194849365234376,-0.0275726318359375,0.7918243408203125,1.0764312744140625
1740247040792831200,8.204831298828125,-0.0284576416015625,0.804931640625,1.0639495849609375
1740247040802812400,8.2148125,-0.0354156494140625,0.824676513671875,1.066650390625
1740247040812793300,8.22479345703125,-0.0486602783203125,0.849884033203125,1.084716796875
1740247040822775300,8.234775390625,-0.066436767578125,0.8638763427734375,1.0965576171875
1740247040832756200,8.244756103515625,-0.081787109375,0.8661651611328125,1.0932159423828125
1740247040842738200,8.25473828125,-0.090911865234375,0.86456298828125,1.07977294921875
1740247040852719400,8.26471923828125,-0.097930908203125,0.869598388671875,1.06884765625
1740247040862700300,8.2747001953125,-0.0994415283203125,0.8777008056640625,1.0477142333984375
1740247040872681200,8.28468115234375,-0.093353271484375,0.8824005126953125,1.0180816650390625
1740247040882663200,8.2946630859375,-0.0797119140625,0.88739013671875,0.9836578369140625
1740247040892644000,8.30464404296875,-0.0629119873046875,0.89361572265625,0.9514923095703125
1740247040902626300,8.314626220703126,-0.0532684326171875,0.897674560546875,0.9024658203125
1740247040912607200,8.324607177734375,-0.048675537109375,0.8810577392578125,0.827484130859375
1740247040922588400,8.33458837890625,-0.0411834716796875,0.84735107421875,0.742919921875
1740247040932570000,8.344570068359374,-0.025543212890625,0.8246002197265625,0.6644439697265625
1740247040942551000,8.354551025390625,0.002044677734375,0.8276824951171875,0.61077880859375
1740247040952532200,8.3645322265625,0.037109375,0.8618621826171875,0.5822906494140625
1740247040962514200,8.37451416015625,0.0693817138671875,0.8971405029296875,0.5628204345703125
1740247040972495400,8.384495361328124,0.0909576416015625,0.9018402099609375,0.52960205078125
1740247040982477300,8.394477294921876,0.106109619140625,0.8759307861328125,0.4809722900390625
1740247040992458200,8.404458251953125,0.1129150390625,0.8417816162109375,0.4358367919921875
1740247041002439200,8.414439208984374,0.1087493896484375,0.8011016845703125,0.39361572265625
1740247041012421000,8.424421142578124,0.099395751953125,0.745819091796875,0.345001220703125
1740247041022402300,8.43440234375,0.08624267578125,0.685272216796875,0.299652099609375
1740247041032383200,8.44438330078125,0.0670318603515625,0.6320953369140625,0.2756805419921875
1740247041042365400,8.454365478515625,0.0386810302734375,0.5905609130859375,0.28924560546875
1740247041052346000,8.46434619140625,0.017242431640625,0.5594482421875,0.3411712646484375
1740247041062328300,8.474328369140625,0.0129852294921875,0.5424957275390625,0.438568115234375
1740247041072309200,8.484309326171875,0.0311279296875,0.5381622314453125,0.5621490478515625
1740247041082290200,8.494290283203124,0.0623321533203125,0.5493621826171875,0.683074951171875
1740247041092272400,8.5042724609375,0.0997772216796875,0.5699920654296875,0.790252685546875
1740247041102253300,8.51425341796875,0.126861572265625,0.5999603271484375,0.88232421875
1740247041112234500,8.524234375,0.143035888671875,0.627197265625,0.9415740966796875
1740247041122216400,8.534216552734375,0.141448974609375,0.642913818359375,0.97528076171875
1740247041132197400,8.544197265625,0.1254119873046875,0.6508636474609375,0.9805450439453125
1740247041142179600,8.5541796875,0.1031646728515625,0.646453857421875,0.971771240234375
1740247041152160500,8.564160400390625,0.0925750732421875,0.6424102783203125,0.9757843017578125
1740247041162141400,8.574141357421874,0.086883544921875,0.6435546875,0.994964599609375
1740247041172123400,8.584123291015626,0.0872344970703125,0.6403350830078125,1.01214599609375
1740247041182104600,8.5941044921875,0.08892822265625,0.6380615234375,1.017974853515625
1740247041192085500,8.60408544921875,0.08929443359375,0.6346282958984375,1.012847900390625
1740247041202067700,8.614067626953124,0.0845184326171875,0.6410064697265625,1.00445556640625
1740247041212048600,8.624048583984376,0.06842041015625,0.6545257568359375,1.006256103515625
1740247041222030300,8.6340302734375,0.0350341796875,0.666107177734375,1.0225067138671875
1740247041232011500,8.644011474609375,-0.0081634521484375,0.6716766357421875,1.0516357421875
1740247041241992400,8.653992431640624,-0.049591064453125,0.68316650390625,1.0902557373046875
1740247041251974700,8.663974609375,-0.067169189453125,0.688995361328125,1.145751953125
1740247041261955600,8.67395556640625,-0.058990478515625,0.683197021484375,1.202667236328125
1740247041271937500,8.6839375,-0.03643798828125,0.6761322021484375,1.2531890869140625
1740247041281918500,8.69391845703125,-0.010223388671875,0.6577911376953125,1.2920074462890625
1740247041291899400,8.7038994140625,0.000091552734375,0.6443023681640625,1.32080078125
1740247041301881600,8.713881591796875,-0.004425048828125,0.6323089599609375,1.3572845458984375
1740247041311862500,8.723862548828125,-0.012786865234375,0.608551025390625,1.3958587646484375
1740247041321843500,8.733843505859374,-0.02001953125,0.57415771484375,1.424346923828125
1740247041331825400,8.743825439453126,-0.0264129638671875,0.535675048828125,1.4492645263671875
1740247041341806300,8.753806396484375,-0.0276031494140625,0.490081787109375,1.47674560546875
1740247041351788500,8.76378857421875,-0.0209808349609375,0.4449005126953125,1.50054931640625
1740247041361769500,8.77376953125,-0.00701904296875,0.4099578857421875,1.522186279296875
1740247041371750700,8.783750732421876,0.006256103515625,0.3876800537109375,1.5437164306640625
1740247041381732400,8.793732421875,0.0128936767578125,0.3740692138671875,1.5795440673828125
1740247041391713300,8.80371337890625,0.017059326171875,0.362884521484375,1.6168975830078125
1740247041401694500,8.813694580078124,0.023590087890625,0.348846435546875,1.6571197509765625
1740247041411676400,8.823676513671876,0.040283203125,0.339141845703125,1.7117919921875
1740247041421657600,8.83365771484375,0.07080078125,0.332427978515625,1.7609100341796875
1740247041431639600,8.8436396484375,0.117706298828125,0.3239593505859375,1.794677734375
1740247041441620500,8.853620361328124,0.1688995361328125,0.317108154296875,1.7904052734375
1740247041451601400,8.863601318359375,0.2097015380859375,0.311187744140625,1.7517242431640625
1740247041461583600,8.87358349609375,0.2468414306640625,0.31524658203125,1.698699951171875
1740247041471564500,8.883564453125,0.2745819091796875,0.321136474609375,1.6506500244140625
1740247041481546500,8.89354638671875,0.2926788330078125,0.334320068359375,1.622833251953125
1740247041491527700,8.903527587890625,0.295989990234375,0.3584747314453125,1.621063232421875
1740247041501508400,8.91350830078125,0.286773681640625,0.3861236572265625,1.6407470703125
1740247041511490600,8.923490478515625,0.2630767822265625,0.400390625,1.6628875732421875
1740247041521471500,8.933471435546876,0.234039306640625,0.38623046875,1.662078857421875
1740247041531452400,8.943452392578125,0.205810546875,0.345489501953125,1.62078857421875
1740247041541434600,8.9534345703125,0.1777496337890625,0.2863922119140625,1.540008544921875
1740247041551415600,8.96341552734375,0.1487579345703125,0.2176361083984375,1.4385986328125
1740247041561397500,8.9733974609375,0.118011474609375,0.158355712890625,1.347686767578125
1740247041571378400,8.98337841796875,0.08514404296875,0.114013671875,1.279205322265625
1740247041581359400,8.993359375,0.0595855712890625,0.0948486328125,1.25152587890625
1740247041591341600,9.003341552734375,0.044586181640625,0.1160125732421875,1.268035888671875
1740247041601322500,9.013322509765626,0.048065185546875,0.1684722900390625,1.3167724609375
1740247041611303700,9.0233037109375,0.0634765625,0.2378692626953125,1.36407470703125
1740247041621285400,9.033285400390625,0.08453369140625,0.301605224609375,1.387939453125
1740247041631266600,9.0432666015625,0.0898284912109375,0.3406982421875,1.3809661865234375
1740247041641248500,9.05324853515625,0.0831146240234375,0.3642578125,1.3486175537109375
1740247041651229400,9.0632294921875,0.0716705322265625,0.39068603515625,1.31982421875
1740247041661210600,9.073210693359375,0.0664520263671875,0.4314727783203125,1.3261566162109375
1740247041671192300,9.0831923828125,0.067047119140625,0.4867401123046875,1.3623046875
1740247041681173500,9.093173583984376,0.074371337890625,0.5388336181640625,1.407012939453125
1740247041691154400,9.103154541015625,0.0828857421875,0.585784912109375,1.4452362060546875
1740247041701136600,9.11313671875,0.085845947265625,0.6212921142578125,1.465911865234375
1740247041711117600,9.12311767578125,0.079925537109375,0.64300537109375,1.4627685546875
1740247041721099500,9.133099609375,0.07452392578125,0.6492462158203125,1.45111083984375
1740247041731080400,9.14308056640625,0.0723876953125,0.6534881591796875,1.436248779296875
1740247041741061400,9.153061279296875,0.0682373046875,0.6603546142578125,1.42486572265625
1740247041751043600,9.163043701171874,0.063232421875,0.67578125,1.4186553955078125
1740247041761024500,9.1730244140625,0.060455322265625,0.69439697265625,1.4179229736328125
1740247041771006500,9.18300634765625,0.0503692626953125,0.7093353271484375,1.4168853759765625
1740247041780987400,9.1929873046875,0.0406646728515625,0.7235565185546875,1.4068603515625
1740247041790968300,9.20296826171875,0.035125732421875,0.7401580810546875,1.392425537109375
1740247041800950500,9.212950439453126,0.035003662109375,0.7508087158203125,1.3731842041015625
1740247041810931500,9.222931396484375,0.04632568359375,0.75341796875,1.34478759765625
1740247041820912600,9.23291259765625,0.06103515625,0.7583160400390625,1.3093719482421875
1740247041830894600,9.24289453125,0.0724639892578125,0.769378662109375,1.269317626953125
1740247041840875300,9.252875244140625,0.07672119140625,0.7740478515625,1.22296142578125
1740247041850857500,9.262857421875,0.0763397216796875,0.7750701904296875,1.1724395751953125
1740247041860838400,9.27283837890625,0.0738525390625,0.7739410400390625,1.1242523193359375
1740247041870819600,9.282819580078124,0.0699920654296875,0.7711181640625,1.07757568359375
1740247041880801500,9.292801513671876,0.0609283447265625,0.7649993896484375,1.0244598388671875
1740247041890782700,9.30278271484375,0.0527496337890625,0.75140380859375,0.971282958984375
1740247041900764400,9.312764404296875,0.050933837890625,0.7365264892578125,0.9164886474609375
1740247041910745300,9.322745361328124,0.050445556640625,0.7248992919921875,0.8628387451171875
1740247041920726500,9.3327265625,0.0521392822265625,0.7096710205078125,0.8093719482421875
1740247041930708500,9.34270849609375,0.0647430419921875,0.7065887451171875,0.763214111328125
1740247041940689700,9.352689697265625,0.083953857421875,0.72198486328125,0.72503662109375
1740247041950670600,9.362670654296876,0.108856201171875,0.7438507080078125,0.6806182861328125
1740247041960652500,9.372652587890625,0.1322174072265625,0.760589599609375,0.631744384765625
1740247041970633500,9.382633544921875,0.1451568603515625,0.7646026611328125,0.5780029296875
1740247041980615700,9.39261572265625,0.146026611328125,0.75775146484375,0.525848388671875
1740247041990596600,9.4025966796875,0.13482666015625,0.73388671875,0.468902587890625
1740247042000577500,9.41257763671875,0.1182403564453125,0.7019500732421875,0.4300689697265625
1740247042010559500,9.4225595703125,0.10107421875,0.6876220703125,0.440673828125
1740247042020540400,9.43254052734375,0.0809326171875,0.702728271484375,0.485992431640625
1740247042030522600,9.442522705078124,0.064483642578125,0.7299041748046875,0.5453643798828125
1740247042040503600,9.452503662109375,0.052337646484375,0.7499237060546875,0.5946502685546875
1740247042050484500,9.462484375,0.05181884765625,0.7462615966796875,0.62799072265625
1740247042060466400,9.472466552734375,0.0683135986328125,0.730194091796875,0.6486358642578125
1740247042070447400,9.482447265625,0.100860595703125,0.7236328125,0.66656494140625
1740247042080428500,9.492428466796875,0.1392822265625,0.7162628173828125,0.6645965576171875
1740247042090410500,9.502410400390625,0.1670379638671875,0.6904449462890625,0.6305694580078125
1740247042100391200,9.51239111328125,0.19268798828125,0.6542816162109375,0.5768585205078125
1740247042110373000,9.522373046875,0.2061614990234375,0.6071319580078125,0.5224761962890625
1740247042120354000,9.53235400390625,0.2101898193359375,0.5592041015625,0.4876251220703125
1740247042130335000,9.5423349609375,0.1992950439453125,0.5312652587890625,0.485992431640625
1740247042140317000,9.55231689453125,0.1845550537109375,0.5267333984375,0.5484466552734375
1740247042150298000,9.562298095703126,0.172882080078125,0.545562744140625,0.6673431396484375
1740247042160280000,9.572280029296875,0.1623382568359375,0.5832366943359375,0.788330078125
1740247042170261200,9.58226123046875,0.15875244140625,0.6185455322265625,0.892547607421875
1740247042180242200,9.5922421875,0.1647491455078125,0.645782470703125,0.9650115966796875
1740247042190224100,9.60222412109375,0.1728668212890625,0.6735992431640625,0.998321533203125
1740247042200205000,9.612205078125,0.1835784912109375,0.703216552734375,1.0091094970703125
1740247042210186000,9.62218603515625,0.1893768310546875,0.7165069580078125,1.0158233642578125
1740247042220168200,9.632168212890624,0.1869049072265625,0.7150115966796875,1.0307159423828125
1740247042230149000,9.642149169921876,0.1718902587890625,0.713134765625,1.0463409423828125
1740247042240131000,9.652131103515625,0.1479034423828125,0.714752197265625,1.0588531494140625
1740247042250112000,9.662112060546875,0.122100830078125,0.717864990234375,1.0670623779296875
1740247042260093000,9.672093017578124,0.0888671875,0.717681884765625,1.076385498046875
1740247042270075100,9.6820751953125,0.0540313720703125,0.7084197998046875,1.0844879150390625
1740247042280056000,9.69205615234375,0.0228271484375,0.6985321044921875,1.0919036865234375
1740247042290038000,9.7020380859375,-0.0084228515625,0.6831207275390625,1.11212158203125
1740247042300019000,9.71201904296875,-0.04217529296875,0.667327880859375,1.142181396484375
1740247042310000000,9.722000244140625,-0.0757293701171875,0.646240234375,1.160736083984375
1740247042319982000,9.731982177734375,-0.09783935546875,0.6179962158203125,1.1760406494140625
1740247042329963000,9.741962890625,-0.104949951171875,0.602752685546875,1.20367431640625
1740247042339944200,9.751944091796876,-0.0987701416015625,0.5931243896484375,1.2506866455078125
1740247042349926000,9.76192578125,-0.09033203125,0.583740234375,1.3128662109375
1740247042359907000,9.771906982421875,-0.073699951171875,0.56793212890625,1.3782806396484375
1740247042369889000,9.781888916015625,-0.0474700927734375,0.5510711669921875,1.4292449951171875
1740247042379870200,9.7918701171875,-0.01611328125,0.5335540771484375,1.4788055419921875
1740247042389851100,9.80185107421875,0.0196990966796875,0.517303466796875,1.5257415771484375
1740247042399833000,9.8118330078125,0.0529327392578125,0.5045013427734375,1.5516357421875
1740247042409814000,9.82181396484375,0.0641021728515625,0.47900390625,1.559173583984375
1740247042419796000,9.8317958984375,0.059112548828125,0.4285888671875,1.55572509765625
1740247042429777200,9.841777099609375,0.0394287109375,0.36700439453125,1.552734375
1740247042439758000,9.851758056640625,0.010986328125,0.315582275390625,1.567626953125
1740247042449740300,9.861740234375,-0.0086517333984375,0.27740478515625,1.597930908203125
1740247042459721200,9.87172119140625,-0.0120086669921875,0.2532501220703125,1.644073486328125
1740247042469702000,9.881701904296875,0.0035247802734375,0.2461700439453125,1.6958465576171875
1740247042479684000,9.89168408203125,0.0269927978515625,0.2592620849609375,1.74835205078125
1740247042489665000,9.9016650390625,0.0481414794921875,0.28204345703125,1.79547119140625
1740247042499647200,9.911647216796876,0.0640869140625,0.30230712890625,1.82977294921875
1740247042509628200,9.921628173828125,0.08209228515625,0.3196258544921875,1.8397979736328125
1740247042519609000,9.931609130859375,0.1043853759765625,0.340087890625,1.8214569091796875
1740247042529591000,9.941591064453124,0.11669921875,0.3470001220703125,1.7715911865234375
1740247042539572000,9.951572021484376,0.1141204833984375,0.342071533203125,1.7072296142578125
1740247042549554200,9.96155419921875,0.105010986328125,0.340057373046875,1.6497039794921875
1740247042559535000,9.97153515625,0.092742919921875,0.3489227294921875,1.6231231689453125
1740247042569516300,9.981516357421874,0.0825958251953125,0.351531982421875,1.6408538818359375
1740247042579498000,9.991498046875,0.0889892578125,0.3327484130859375,1.66632080078125
1740247042589479000,10.00147900390625,0.115386962890625,0.2899627685546875,1.661224365234375
1740247042599460000,10.011460205078125,0.1555938720703125,0.2315521240234375,1.62896728515625
1740247042609442000,10.021442138671874,0.1826934814453125,0.167236328125,1.56475830078125
1740247042619423200,10.03142333984375,0.176177978515625,0.093414306640625,1.4886016845703125
1740247042629405000,10.041405029296875,0.14239501953125,0.0210113525390625,1.40966796875
1740247042639386000,10.05138623046875,0.0854949951171875,-0.04046630859375,1.355560302734375
1740247042649367000,10.061366943359374,0.022674560546875,-0.075927734375,1.3353271484375
1740247042659349000,10.071348876953126,-0.0311431884765625,-0.0770721435546875,1.336334228515625
1740247042669330200,10.081330078125,-0.0789337158203125,-0.0455169677734375,1.3561859130859375
1740247042679312000,10.091311767578125,-0.120849609375,0.0081329345703125,1.3901824951171875
1740247042689293000,10.10129296875,-0.150543212890625,0.0770111083984375,1.4269866943359375
1740247042699274000,10.11127392578125,-0.15582275390625,0.1573028564453125,1.4644012451171875
1740247042709256200,10.121256103515625,-0.1437530517578125,0.2411346435546875,1.504547119140625
1740247042719237000,10.131237060546875,-0.1248321533203125,0.3250579833984375,1.5295562744140625
1740247042729219000,10.141218994140624,-0.111328125,0.4158477783203125,1.54864501953125
1740247042739200000,10.151199951171876,-0.097900390625,0.4996185302734375,1.5672760009765625
1740247042749181000,10.161180908203125,-0.092254638671875,0.5672149658203125,1.5707855224609375
1740247042759163100,10.1711630859375,-0.0922698974609375,0.6197052001953125,1.55078125
1740247042769144000,10.18114404296875,-0.103485107421875,0.6520538330078125,1.5224151611328125
1740247042779125000,10.191125,-0.1062469482421875,0.668243408203125,1.4951324462890625
1740247042789107200,10.201107177734375,-0.1029205322265625,0.65899658203125,1.467041015625
1740247042799088000,10.211088134765625,-0.07672119140625,0.648223876953125,1.4522705078125
1740247042809070000,10.221070068359374,-0.0162353515625,0.6748504638671875,1.43341064453125
1740247042819051000,10.231051025390625,0.046142578125,0.7093353271484375,1.4081268310546875
1740247042829032200,10.2410322265625,0.090118408203125,0.7335968017578125,1.3675384521484375
1740247042839014100,10.25101416015625,0.121429443359375,0.7447967529296875,1.3159637451171875
1740247042848995000,10.2609951171875,0.133575439453125,0.7455291748046875,1.2691497802734375
1740247042858977000,10.27097705078125,0.1290283203125,0.7447052001953125,1.2376708984375
1740247042868958000,10.2809580078125,0.113861083984375,0.742767333984375,1.2209625244140625
1740247042878939100,10.290939208984375,0.100616455078125,0.750244140625,1.2220458984375
1740247042888921000,10.300921142578124,0.0904388427734375,0.7633819580078125,1.2276611328125
1740247042898902300,10.31090234375,0.0823822021484375,0.7690277099609375,1.23138427734375
1740247042908883200,10.32088330078125,0.0792999267578125,0.7793121337890625,1.2239990234375
1740247042918865000,10.330864990234375,0.08551025390625,0.787261962890625,1.1960906982421875
1740247042928846000,10.34084619140625,0.0938568115234375,0.787445068359375,1.1546630859375
1740247042938828000,10.350828125,0.09783935546875,0.7936248779296875,1.12152099609375
1740247042948809200,10.360809326171875,0.0894775390625,0.80645751953125,1.1008453369140625
1740247042958790100,10.3707900390625,0.0655059814453125,0.8088531494140625,1.082855224609375
1740247042968772000,10.380772216796874,0.034698486328125,0.7968597412109375,1.067413330078125
1740247042978753000,10.3907529296875,0.006195068359375,0.793975830078125,1.0544281005859375
1740247042988735200,10.4007353515625,-0.0164031982421875,0.8086700439453125,1.0408477783203125
1740247042998716200,10.410716064453124,-0.020751953125,0.8289947509765625,1.020660400390625
1740247043008697000,10.420697021484376,-0.0162506103515625,0.8556671142578125,0.987701416015625
1740247043018679000,10.430678955078125,-0.00531005859375,0.8842620849609375,0.9484405517578125
1740247043028660000,10.440659912109375,0.0080718994140625,0.9145660400390625,0.8950347900390625
1740247043038642200,10.45064208984375,0.018310546875,0.9298248291015625,0.813446044921875
1740247043048623000,10.460623046875,0.02459716796875,0.916412353515625,0.7108001708984375
1740247043058604000,10.47060400390625,0.0222625732421875,0.8822784423828125,0.5994873046875
1740247043068586000,10.4805859375,0.0196075439453125,0.8409271240234375,0.496368408203125
1740247043078567000,10.49056689453125,0.0188446044921875,0.816253662109375,0.4375457763671875
1740247043088549000,10.500549072265626,0.02081298828125,0.82391357421875,0.4268646240234375
1740247043098529500,10.510529541015625,0.0285797119140625,0.84033203125,0.4420013427734375
1740247043108510700,10.5205107421875,0.0416259765625,0.8472137451171875,0.4589080810546875
1740247043118492700,10.53049267578125,0.059051513671875,0.8467864990234375,0.45989990234375
1740247043128473600,10.5404736328125,0.0806427001953125,0.847564697265625,0.456298828125
1740247043138454800,10.550454833984375,0.1015625,0.8403472900390625,0.44873046875
1740247043148436500,10.5604365234375,0.113067626953125,0.8041229248046875,0.4288330078125
1740247043158417700,10.570417724609374,0.1115264892578125,0.74444580078125,0.4122161865234375
1740247043168399600,10.580399658203126,0.10125732421875,0.6973419189453125,0.43414306640625
1740247043178380800,10.590380859375,0.0933685302734375,0.6851043701171875,0.5127410888671875
1740247043188361700,10.60036181640625,0.086181640625,0.6927337646484375,0.625030517578125
1740247043198343400,10.610343505859374,0.0803070068359375,0.70013427734375,0.751251220703125
1740247043208324600,10.62032470703125,0.0782318115234375,0.700927734375,0.8714447021484375
1740247043218306600,10.630306640625,0.080657958984375,0.7003173828125,0.947418212890625
1740247043228287700,10.640287841796875,0.0762786865234375,0.7164459228515625,0.994171142578125
1740247043238268700,10.6502685546875,0.0600738525390625,0.747589111328125,1.01995849609375
1740247043248250600,10.660250732421876,0.0304718017578125,0.7620391845703125,1.0283966064453125
1740247043258231600,10.6702314453125,-0.007080078125,0.7577362060546875,1.0351715087890625
1740247043268212500,10.68021240234375,-0.04400634765625,0.7411346435546875,1.0499267578125
1740247043278194700,10.690194580078124,-0.067962646484375,0.7130889892578125,1.0714569091796875
1740247043288175600,10.700175537109375,-0.0760955810546875,0.67779541015625,1.0811309814453125
1740247043298157600,10.710157470703125,-0.0714111328125,0.6447601318359375,1.082916259765625
1740247043308138500,10.720138427734375,-0.0499420166015625,0.623382568359375,1.0776214599609375
1740247043318119400,10.730119384765626,-0.0211029052734375,0.60638427734375,1.0613250732421875
1740247043328101600,10.7401015625,0.006134033203125,0.5942840576171875,1.03814697265625
1740247043338082600,10.75008251953125,0.03131103515625,0.577606201171875,1.0283050537109375
1740247043348064800,10.760064697265625,0.0423736572265625,0.5580291748046875,1.02899169921875
1740247043358045700,10.770045654296876,0.0488128662109375,0.544952392578125,1.048797607421875
1740247043368026600,10.780026611328125,0.068145751953125,0.5260162353515625,1.0764007568359375
1740247043378008600,10.790008544921875,0.105499267578125,0.51263427734375,1.106536865234375
1740247043387989500,10.799989501953124,0.15069580078125,0.5202484130859375,1.14776611328125
1740247043397971700,10.8099716796875,0.1898651123046875,0.5371856689453125,1.19586181640625
1740247043407952600,10.81995263671875,0.221832275390625,0.55255126953125,1.2419281005859375
1740247043417933800,10.829933837890625,0.23236083984375,0.55633544921875,1.2801513671875
1740247043427915500,10.83991552734375,0.2154541015625,0.55224609375,1.338165283203125
1740247043437896700,10.849896728515626,0.181549072265625,0.5433807373046875,1.4070892333984375
1740247043447878700,10.859878662109375,0.1517333984375,0.530242919921875,1.4649810791015625
1740247043457859600,10.869859619140625,0.12939453125,0.516510009765625,1.5190887451171875
1740247043467840800,10.8798408203125,0.109405517578125,0.50189208984375,1.569427490234375
1740247043477822500,10.889822509765626,0.08453369140625,0.4786834716796875,1.617401123046875
1740247043487803600,10.8998037109375,0.0588836669921875,0.4473724365234375,1.66241455078125
1740247043497784600,10.90978466796875,0.0291748046875,0.410980224609375,1.707183837890625
1740247043507766800,10.919766845703125,-0.0016326904296875,0.3673248291015625,1.7481536865234375
1740247043517747700,10.929747802734376,-0.02728271484375,0.3141326904296875,1.7841339111328125
1740247043527729400,10.9397294921875,-0.0440521240234375,0.2694244384765625,1.8126068115234375
1740247043537710600,10.949710693359375,-0.06329345703125,0.2393951416015625,1.833038330078125
1740247043547691500,10.95969140625,-0.0830230712890625,0.222015380859375,1.835784912109375
1740247043557673700,10.969673828125,-0.0909881591796875,0.2195587158203125,1.822601318359375
1740247043567654700,10.979654541015625,-0.0771942138671875,0.224273681640625,1.7987823486328125
1740247043577636600,10.98963671875,-0.0240020751953125,0.23834228515625,1.7970428466796875
1740247043587617500,10.999617431640624,0.0625457763671875,0.265899658203125,1.818939208984375
1740247043597598500,11.009598388671876,0.1536712646484375,0.313934326171875,1.822265625
1740247043607580700,11.01958056640625,0.236572265625,0.36474609375,1.8093414306640625
1740247043617561600,11.0295615234375,0.30828857421875,0.376678466796875,1.7672576904296875
1740247043627543800,11.039543701171874,0.3658447265625,0.3310394287109375,1.6923980712890625
1740247043637524500,11.0495244140625,0.400054931640625,0.2582855224609375,1.60076904296875
1740247043647505400,11.05950537109375,0.409759521484375,0.1787872314453125,1.52471923828125
1740247043657487600,11.069487548828125,0.402557373046875,0.1115875244140625,1.474884033203125
1740247043667468500,11.079468505859374,0.3914337158203125,0.0782623291015625,1.4538726806640625
1740247043677450800,11.08945068359375,0.3887176513671875,0.094573974609375,1.4618988037109375
1740247043687431700,11.099431640625,0.379058837890625,0.1641387939453125,1.495086669921875
1740247043697412600,11.10941259765625,0.34771728515625,0.2561492919921875,1.5381622314453125
1740247043707394600,11.11939453125,0.29302978515625,0.337646484375,1.5689544677734375
1740247043717375500,11.12937548828125,0.223175048828125,0.3990936279296875,1.5823974609375
1740247043727356700,11.139356689453125,0.1532135009765625,0.452484130859375,1.5933074951171875
1740247043737338600,11.149338623046875,0.0917510986328125,0.503570556640625,1.5954742431640625
1740247043747319800,11.15931982421875,0.03729248046875,0.5481109619140625,1.5887451171875
1740247043757301500,11.169301513671876,-0.012603759765625,0.589447021484375,1.566986083984375
1740247043767282700,11.17928271484375,-0.0625,0.6145477294921875,1.5352935791015625
1740247043777263600,11.189263671875,-0.102294921875,0.618896484375,1.490936279296875
1740247043787245600,11.19924560546875,-0.127960205078125,0.61737060546875,1.4471282958984375
1740247043797226800,11.209226806640626,-0.1386871337890625,0.6151275634765625,1.40240478515625
1740247043807208400,11.21920849609375,-0.1456756591796875,0.6187591552734375,1.3615570068359375
1740247043817189600,11.229189697265625,-0.1429901123046875,0.63055419921875,1.328277587890625
1740247043827170600,11.239170654296874,-0.129119873046875,0.64300537109375,1.3019561767578125
1740247043837152800,11.24915283203125,-0.111236572265625,0.64837646484375,1.26934814453125
1740247043847133700,11.2591337890625,-0.0843963623046875,0.656951904296875,1.2430419921875
1740247043857115400,11.269115478515625,-0.050140380859375,0.6753387451171875,1.2187957763671875
1740247043867096600,11.2790966796875,-0.0205078125,0.6959991455078125,1.1916961669921875
1740247043877077500,11.289077392578125,-0.00250244140625,0.7092132568359375,1.1722412109375
1740247043887059700,11.299059814453125,0.015411376953125,0.719451904296875,1.15771484375
1740247043897040600,11.30904052734375,0.0323333740234375,0.73162841796875,1.1478729248046875
1740247043907022600,11.319022705078124,0.0422821044921875,0.741668701171875,1.14453125
1740247043917003500,11.32900341796875,0.0465087890625,0.7591705322265625,1.15283203125
1740247043926984400,11.338984375,0.0473480224609375,0.78155517578125,1.15301513671875
1740247043936966700,11.348966552734375,0.0454559326171875,0.7913360595703125,1.1370849609375
1740247043946947600,11.358947509765626,0.0429534912109375,0.7991790771484375,1.1181182861328125
1740247043956929800,11.3689296875,0.0350799560546875,0.8071136474609375,1.1038055419921875
1740247043966910700,11.37891064453125,0.018157958984375,0.820281982421875,1.1084442138671875
1740247043976891400,11.388891357421874,-0.0057525634765625,0.839996337890625,1.125946044921875
1740247043986873600,11.39887353515625,-0.033111572265625,0.8549041748046875,1.14752197265625
1740247043996854500,11.4088544921875,-0.051727294921875,0.8758087158203125,1.1643829345703125
1740247044006836700,11.418836669921875,-0.0520782470703125,0.91864013671875,1.1756591796875
1740247044016817700,11.428817626953125,-0.043060302734375,0.969818115234375,1.1748046875
1740247044026798800,11.438798828125,-0.02911376953125,1.00811767578125,1.1550445556640625
1740247044036780500,11.448780517578125,-0.0148162841796875,1.02911376953125,1.1056976318359375
1740247044046761500,11.458761474609375,-0.0069732666015625,1.0341033935546875,1.0265655517578125
1740247044056742700,11.46874267578125,-0.0054473876953125,1.02520751953125,0.925628662109375
1740247044066724600,11.478724609375,-0.0035552978515625,0.99493408203125,0.8078155517578125
1740247044076705800,11.488705810546875,-0.0027008056640625,0.9456634521484375,0.67913818359375
1740247044086687500,11.4986875,-0.0005035400390625,0.8931884765625,0.565399169921875
1740247044096668700,11.508668701171874,0.001068115234375,0.8626251220703125,0.5066070556640625
1740247044106650000,11.518650146484376,0.0040435791015625,0.8694610595703125,0.518951416015625
1740247044116632000,11.528632080078125,0.0087738037109375,0.8911590576171875,0.567962646484375
1740247044126613200,11.53861328125,0.012420654296875,0.887786865234375,0.5927581787109375
1740247044136595000,11.548594970703125,0.016845703125,0.8593292236328125,0.5866241455078125
1740247044146576100,11.558576171875,0.0156402587890625,0.8311004638671875,0.5678863525390625
1740247044156557000,11.56855712890625,0.012939453125,0.793548583984375,0.518768310546875
1740247044166539300,11.578539306640625,0.011016845703125,0.74420166015625,0.4599761962890625
1740247044176520200,11.588520263671874,0.01123046875,0.70404052734375,0.4139862060546875
1740247044186502000,11.598501953125,0.0093994140625,0.6900634765625,0.4015045166015625
1740247044196483000,11.608483154296875,0.0078277587890625,0.6923065185546875,0.425445556640625
1740247044206464000,11.618464111328125,0.0108642578125,0.700592041015625,0.465057373046875
1740247044216446200,11.6284462890625,0.006378173828125,0.703033447265625,0.514923095703125
1740247044226427100,11.63842724609375,0.0034332275390625,0.6978912353515625,0.5722503662109375
1740247044236409000,11.6484091796875,0.0030670166015625,0.6910552978515625,0.649169921875
1740247044246390000,11.65839013671875,0.007965087890625,0.6817779541015625,0.73626708984375
1740247044256371000,11.668370849609374,0.0208740234375,0.6755218505859375,0.8195953369140625
1740247044266353200,11.678353271484376,0.03448486328125,0.6692352294921875,0.8883819580078125
1740247044276334000,11.688333984375,0.04583740234375,0.65924072265625,0.938812255859375
1740247044286316000,11.69831591796875,0.059600830078125,0.644134521484375,0.968414306640625
1740247044296297000,11.708296875,0.06683349609375,0.6302032470703125,0.9795379638671875
1740247044306278000,11.71827783203125,0.07220458984375,0.6151580810546875,0.9883880615234375
1740247044316260000,11.728260009765625,0.08538818359375,0.6050567626953125,1.0108184814453125
1740247044326241000,11.738240966796875,0.1038360595703125,0.5952911376953125,1.02557373046875
1740247044336223200,11.74822314453125,0.129241943359375,0.5849761962890625,1.0318603515625
1740247044346204200,11.7582041015625,0.15447998046875,0.5747833251953125,1.036956787109375
1740247044356185000,11.76818505859375,0.1704254150390625,0.570343017578125,1.0303497314453125
1740247044366167000,11.7781669921875,0.1738739013671875,0.5734405517578125,1.016632080078125
1740247044376148000,11.78814794921875,0.161285400390625,0.5866546630859375,1.0067291259765625
1740247044386130200,11.798130126953126,0.130615234375,0.6072540283203125,1.0131683349609375
1740247044396111000,11.808111083984375,0.0916900634765625,0.622711181640625,1.058074951171875
1740247044406092300,11.81809228515625,0.0644378662109375,0.635284423828125,1.1380767822265625
1740247044416074000,11.828073974609374,0.0589447021484375,0.6399078369140625,1.2128448486328125
1740247044426055200,11.83805517578125,0.0869903564453125,0.63812255859375,1.283111572265625
1740247044436036000,11.8480361328125,0.1225433349609375,0.6420135498046875,1.3405609130859375
1740247044446018000,11.85801806640625,0.140960693359375,0.644134521484375,1.38568115234375
1740247044455999200,11.867999267578124,0.1408843994140625,0.639129638671875,1.421356201171875
1740247044465981000,11.87798095703125,0.1251678466796875,0.625885009765625,1.4532928466796875
1740247044475962000,11.887962158203125,0.100189208984375,0.60748291015625,1.4967803955078125
1740247044485943000,11.897943115234375,0.06512451171875,0.5891876220703125,1.5573577880859375
1740247044495925200,11.90792529296875,0.032562255859375,0.5697479248046875,1.6268157958984375
1740247044505907000,11.917906982421876,0.0050048828125,0.532623291015625,1.691162109375
1740247044515887900,11.927887939453125,-0.01318359375,0.4767303466796875,1.7427978515625
1740247044525869000,11.937869140625,-0.0242767333984375,0.4177093505859375,1.7924957275390625
1740247044535851000,11.94785107421875,-0.0269775390625,0.3701171875,1.8632965087890625
1740247044545832200,11.957832275390626,-0.0144500732421875,0.334014892578125,1.946929931640625
1740247044555814100,11.967814208984375,0.0106201171875,0.3070220947265625,2.005584716796875
1740247044565795000,11.977795166015625,0.050537109375,0.284393310546875,2.0137939453125
1740247044575776000,11.98777587890625,0.100372314453125,0.273223876953125,1.9664764404296875
1740247044585758000,11.997758056640626,0.1564483642578125,0.2847747802734375,1.876007080078125
1740247044595739100,12.0077392578125,0.2171478271484375,0.3180694580078125,1.77825927734375
1740247044605721000,12.01772119140625,0.273712158203125,0.3751983642578125,1.7231597900390625
1740247044615702300,12.027702392578124,0.3145294189453125,0.4488677978515625,1.7072296142578125
1740247044625683000,12.037682861328125,0.3414764404296875,0.5157928466796875,1.716033935546875
1740247044635665200,12.0476650390625,0.344573974609375,0.5521087646484375,1.724151611328125
1740247044645646000,12.05764599609375,0.329345703125,0.5475311279296875,1.71014404296875
1740247044655628000,12.0676279296875,0.3019256591796875,0.4839935302734375,1.658294677734375
1740247044665609200,12.077609130859376,0.2728271484375,0.3683929443359375,1.566436767578125
1740247044675590100,12.087590087890625,0.2371063232421875,0.2492828369140625,1.490875244140625
1740247044685572000,12.097572021484375,0.2047576904296875,0.1632232666015625,1.4530181884765625
1740247044695553000,12.107552978515624,0.1760711669921875,0.1204071044921875,1.453460693359375
1740247044705534000,12.117533935546875,0.1536407470703125,0.128662109375,1.4831390380859375
1740247044715516200,12.12751611328125,0.1256866455078125,0.1750640869140625,1.5170745849609375
1740247044725497000,12.1374970703125,0.092559814453125,0.235015869140625,1.5439605712890625
1740247044735479000,12.14747900390625,0.0690460205078125,0.2896575927734375,1.54449462890625
1740247044745460000,12.1574599609375,0.0676727294921875,0.332122802734375,1.5165557861328125
1740247044755441200,12.167441162109375,0.075286865234375,0.375335693359375,1.484344482421875
1740247044765423000,12.177423095703125,0.0962066650390625,0.4185028076171875,1.4479217529296875
1740247044775404000,12.187404052734376,0.121368408203125,0.449371337890625,1.40850830078125
1740247044785386000,12.197385986328126,0.13970947265625,0.467559814453125,1.375396728515625
1740247044795367000,12.207366943359375,0.147613525390625,0.4760284423828125,1.3532867431640625
1740247044805348000,12.21734814453125,0.1429290771484375,0.4789886474609375,1.350006103515625
1740247044815330000,12.227330078125,0.130462646484375,0.4823150634765625,1.3503570556640625
1740247044825311200,12.237311279296875,0.115234375,0.4923095703125,1.3532867431640625
1740247044835293000,12.24729296875,0.1045989990234375,0.513275146484375,1.3579254150390625
1740247044845273900,12.25727392578125,0.09185791015625,0.5417938232421875,1.3531036376953125
1740247044855255000,12.267255126953126,0.0816650390625,0.5716552734375,1.339508056640625
1740247044865237000,12.277237060546875,0.07415771484375,0.6013031005859375,1.324371337890625
1740247044875218200,12.28721826171875,0.06329345703125,0.6342315673828125,1.302337646484375
1740247044885200100,12.2972001953125,0.0447540283203125,0.6694183349609375,1.2855987548828125
1740247044895181000,12.30718115234375,0.0235748291015625,0.7029571533203125,1.2698516845703125
1740247044905162000,12.317161865234375,0.00762939453125,0.7307281494140625,1.250396728515625
1740247044915144000,12.32714404296875,-0.004974365234375,0.7469635009765625,1.2395172119140625
1740247044925125000,12.337125,-0.0187835693359375,0.76715087890625,1.2310333251953125
1740247044935107000,12.347107177734374,-0.0245208740234375,0.786285400390625,1.225830078125
1740247044945088300,12.357088134765625,-0.0216827392578125,0.8037109375,1.2269439697265625
1740247044955069200,12.367069091796875,-0.0158233642578125,0.8217315673828125,1.2141265869140625
1740247044965051100,12.377051025390625,-0.0116424560546875,0.8353729248046875,1.1971588134765625
1740247044975032000,12.387031982421876,-0.0088043212890625,0.8594207763671875,1.1964111328125
1740247044985014000,12.397013916015625,-0.0145111083984375,0.888641357421875,1.1949462890625
1740247044994995200,12.4069951171875,-0.029937744140625,0.89898681640625,1.17822265625
1740247045004976000,12.41697607421875,-0.04852294921875,0.8904571533203125,1.1449432373046875
1740247045014958000,12.4269580078125,-0.0681610107421875,0.8723297119140625,1.108795166015625
1740247045024939000,12.43693896484375,-0.080810546875,0.8634185791015625,1.073944091796875
1740247045034921200,12.446921142578125,-0.0877532958984375,0.8705902099609375,1.0464019775390625
1740247045044902100,12.456902099609374,-0.083099365234375,0.8836822509765625,1.0211334228515625
1740247045054883000,12.466883056640626,-0.0783538818359375,0.89837646484375,0.987396240234375
1740247045064865000,12.476864990234375,-0.0766448974609375,0.9098052978515625,0.9532623291015625
1740247045074846000,12.486845947265625,-0.0667724609375,0.9294281005859375,0.9166717529296875
1740247045084828200,12.496828125,-0.05352783203125,0.9526214599609375,0.87249755859375
1740247045094809000,12.50680908203125,-0.0451202392578125,0.968048095703125,0.80511474609375
1740247045104789800,12.516789794921875,-0.02972412109375,0.958648681640625,0.6933441162109375
1740247045114771700,12.526771728515625,0.0003204345703125,0.9381256103515625,0.5506134033203125
1740247045124752600,12.536752685546874,0.0442657470703125,0.93560791015625,0.413055419921875
1740247045134734600,12.546734619140626,0.0986480712890625,0.9543304443359375,0.301177978515625
1740247045144715800,12.5567158203125,0.1542816162109375,0.972015380859375,0.207427978515625
1740247045154696700,12.56669677734375,0.2035675048828125,0.95489501953125,0.125213623046875
1740247045164679000,12.576678955078124,0.23883056640625,0.9174346923828125,0.0692291259765625
1740247045174659800,12.586659912109376,0.2554931640625,0.884368896484375,0.070281982421875
1740247045184641500,12.5966416015625,0.245635986328125,0.8528900146484375,0.123321533203125
1740247045194622700,12.606622802734375,0.1971435546875,0.805633544921875,0.217193603515625
1740247045204603600,12.616603759765624,0.138336181640625,0.756439208984375,0.3014984130859375
1740247045214585900,12.6265859375,0.087371826171875,0.7283477783203125,0.3780364990234375
1740247045224566800,12.63656689453125,0.0469970703125,0.7341156005859375,0.4783477783203125
1740247045234548700,12.646548828125,0.018707275390625,0.75616455078125,0.609222412109375
1740247045244529700,12.65652978515625,-0.0047149658203125,0.783111572265625,0.7688446044921875
1740247045254510600,12.666510498046875,-0.017242431640625,0.8107452392578125,0.94873046875
1740247045264492800,12.676492919921875,-0.0138397216796875,0.829742431640625,1.112579345703125
1740247045274473700,12.6864736328125,-0.0040130615234375,0.81683349609375,1.230316162109375
1740247045284455700,12.69645556640625,0.017578125,0.7994384765625,1.341278076171875
1740247045294436600,12.7064365234375,0.0344085693359375,0.7653961181640625,1.3962554931640625
1740247045304417500,12.71641748046875,0.051116943359375,0.710968017578125,1.3788909912109375
1740247045314399700,12.726399658203125,0.0639190673828125,0.6568145751953125,1.314422607421875
1740247045324380700,12.736380615234374,0.086822509765625,0.6252288818359375,1.2603607177734375
1740247045334362600,12.746362548828126,0.1181793212890625,0.61865234375,1.2183380126953125
1740247045344343600,12.756343505859375,0.14715576171875,0.6195220947265625,1.1728668212890625
1740247045354324700,12.76632470703125,0.16485595703125,0.6140899658203125,1.1158905029296875
1740247045364306700,12.776306640625,0.1647796630859375,0.605743408203125,1.0636138916015625
1740247045374287600,12.78628759765625,0.1433563232421875,0.5915374755859375,1.0345916748046875
1740247045384269800,12.796269775390625,0.108154296875,0.5717926025390625,1.0349273681640625
1740247045394250800,12.806250732421875,0.06768798828125,0.5517425537109375,1.07025146484375
1740247045404231700,12.816231689453126,0.0572662353515625,0.537017822265625,1.1307373046875
1740247045414213600,12.826213623046876,0.08367919921875,0.516082763671875,1.1682281494140625
1740247045424194800,12.83619482421875,0.12786865234375,0.48419189453125,1.1890411376953125
1740247045434176800,12.8461767578125,0.1671142578125,0.4654998779296875,1.21099853515625
1740247045444157700,12.85615771484375,0.1914825439453125,0.4672393798828125,1.2241668701171875
1740247045454139000,12.866138916015625,0.200897216796875,0.4795989990234375,1.2368011474609375
1740247045464120600,12.87612060546875,0.1922454833984375,0.4908294677734375,1.2520599365234375
1740247045474101800,12.886101806640625,0.169036865234375,0.49365234375,1.2779998779296875
1740247045484083700,12.896083740234374,0.130767822265625,0.4911651611328125,1.315093994140625
1740247045494065000,12.90606494140625,0.091156005859375,0.482879638671875,1.3586883544921875
1740247045504045800,12.9160458984375,0.05596923828125,0.4669342041015625,1.402374267578125
1740247045514027500,12.926027587890625,0.0335845947265625,0.4478759765625,1.4319610595703125
1740247045524008700,12.9360087890625,0.0260467529296875,0.419281005859375,1.447418212890625
1740247045533990700,12.94599072265625,0.0277557373046875,0.39251708984375,1.4620513916015625
1740247045543971800,12.955971923828125,0.0329742431640625,0.379364013671875,1.482025146484375
1740247045553952800,12.965952880859374,0.043701171875,0.374114990234375,1.511749267578125
1740247045563934700,12.975934814453124,0.0546722412109375,0.3724822998046875,1.5498504638671875
1740247045573915600,12.98591552734375,0.06024169921875,0.368927001953125,1.594757080078125
1740247045583897600,12.995897705078125,0.0706787109375,0.3590240478515625,1.6421356201171875
1740247045593878800,13.005878662109374,0.08172607421875,0.333953857421875,1.6749420166015625
1740247045603859700,13.015859619140626,0.102264404296875,0.29339599609375,1.69573974609375
1740247045613841700,13.025841552734375,0.1311492919921875,0.249237060546875,1.6872711181640625
1740247045623822600,13.035822509765625,0.163848876953125,0.21148681640625,1.6592559814453125
1740247045633804800,13.0458046875,0.1984405517578125,0.2069854736328125,1.658233642578125
1740247045643785700,13.05578564453125,0.23162841796875,0.252838134765625,1.688079833984375
1740247045653766700,13.0657666015625,0.25396728515625,0.3152313232421875,1.7341766357421875
1740247045663748900,13.075748779296875,0.258209228515625,0.36029052734375,1.7821502685546875
1740247045673729500,13.0857294921875,0.2450714111328125,0.3641204833984375,1.8101806640625
