time,seconds_elapsed,z,y,x
1740247032608117000,0.020116943359375,0.1540343016386032,0.4894498586654663,0.2215278595685959
1740247032618097700,0.03009765625,0.2025802731513977,0.5767402648925781,0.20002630352973938
1740247032628078800,0.040078857421875,0.25021275877952576,0.5947131514549255,0.1776197999715805
1740247032638060800,0.050060791015625,0.25474920868873596,0.5327483415603638,0.15517254173755646
1740247032648041700,0.060041748046875,0.2149495929479599,0.43195033073425293,0.15991510450839996
1740247032658023000,0.07002294921875,0.15575657784938812,0.2984093427658081,0.19951683282852173
1740247032668004900,0.0800048828125,0.13676103949546814,0.024531709030270576,0.22902412712574005
1740247032677985800,0.08998583984375,0.07089867442846298,0.05393220856785774,0.13711391389369965
1740247032687966700,0.099966796875,-0.04500236362218857,0.33429035544395447,0.20415793359279633
1740247032697949000,0.109948974609375,-0.14598357677459717,0.753606915473938,0.1989690214395523
1740247032707929900,0.119929931640625,-0.1518465131521225,1.132631778717041,0.040343694388866425
1740247032717910800,0.129910888671875,-0.11084715276956558,1.4154309034347534,-0.24474716186523438
1740247032727893000,0.13989306640625,-0.06619606167078018,1.540157437324524,-0.5024530291557312
1740247032737874000,0.1498740234375,0.028269188478589058,1.4239882230758667,-0.6656904220581055
1740247032747854800,0.159854736328125,0.1626001000404358,1.11073899269104,-0.7173178791999817
1740247032757836800,0.1698369140625,0.26994121074676514,0.732685387134552,-0.6861658692359924
1740247032767817700,0.179817626953125,0.3138149082660675,0.45431292057037354,-0.6158722639083862
1740247032777799000,0.189798828125,0.285678893327713,0.3245629072189331,-0.5132268071174622
1740247032787780900,0.19978076171875,0.23831376433372498,0.38573944568634033,-0.37496882677078247
1740247032797761800,0.20976171875,0.2203875035047531,0.6123102903366089,-0.23380503058433533
1740247032807742700,0.21974267578125,0.25826963782310486,0.9348046779632568,-0.09521253407001495
1740247032817725000,0.229724853515625,0.28287485241889954,1.3645774126052856,0.03851250559091568
1740247032827705900,0.239705810546875,0.24144883453845978,1.8812521696090698,0.16529016196727753
1740247032837686800,0.249686767578125,0.1346350461244583,2.4124741554260254,0.282431960105896
1740247032847669000,0.2596689453125,-0.0003480751474853605,2.87502121925354,0.3906409740447998
1740247032857650000,0.26964990234375,-0.11636735498905182,3.21773624420166,0.4652555584907532
1740247032867630800,0.279630859375,-0.22286024689674377,3.442291498184204,0.4722362458705902
1740247032877612800,0.28961279296875,-0.3156258761882782,3.550797462463379,0.39098745584487915
1740247032887593700,0.29959375,-0.40371525287628174,3.580249547958374,0.23582610487937927
1740247032897575000,0.309574951171875,-0.5045452117919922,3.62485408782959,0.0605459026992321
1740247032907556900,0.319556884765625,-0.6114047765731812,3.743673086166382,-0.10112448781728745
1740247032917538000,0.3295380859375,-0.6857040524482727,3.969240427017212,-0.2199760377407074
1740247032927518700,0.339518798828125,-0.7417870163917542,4.297940731048584,-0.26816222071647644
1740247032937500700,0.349500732421875,-0.8148982524871826,4.679607391357422,-0.2593649923801422
1740247032947481900,0.35948193359375,-0.9404540657997131,5.050185680389404,-0.21602711081504822
1740247032957463800,0.3694638671875,-1.1321475505828857,5.361044406890869,-0.1448163092136383
1740247032967445000,0.379445068359375,-1.3880544900894165,5.611332416534424,-0.05409093201160431
1740247032977426000,0.389426025390625,-1.695499062538147,5.796154975891113,0.028920065611600876
1740247032987408000,0.399407958984375,-2.0243539810180664,5.907077789306641,0.07905833423137665
1740247032997388800,0.409388916015625,-2.375549554824829,5.90743350982666,0.07454746961593628
1740247033007369700,0.41936962890625,-2.722913980484009,5.804738998413086,-0.0018317222129553556
1740247033017352000,0.42935205078125,-3.0621070861816406,5.651699542999268,-0.15962187945842743
1740247033027332900,0.439332763671875,-3.3606998920440674,5.468665599822998,-0.3547471761703491
1740247033037314000,0.44931396484375,-3.611600875854492,5.30906343460083,-0.5507704615592957
1740247033047295700,0.459295654296875,-3.8692092895507812,5.175693511962891,-0.7361754775047302
1740247033057276700,0.469276611328125,-4.1772141456604,5.042568683624268,-0.9024336934089661
1740247033067257900,0.4792578125,-4.5686540603637695,4.916646957397461,-1.0228389501571655
1740247033077239800,0.48923974609375,-5.002199649810791,4.766829490661621,-1.05539071559906
1740247033087221200,0.49922119140625,-5.420782566070557,4.5945024490356445,-1.016094446182251
1740247033097202200,0.5092021484375,-5.750993728637695,4.411580562591553,-0.9449974298477173
1740247033107184000,0.51918408203125,-5.960502624511719,4.194547176361084,-0.8778282403945923
1740247033117165000,0.5291650390625,-6.049014091491699,3.946805000305176,-0.8707295656204224
1740247033127146000,0.53914599609375,-6.025513648986816,3.610628604888916,-0.9498470425605774
1740247033137128200,0.549128173828125,-5.906467914581299,3.232039213180542,-1.1183425188064575
1740247033147109000,0.559109130859375,-5.690245628356934,2.7948524951934814,-1.3534046411514282
1740247033157090300,0.56909033203125,-5.445410251617432,2.3372631072998047,-1.6917980909347534
1740247033167072000,0.579072021484375,-5.252204418182373,1.9048032760620117,-2.134779453277588
1740247033177053000,0.589052978515625,-5.083060264587402,1.4607963562011719,-2.5379526615142822
1740247033187034000,0.5990341796875,-4.848698139190674,0.9610232710838318,-2.7400705814361572
1740247033197016000,0.60901611328125,-4.481101989746094,0.39162343740463257,-2.67850399017334
1740247033206997200,0.618997314453125,-3.98823618888855,-0.13558952510356903,-2.3522303104400635
1740247033216978200,0.628978271484375,-3.392681121826172,-0.4640161395072937,-1.8668359518051147
1740247033226960100,0.638960205078125,-2.6867494583129883,-0.6783484220504761,-1.3331835269927979
1740247033236941000,0.648941162109375,-1.95632803440094,-0.7908517718315125,-0.8343456983566284
1740247033246922000,0.658921875,-1.3268201351165771,-0.8080264925956726,-0.4000970721244812
1740247033256904200,0.668904296875,-0.8215223550796509,-0.7839358448982239,-0.028844431042671204
1740247033266885000,0.678885009765625,-0.4446243345737457,-0.7130488753318787,0.2861763536930084
1740247033276867000,0.6888671875,-0.2654697597026825,-0.6049304008483887,0.5050666332244873
1740247033286848000,0.698847900390625,-0.23984241485595703,-0.4337703585624695,0.6276527643203735
1740247033296829000,0.708828857421875,-0.30395111441612244,-0.18614962697029114,0.6580734848976135
1740247033306811100,0.71881103515625,-0.3927973508834839,0.1168307438492775,0.6424394249916077
1740247033316792000,0.7287919921875,-0.4897545278072357,0.4428096413612366,0.6071277260780334
1740247033326773200,0.738773193359375,-0.5822468996047974,0.7200407385826111,0.541410505771637
1740247033336755000,0.7487548828125,-0.6523575782775879,0.8973305225372314,0.3978847861289978
1740247033346736000,0.758736083984375,-0.7117870450019836,0.9858598709106445,0.15107926726341248
1740247033356717000,0.768717041015625,-0.8198277950286865,1.032239317893982,-0.20277361571788788
1740247033366699000,0.778698974609375,-0.976181149482727,1.008818507194519,-0.627546489238739
1740247033376680200,0.78868017578125,-1.1054110527038574,0.9137646555900574,-1.0581543445587158
1740247033386661000,0.7986611328125,-1.1336424350738525,0.8555205464363098,-1.4034843444824219
1740247033396643000,0.80864306640625,-0.9359269738197327,0.7770994901657104,-1.6234755516052246
1740247033406624000,0.8186240234375,-0.38933631777763367,0.5042024254798889,-1.6983792781829834
1740247033416605000,0.82860498046875,0.460188627243042,-0.01846342906355858,-1.6297637224197388
1740247033426587100,0.838587158203125,1.4075762033462524,-0.645789384841919,-1.4357026815414429
1740247033436568000,0.848568115234375,2.3030099868774414,-1.179280161857605,-1.0971094369888306
1740247033446549200,0.85854931640625,3.0705113410949707,-1.503230094909668,-0.6182160973548889
1740247033456531000,0.868531005859375,3.6233906745910645,-1.653343915939331,-0.08223894983530045
1740247033466512000,0.878511962890625,3.9194326400756836,-1.719086766242981,0.4161599278450012
1740247033476493000,0.8884931640625,4.029995918273926,-1.741149663925171,0.8613605499267578
1740247033486475000,0.89847509765625,4.0499043464660645,-1.6662863492965698,1.247025728225708
1740247033496456200,0.908456298828125,4.040874004364014,-1.4738730192184448,1.5773130655288696
1740247033506437000,0.91843701171875,4.038151741027832,-1.1759033203125,1.8555718660354614
1740247033516419000,0.928419189453125,4.053616046905518,-0.8309917449951172,2.0828893184661865
1740247033526400000,0.93839990234375,4.098073482513428,-0.48633795976638794,2.262934923171997
1740247033536382200,0.94838232421875,4.173320770263672,-0.15766392648220062,2.412334680557251
1740247033546363100,0.958363037109375,4.273271083831787,0.18053409457206726,2.5248780250549316
1740247033556344000,0.968343994140625,4.388179302215576,0.520856499671936,2.5964903831481934
1740247033566326000,0.978325927734375,4.509936809539795,0.8005433082580566,2.6394565105438232
1740247033576307000,0.988306884765625,4.6193647384643555,0.9906256198883057,2.6519761085510254
1740247033586287900,0.998287841796875,4.6943230628967285,1.1028847694396973,2.6136369705200195
1740247033596270000,1.00827001953125,4.743128776550293,1.183439016342163,2.5121231079101562
1740247033606251000,1.0182509765625,4.762780666351318,1.2204790115356445,2.3524346351623535
1740247033616232200,1.028232177734375,4.766245365142822,1.202640414237976,2.1416947841644287
1740247033626214100,1.038214111328125,4.751945495605469,1.1222456693649292,1.8889026641845703
1740247033636195000,1.048195068359375,4.728493690490723,0.9890863299369812,1.6162497997283936
1740247033646176000,1.058176025390625,4.692200660705566,0.8454092741012573,1.372249960899353
1740247033656158000,1.068157958984375,4.611708641052246,0.755617618560791,1.1654818058013916
1740247033666139100,1.07813916015625,4.47507381439209,0.7662489414215088,0.9790616035461426
1740247033676120000,1.0881201171875,4.2744340896606445,0.8763815760612488,0.7850993275642395
1740247033686102300,1.098102294921875,4.003774166107178,1.0335935354232788,0.5574422478675842
1740247033696083000,1.1080830078125,3.676809549331665,1.0870813131332397,0.30701425671577454
1740247033706064000,1.11806396484375,3.3178391456604004,0.951667845249176,0.10528940707445145
1740247033716046000,1.128046142578125,2.9773576259613037,0.7245782017707825,0.018092984333634377
1740247033726027000,1.138027099609375,2.7049641609191895,0.5630401968955994,0.04836087301373482
1740247033736008200,1.14800830078125,2.5046141147613525,0.4870213270187378,0.1352640837430954
1740247033745990100,1.157990234375,2.3530919551849365,0.4516771733760834,0.24378177523612976
1740247033755971000,1.16797119140625,2.234204053878784,0.41960233449935913,0.35356658697128296
1740247033765952000,1.177951904296875,2.1388652324676514,0.4097912609577179,0.43561166524887085
1740247033775934000,1.187933837890625,2.099313259124756,0.39630764722824097,0.44208768010139465
1740247033785915100,1.1979150390625,2.1783695220947266,0.3051713705062866,0.3133475184440613
1740247033795897000,1.20789697265625,2.315920829772949,0.17522534728050232,-0.009777529165148735
1740247033805878300,1.217878173828125,2.2964413166046143,0.05133775621652603,-0.5081257820129395
1740247033815859200,1.227859130859375,1.9822137355804443,-0.09944988787174225,-0.9785417914390564
1740247033825841200,1.237841064453125,1.3580806255340576,-0.18984024226665497,-1.2670543193817139
1740247033835822000,1.247822021484375,0.5174476504325867,-0.13445954024791718,-1.369649052619934
1740247033845803000,1.257802978515625,-0.4304608404636383,0.0005659217131324112,-1.3137184381484985
1740247033855785200,1.26778515625,-1.3531463146209717,0.14762727916240692,-1.127119541168213
1740247033865766100,1.27776611328125,-2.106741189956665,0.23112750053405762,-0.8383005261421204
1740247033875747000,1.2877470703125,-2.613477945327759,0.17524638772010803,-0.5129514336585999
1740247033885729000,1.29772900390625,-2.8308608531951904,-0.032043419778347015,-0.2195691019296646
1740247033895710000,1.3077099609375,-2.8052597045898438,-0.27369174361228943,0.011633220128715038
1740247033905691100,1.317691162109375,-2.637589931488037,-0.455477774143219,0.16717806458473206
1740247033915673000,1.327673095703125,-2.467756748199463,-0.4798840582370758,0.20044627785682678
1740247033925654300,1.337654296875,-2.405989408493042,-0.35601431131362915,0.10787693411111832
1740247033935635200,1.34763525390625,-2.4547088146209717,-0.1801529973745346,-0.062370698899030685
1740247033945617200,1.3576171875,-2.5732004642486572,-0.06763444095849991,-0.2358309030532837
1740247033955598000,1.36759814453125,-2.7191665172576904,-0.05565899983048439,-0.36580249667167664
1740247033965579000,1.3775791015625,-2.868480920791626,-0.14986325800418854,-0.43777042627334595
1740247033975561200,1.387561279296875,-2.999506950378418,-0.2834514081478119,-0.4751492142677307
1740247033985542100,1.397542236328125,-3.126572847366333,-0.41571250557899475,-0.4965469241142273
1740247033995523000,1.407523193359375,-3.267500162124634,-0.526090145111084,-0.5017467141151428
1740247034005505000,1.417505126953125,-3.4231345653533936,-0.618723452091217,-0.4850660264492035
1740247034015486000,1.42748583984375,-3.586728572845459,-0.71079421043396,-0.4531509578227997
1740247034025468200,1.43746826171875,-3.7341372966766357,-0.7808960676193237,-0.4199756979942322
1740247034035449000,1.447448974609375,-3.845970869064331,-0.7952409386634827,-0.37683674693107605
1740247034045430300,1.45743017578125,-3.926861047744751,-0.7547299861907959,-0.30751439929008484
1740247034055412000,1.467411865234375,-3.9899754524230957,-0.6778128147125244,-0.2200103998184204
1740247034065393000,1.477392822265625,-4.053639888763428,-0.6098082065582275,-0.13200117647647858
1740247034075374000,1.4873740234375,-4.124332427978516,-0.5872222185134888,-0.0680733248591423
1740247034085356000,1.49735595703125,-4.1923699378967285,-0.5780039429664612,-0.029276128858327866
1740247034095337000,1.5073369140625,-4.232318878173828,-0.5340391397476196,-0.03810663893818855
1740247034105318000,1.51731787109375,-4.236874580383301,-0.47503337264060974,-0.10213835537433624
1740247034115299800,1.5272998046875,-4.249169826507568,-0.38922232389450073,-0.23831988871097565
1740247034125280800,1.53728076171875,-4.3017754554748535,-0.2722131311893463,-0.44232282042503357
1740247034135261700,1.54726171875,-4.419529438018799,-0.15615950524806976,-0.6809620261192322
1740247034145244000,1.557243896484375,-4.615991115570068,-0.08689628541469574,-0.9366771578788757
1740247034155224800,1.567224853515625,-4.830357074737549,-0.12470411509275436,-1.2180243730545044
1740247034165205800,1.577205810546875,-4.982215404510498,-0.2696192264556885,-1.5306651592254639
1740247034175187700,1.587187744140625,-5.0614094734191895,-0.4270666539669037,-1.854640007019043
1740247034185168600,1.597168701171875,-5.081607341766357,-0.5533303022384644,-2.1454854011535645
1740247034195149800,1.60714990234375,-5.062739849090576,-0.6250479221343994,-2.3603971004486084
1740247034205131800,1.6171318359375,-5.00813102722168,-0.6809348464012146,-2.458503007888794
1740247034215113000,1.627113037109375,-4.893506050109863,-0.736488401889801,-2.4342801570892334
1740247034225094000,1.637093994140625,-4.673901081085205,-0.8357657194137573,-2.290748119354248
1740247034235075800,1.647075927734375,-4.348637580871582,-0.9678319096565247,-2.0595531463623047
1740247034245056800,1.657056884765625,-3.9233951568603516,-1.1278926134109497,-1.77618408203125
1740247034255038700,1.667038818359375,-3.39905047416687,-1.2663661241531372,-1.457147240638733
1740247034265020000,1.67702001953125,-2.7999556064605713,-1.3318740129470825,-1.1223580837249756
1740247034275000800,1.687000732421875,-2.1642067432403564,-1.301717758178711,-0.781625509262085
1740247034284983000,1.696983154296875,-1.5364646911621094,-1.2039248943328857,-0.4523661434650421
1740247034294963700,1.706963623046875,-0.9640704393386841,-1.0733973979949951,-0.1388486921787262
1740247034304944600,1.716944580078125,-0.5103607177734375,-0.9178004264831543,0.13233353197574615
1740247034314926800,1.7269267578125,-0.19785209000110626,-0.7498859763145447,0.3490181863307953
1740247034324907800,1.73690771484375,-0.0199835617095232,-0.5876118540763855,0.4873132109642029
1740247034334889000,1.746888916015625,0.062481753528118134,-0.434746116399765,0.5541132688522339
1740247034344871000,1.756870849609375,0.09303087741136551,-0.26829084753990173,0.5559061169624329
1740247034354851800,1.766851806640625,0.09367749094963074,-0.0801457017660141,0.5124334692955017
1740247034364832800,1.776832763671875,0.0834038108587265,0.13522812724113464,0.44357824325561523
1740247034374814700,1.786814697265625,0.0963134840130806,0.36956873536109924,0.37138980627059937
1740247034384796000,1.7967958984375,0.16232793033123016,0.5854959487915039,0.3234177529811859
1740247034394776800,1.80677685546875,0.28703364729881287,0.7669576406478882,0.3264175355434418
1740247034404759000,1.816759033203125,0.4818902015686035,0.9039381146430969,0.37834039330482483
1740247034414740000,1.826739990234375,0.7385312914848328,0.9464911818504333,0.4706255793571472
1740247034424720600,1.836720703125,1.0231750011444092,0.9147167205810547,0.5683193802833557
1740247034434702800,1.846702880859375,1.326316475868225,0.8486663699150085,0.6410329937934875
1740247034444683800,1.856683837890625,1.6302719116210938,0.7845640778541565,0.6734665632247925
1740247034454666000,1.866666015625,1.9143773317337036,0.7395467758178711,0.6763409376144409
1740247034464647000,1.87664697265625,2.1624338626861572,0.6929720640182495,0.6763204336166382
1740247034474627800,1.8866279296875,2.376491069793701,0.634200394153595,0.6899155974388123
1740247034484609800,1.89660986328125,2.5706636905670166,0.5872991681098938,0.7264690399169922
1740247034494590700,1.9065908203125,2.7668910026550293,0.5587096214294434,0.7877369523048401
1740247034504572000,1.916572021484375,2.974210262298584,0.5724957585334778,0.8655545115470886
1740247034514553900,1.926553955078125,3.180471897125244,0.6287145614624023,0.9397179484367371
1740247034524535000,1.93653515625,3.3799245357513428,0.7126099467277527,0.9989908933639526
1740247034534516000,1.946515869140625,3.561373710632324,0.7839669585227966,1.0419780015945435
1740247034544497700,1.95649755859375,3.708932399749756,0.8145691156387329,1.0662471055984497
1740247034554478800,1.966478759765625,3.8278794288635254,0.7752118110656738,1.0741010904312134
1740247034564459800,1.976459716796875,3.9250621795654297,0.7178699970245361,1.066443681716919
1740247034574442000,1.98644189453125,4.004526138305664,0.6952933073043823,1.0311468839645386
1740247034584423000,1.9964228515625,4.0597710609436035,0.7065848112106323,0.9755324125289917
1740247034594403800,2.00640380859375,4.09968900680542,0.7370756268501282,0.9066119194030762
1740247034604385800,2.0163857421875,4.123250961303711,0.7941868305206299,0.8400225043296814
1740247034614366700,2.02636669921875,4.124911785125732,0.8740041851997375,0.7892506718635559
1740247034624348000,2.036347900390625,4.109798908233643,0.9790941476821899,0.7435622811317444
1740247034634329900,2.046329833984375,4.072131633758545,1.1085538864135742,0.7057645916938782
1740247034644310800,2.056310791015625,4.001160144805908,1.2050883769989014,0.648169755935669
1740247034654292000,2.0662919921875,3.911365509033203,1.2462971210479736,0.5763474702835083
1740247034664273700,2.076273681640625,3.812772512435913,1.2468140125274658,0.48860403895378113
1740247034674254800,2.0862548828125,3.7104153633117676,1.2166752815246582,0.4028414487838745
1740247034684236800,2.09623681640625,3.6154463291168213,1.1600886583328247,0.3295768201351166
1740247034694218000,2.106218017578125,3.546419382095337,1.093481421470642,0.26365694403648376
1740247034704199000,2.116198974609375,3.51186203956604,1.0771719217300415,0.19269834458827972
1740247034714180900,2.126180908203125,3.4895870685577393,1.111953616142273,0.10568435490131378
1740247034724161800,2.136161865234375,3.46266770362854,1.1323877573013306,0.017367804422974586
1740247034734142700,2.146142822265625,3.3941123485565186,1.0514801740646362,-0.04604126140475273
1740247034744125000,2.156125,3.2573819160461426,0.8364320397377014,-0.0479600690305233
1740247034754105900,2.16610595703125,3.056631565093994,0.5733849406242371,0.02273806929588318
1740247034764086800,2.176086669921875,2.8102993965148926,0.3456958830356598,0.15417705476284027
1740247034774068700,2.18606884765625,2.5385310649871826,0.19727525115013123,0.2973858714103699
1740247034784049700,2.196049560546875,2.2599337100982666,0.09530334919691086,0.4427603781223297
1740247034794030800,2.20603076171875,1.9945851564407349,0.011058243922889233,0.5406438112258911
1740247034804012800,2.2160126953125,1.7676955461502075,-0.040896568447351456,0.5841454863548279
1740247034813994000,2.225993896484375,1.5550158023834229,-0.04159271717071533,0.5471246242523193
1740247034823975000,2.235974853515625,1.3409109115600586,0.024396419525146484,0.42720380425453186
1740247034833956600,2.24595654296875,1.1059080362319946,0.13915815949440002,0.25046205520629883
1740247034843937800,2.255937744140625,0.8485747575759888,0.21667878329753876,0.0554099939763546
1740247034853918700,2.265918701171875,0.562088668346405,0.20649884641170502,-0.12333205342292786
1740247034863901000,2.27590087890625,0.2504247725009918,0.10288164019584656,-0.2665395438671112
1740247034873881900,2.2858818359375,-0.06715001165866852,-0.024874456226825714,-0.3813534677028656
1740247034883863800,2.29586376953125,-0.3411671817302704,-0.1334265023469925,-0.4715523421764374
1740247034893844700,2.3058447265625,-0.5601027011871338,-0.2411167472600937,-0.5230832099914551
1740247034903825700,2.31582568359375,-0.711530864238739,-0.4080359637737274,-0.511815071105957
1740247034913808000,2.325807861328125,-0.8381505608558655,-0.6293345093727112,-0.46537673473358154
1740247034923788800,2.335788818359375,-0.9691941142082214,-0.8598742485046387,-0.41907235980033875
1740247034933770000,2.34577001953125,-1.1147552728652954,-1.0112336874008179,-0.4295348525047302
1740247034943752000,2.355751953125,-1.292229175567627,-1.0434914827346802,-0.515106201171875
1740247034953732600,2.365732666015625,-1.50303053855896,-0.995691180229187,-0.6645724177360535
1740247034963713800,2.3757138671875,-1.7381922006607056,-0.9176003932952881,-0.8244571685791016
1740247034973695700,2.38569580078125,-1.9737666845321655,-0.8497904539108276,-0.9510547518730164
1740247034983677000,2.395677001953125,-2.1998932361602783,-0.8077636361122131,-1.0204248428344727
1740247034993657900,2.405657958984375,-2.412646770477295,-0.7738123536109924,-1.044793725013733
1740247035003640000,2.41564013671875,-2.5985267162323,-0.7385081648826599,-1.028105616569519
1740247035013620700,2.425620849609375,-2.7675962448120117,-0.7161152362823486,-0.9664824604988098
1740247035023601700,2.4356015625,-2.9299449920654297,-0.7376061081886292,-0.8617855906486511
1740247035033583900,2.445583984375,-3.0868451595306396,-0.7952441573143005,-0.7402823567390442
1740247035043564800,2.455564697265625,-3.225069046020508,-0.8467406034469604,-0.6182592511177063
1740247035053547000,2.465547119140625,-3.3583900928497314,-0.8435458540916443,-0.5067058205604553
1740247035063528000,2.47552783203125,-3.4867351055145264,-0.7709225416183472,-0.4042800962924957
1740247035073508900,2.4855087890625,-3.6134355068206787,-0.6635044813156128,-0.297639936208725
1740247035083490800,2.49549072265625,-3.739870548248291,-0.5542064905166626,-0.18480846285820007
1740247035093471700,2.5054716796875,-3.8535139560699463,-0.47162291407585144,-0.06108279526233673
1740247035103452700,2.51545263671875,-3.937777042388916,-0.420922189950943,0.08276785165071487
1740247035113435000,2.525434814453125,-3.9792068004608154,-0.4033288061618805,0.27086105942726135
1740247035123415800,2.535415771484375,-3.9948716163635254,-0.4418005645275116,0.5071535110473633
1740247035133396700,2.545396728515625,-3.9838473796844482,-0.5256379246711731,0.7410365343093872
1740247035143378700,2.555378662109375,-3.9721384048461914,-0.6266873478889465,0.8837327361106873
1740247035153359600,2.565359619140625,-3.996690034866333,-0.6404470801353455,0.8539601564407349
1740247035163340800,2.5753408203125,-4.0812811851501465,-0.4866042733192444,0.6120617985725403
1740247035173322800,2.58532275390625,-4.191676139831543,-0.2106533795595169,0.2283860296010971
1740247035183303700,2.5953037109375,-4.290736675262451,0.04994012787938118,-0.17444317042827606
1740247035193284900,2.605284912109375,-4.338996887207031,0.18884368240833282,-0.4860692322254181
1740247035203266600,2.6152666015625,-4.3259968757629395,0.11528132110834122,-0.6648182272911072
1740247035213247700,2.625247802734375,-4.27371883392334,-0.0919637456536293,-0.765171468257904
1740247035223228700,2.635228759765625,-4.176709175109863,-0.2896653711795807,-0.8436236381530762
1740247035233211000,2.6452109375,-4.016201019287109,-0.37860509753227234,-0.935904860496521
1740247035243191800,2.65519189453125,-3.7624309062957764,-0.39258721470832825,-1.0225366353988647
1740247035253173500,2.665173583984375,-3.4219751358032227,-0.42023003101348877,-1.048864722251892
1740247035263154700,2.67515478515625,-3.0093231201171875,-0.5020860433578491,-0.9999088644981384
1740247035273135600,2.685135498046875,-2.529787063598633,-0.6570095419883728,-0.8879474401473999
1740247035283117800,2.695117919921875,-1.9981553554534912,-0.851039469242096,-0.7474233508110046
1740247035293098800,2.7050986328125,-1.4136924743652344,-1.0197800397872925,-0.5788673758506775
1740247035303079700,2.71507958984375,-0.7998162508010864,-1.1533210277557373,-0.4010925590991974
1740247035313061600,2.7250615234375,-0.23107236623764038,-1.3143285512924194,-0.24158678948879242
1740247035323042600,2.73504248046875,0.22626270353794098,-1.498370885848999,-0.1441582441329956
1740247035333023700,2.745023681640625,0.5450279116630554,-1.6375659704208374,-0.10571764409542084
1740247035343005700,2.755005615234375,0.7438318133354187,-1.6533244848251343,-0.09579870104789734
1740247035352987000,2.76498681640625,0.8499366641044617,-1.5097718238830566,-0.06423677504062653
1740247035362967800,2.7749677734375,0.8780686855316162,-1.2299580574035645,0.024214526638388634
1740247035372949500,2.784949462890625,0.8652762174606323,-0.823985755443573,0.16889794170856476
1740247035382930700,2.7949306640625,0.8411314487457275,-0.3316043019294739,0.35933154821395874
1740247035392911600,2.80491162109375,0.830403208732605,0.1958952099084854,0.5855404138565063
1740247035402893800,2.814893798828125,0.8409175872802734,0.6917603611946106,0.8209196925163269
1740247035412874800,2.824874755859375,0.8847130537033081,1.1296383142471313,1.047685980796814
1740247035422856700,2.834856689453125,0.951306164264679,1.507368564605713,1.2097907066345215
1740247035432837600,2.844837646484375,1.0486156940460205,1.7891219854354858,1.2898285388946533
1740247035442818600,2.854818603515625,1.1604835987091064,1.9580579996109009,1.2838410139083862
1740247035452800800,2.86480078125,1.2921465635299683,2.022557020187378,1.2047700881958008
1740247035462781700,2.87478173828125,1.4427582025527954,1.9728257656097412,1.0730630159378052
1740247035472763000,2.884762939453125,1.6276049613952637,1.8094182014465332,0.9015833735466003
1740247035482744600,2.89474462890625,1.845825433731079,1.56361722946167,0.7235531806945801
1740247035492725500,2.9047255859375,2.0819382667541504,1.289097785949707,0.5430012345314026
1740247035502706700,2.914706787109375,2.3115925788879395,1.0052000284194946,0.3959294855594635
1740247035512688600,2.924688720703125,2.533160924911499,0.8220054507255554,0.30013105273246765
1740247035522669800,2.934669921875,2.724363327026367,0.745975911617279,0.26979899406433105
1740247035532650800,2.944650634765625,2.8867359161376953,0.6332792043685913,0.2947935461997986
1740247035542632700,2.9546328125,3.0185091495513916,0.5552120804786682,0.32993316650390625
1740247035552613600,2.964613525390625,3.1471431255340576,0.4292203485965729,0.3346131443977356
1740247035562594600,2.974594482421875,3.2855215072631836,0.30229300260543823,0.276003897190094
1740247035572576800,2.98457666015625,3.4114179611206055,0.2701049745082855,0.1696321815252304
1740247035582557700,2.9945576171875,3.502216339111328,0.27140700817108154,0.0546957366168499
1740247035592540000,3.004539794921875,3.5422260761260986,0.28608420491218567,-0.06022872030735016
1740247035602520800,3.014520751953125,3.5573976039886475,0.3201034367084503,-0.15993347764015198
1740247035612501500,3.02450146484375,3.5674712657928467,0.3545977771282196,-0.22978419065475464
1740247035622483700,3.034483642578125,3.5854949951171875,0.36176273226737976,-0.2597980201244354
1740247035632464600,3.044464599609375,3.592378616333008,0.3462338447570801,-0.26342150568962097
1740247035642445800,3.05444580078125,3.5785176753997803,0.3595709502696991,-0.26242709159851074
1740247035652427800,3.064427734375,3.537163019180298,0.4351882040500641,-0.2802359163761139
1740247035662408700,3.07440869140625,3.4692580699920654,0.5687305927276611,-0.30220192670822144
1740247035672389600,3.0843896484375,3.3981597423553467,0.7064303755760193,-0.31696784496307373
1740247035682371600,3.09437158203125,3.3008358478546143,0.7975480556488037,-0.2956039607524872
1740247035692352800,3.104352783203125,3.1688592433929443,0.8166221380233765,-0.23744212090969086
1740247035702333700,3.114333740234375,3.0352206230163574,0.7886083126068115,-0.14235927164554596
1740247035712316000,3.12431591796875,2.9129111766815186,0.7584360241889954,-0.015264440327882767
1740247035722296800,3.134296875,2.812272310256958,0.740827739238739,0.13707849383354187
1740247035732277500,3.144277587890625,2.747300624847412,0.7395108342170715,0.29192161560058594
1740247035742259700,3.154259765625,2.7049272060394287,0.7323642373085022,0.41720789670944214
1740247035752240600,3.16424072265625,2.6817824840545654,0.6692984700202942,0.49862125515937805
1740247035762221800,3.174221923828125,2.667064905166626,0.5071513652801514,0.5339752435684204
1740247035772203800,3.184203857421875,2.659733295440674,0.2896227538585663,0.5323219299316406
1740247035782184700,3.194184814453125,2.621962785720825,0.07573071122169495,0.4892309308052063
1740247035792166700,3.204166748046875,2.5018727779388428,-0.09899821877479553,0.38658180832862854
1740247035802147600,3.214147705078125,2.266165256500244,-0.22408849000930786,0.18390138447284698
1740247035812128800,3.224128662109375,1.923823356628418,-0.2863862216472626,-0.11560436338186264
1740247035822110700,3.23411083984375,1.48394775390625,-0.3140311539173126,-0.4602490961551666
1740247035832092000,3.244091796875,0.9802470207214355,-0.3546355962753296,-0.7772374153137207
1740247035842072800,3.25407275390625,0.4576035141944885,-0.44540438055992126,-1.0104345083236694
1740247035852054500,3.264054443359375,-0.04199245572090149,-0.5543492436408997,-1.159684419631958
1740247035862035700,3.27403564453125,-0.516145646572113,-0.688591480255127,-1.248820185661316
1740247035872016600,3.2840166015625,-0.9656289219856262,-0.8503825068473816,-1.2872469425201416
1740247035881998800,3.293998779296875,-1.3704313039779663,-0.9764592051506042,-1.2829773426055908
1740247035891979800,3.303979736328125,-1.7325478792190552,-1.050148367881775,-1.2366652488708496
1740247035901960700,3.313960693359375,-2.0574440956115723,-1.0597360134124756,-1.1655793190002441
1740247035911942700,3.323942626953125,-2.351112127304077,-1.0304290056228638,-1.08804190158844
1740247035921923600,3.333923583984375,-2.5959713459014893,-0.9889051914215088,-1.0139011144638062
1740247035931905800,3.34390576171875,-2.8006060123443604,-0.9389837384223938,-0.9696473479270935
1740247035941886700,3.35388671875,-2.960784673690796,-0.8730089664459229,-0.9611443877220154
1740247035951868000,3.363867919921875,-3.0773568153381348,-0.7828777432441711,-0.995604932308197
1740247035961849600,3.373849609375,-3.145559072494507,-0.6898418068885803,-1.0573936700820923
1740247035971830500,3.38383056640625,-3.182802438735962,-0.6112194061279297,-1.148417592048645
1740247035981811700,3.393811767578125,-3.2134039402008057,-0.5534964799880981,-1.2451388835906982
1740247035991793700,3.403793701171875,-3.2520127296447754,-0.5095064043998718,-1.324358344078064
1740247036001774800,3.41377490234375,-3.311415433883667,-0.46620604395866394,-1.3637083768844604
1740247036011755800,3.423755859375,-3.3971431255340576,-0.4235866963863373,-1.3370906114578247
1740247036021737700,3.43373779296875,-3.503117561340332,-0.4036763608455658,-1.260790467262268
1740247036031718700,3.44371875,-3.616476058959961,-0.4106288254261017,-1.1394307613372803
1740247036041699600,3.453699462890625,-3.720179557800293,-0.4351426661014557,-0.9909968376159668
1740247036051681800,3.463681884765625,-3.7935168743133545,-0.4411334693431854,-0.8101066946983337
1740247036061662700,3.473662841796875,-3.8220205307006836,-0.40454936027526855,-0.6085988879203796
1740247036071643600,3.4836435546875,-3.809312343597412,-0.3455747067928314,-0.3782442510128021
1740247036081625600,3.49362548828125,-3.7560970783233643,-0.30251964926719666,-0.13784176111221313
1740247036091606500,3.5036064453125,-3.677994728088379,-0.2788843512535095,0.09686316549777985
1740247036101588500,3.51358837890625,-3.613481044769287,-0.24831846356391907,0.30036887526512146
1740247036111569700,3.523569580078125,-3.587339162826538,-0.18933530151844025,0.4488374590873718
1740247036121550600,3.533550537109375,-3.5938665866851807,-0.04825488105416298,0.5259996056556702
1740247036131532500,3.543532470703125,-3.615191698074341,0.15494191646575928,0.5339030623435974
1740247036141513500,3.553513427734375,-3.642011880874634,0.36915406584739685,0.4995482861995697
1740247036151494400,3.563494384765625,-3.6600182056427,0.5213143229484558,0.4268956780433655
1740247036161476600,3.5734765625,-3.659240484237671,0.6089816093444824,0.3215479254722595
1740247036171457500,3.58345751953125,-3.630208730697632,0.6449766159057617,0.1990198940038681
1740247036181438700,3.593438720703125,-3.5692689418792725,0.6244018077850342,0.0459136962890625
1740247036191420700,3.603420654296875,-3.4925971031188965,0.5565000176429749,-0.14319178462028503
1740247036201401600,3.613401611328125,-3.413999319076538,0.46758371591567993,-0.3473057746887207
1740247036211382500,3.623382568359375,-3.331531524658203,0.39347004890441895,-0.5522698163986206
1740247036221364500,3.633364501953125,-3.2371251583099365,0.34827542304992676,-0.7166656851768494
1740247036231345700,3.643345703125,-3.107832193374634,0.3020991384983063,-0.8080179691314697
1740247036241326600,3.65332666015625,-2.942187547683716,0.25075870752334595,-0.8222882747650146
1740247036251308800,3.663308837890625,-2.7002217769622803,0.22998473048210144,-0.7827549576759338
1740247036261289500,3.67328955078125,-2.339171886444092,0.24167467653751373,-0.725052535533905
1740247036271271400,3.683271484375,-1.854022741317749,0.24238920211791992,-0.648917555809021
1740247036281252600,3.693252685546875,-1.2567003965377808,0.1802792251110077,-0.5355028510093689
1740247036291233500,3.703233642578125,-0.6264833211898804,0.017968880012631416,-0.36678120493888855
1740247036301215700,3.7132158203125,-0.03597664460539818,-0.2118709683418274,-0.14999695122241974
1740247036311196700,3.72319677734375,0.4619702994823456,-0.45393580198287964,0.08156490325927734
1740247036321177600,3.733177490234375,0.8269528150558472,-0.6517106890678406,0.27158409357070923
1740247036331159600,3.74315966796875,1.076298475265503,-0.7634286880493164,0.4003995954990387
1740247036341140500,3.753140380859375,1.2468358278274536,-0.7526726722717285,0.46552613377571106
1740247036351121700,3.76312158203125,1.3732643127441406,-0.6193801760673523,0.4889121651649475
1740247036361103600,3.773103515625,1.4886689186096191,-0.40582606196403503,0.504485011100769
1740247036371084800,3.783084716796875,1.6313539743423462,-0.15626975893974304,0.5501949787139893
1740247036381065700,3.793065673828125,1.8171472549438477,0.10130877792835236,0.6211043000221252
1740247036391047400,3.80304736328125,2.0260300636291504,0.3441445827484131,0.7098655700683594
1740247036401028600,3.813028564453125,2.2600979804992676,0.5681372284889221,0.805605411529541
1740247036411009500,3.823009521484375,2.4925971031188965,0.7889239192008972,0.9005223512649536
1740247036420991700,3.83299169921875,2.693193197250366,1.0351531505584717,0.9771750569343567
1740247036430972700,3.84297265625,2.836825370788574,1.2818329334259033,1.0191667079925537
1740247036440954600,3.85295458984375,2.924854278564453,1.495017170906067,1.0253896713256836
1740247036450935600,3.862935546875,2.9862611293792725,1.6568230390548706,1.0010827779769897
1740247036460916500,3.87291650390625,3.036997079849243,1.7624647617340088,0.9613654613494873
1740247036470898700,3.882898681640625,3.088324546813965,1.7947577238082886,0.8994342088699341
1740247036480879600,3.892879638671875,3.1505939960479736,1.7783700227737427,0.8170034885406494
1740247036490860500,3.902860595703125,3.216151714324951,1.705814003944397,0.701598584651947
1740247036500843500,3.912843505859375,3.2752487659454346,1.6295616626739502,0.5476580262184143
1740247036510824700,3.92282470703125,3.322751998901367,1.5612305402755737,0.37447720766067505
1740247036520805600,3.9328056640625,3.3712375164031982,1.4017753601074219,0.2142835259437561
1740247036530787600,3.94278759765625,3.4197278022766113,1.2142277956008911,0.09339918941259384
1740247036540768500,3.9527685546875,3.4726035594940186,1.009063482284546,0.028265459463000298
1740247036550749400,3.96274951171875,3.5346133708953857,0.7632566094398499,0.0022559636272490025
1740247036560731600,3.972731689453125,3.6047003269195557,0.5016362071037292,-0.01110112015157938
1740247036570712600,3.982712646484375,3.671236991882324,0.26982536911964417,-0.04638773947954178
1740247036580694800,3.99269482421875,3.733700752258301,0.1164882630109787,-0.11979404836893082
1740247036590675700,4.00267578125,3.7799179553985596,0.043525904417037964,-0.2280808389186859
1740247036600656400,4.012656494140625,3.803542137145996,0.011118431575596333,-0.3329257667064667
1740247036610638600,4.022638671875,3.804821491241455,-0.0018610169645398855,-0.4124442934989929
1740247036620619500,4.03261962890625,3.8006958961486816,-0.009498696774244308,-0.45351874828338623
1740247036630600700,4.0426005859375,3.788755416870117,-0.018485000357031822,-0.454955518245697
1740247036640582700,4.052582763671875,3.7669475078582764,-0.030310235917568207,-0.4268684983253479
1740247036650563600,4.0625634765625,3.735635280609131,-0.0426795519888401,-0.37092506885528564
1740247036660544500,4.07254443359375,3.6799991130828857,-0.05734158679842949,-0.3007284104824066
1740247036670526500,4.0825263671875,3.607811212539673,-0.05805531516671181,-0.22946488857269287
1740247036680507600,4.092507568359375,3.5139522552490234,-0.02388828806579113,-0.16459347307682037
1740247036690488600,4.102488525390625,3.396846055984497,0.042327750474214554,-0.10099638998508453
1740247036700470800,4.112470703125,3.2631173133850098,0.1128288134932518,-0.031151793897151947
1740247036710451700,4.12245166015625,3.125882387161255,0.16689284145832062,0.06408444046974182
1740247036720432600,4.1324326171875,2.9940953254699707,0.21091116964817047,0.1854018121957779
1740247036730414600,4.14241455078125,2.866710662841797,0.24214871227741241,0.3189636170864105
1740247036740395500,4.1523955078125,2.7429826259613037,0.2325163334608078,0.45988503098487854
1740247036750377700,4.162377685546875,2.6251180171966553,0.1585070788860321,0.601557731628418
1740247036760358700,4.172358642578125,2.5219967365264893,0.027482490986585617,0.747556746006012
1740247036770339600,4.182339599609375,2.4467196464538574,-0.137669175863266,0.8855370283126831
1740247036780321500,4.192321533203125,2.3692758083343506,-0.2788585424423218,0.98820561170578
1740247036790302500,4.202302490234375,2.2375452518463135,-0.3328450620174408,1.03424072265625
1740247036800283600,4.21228369140625,1.9902881383895874,-0.2651139497756958,1.0244543552398682
1740247036810265600,4.222265625,1.57906973361969,-0.12858061492443085,0.9950504302978516
1740247036820246800,4.232246826171875,1.0430355072021484,-0.03116431087255478,0.9684311151504517
1740247036830227700,4.242227783203125,0.45295602083206177,-0.023790817707777023,0.9685855507850647
1740247036840209400,4.25220947265625,-0.13082964718341827,-0.0932023823261261,0.9577270746231079
1740247036850190600,4.262190673828125,-0.6506158709526062,-0.17932234704494476,0.8876057267189026
1740247036860172500,4.272172607421875,-1.078026294708252,-0.23714810609817505,0.6977439522743225
1740247036870152400,4.28215234375,-1.4361252784729004,-0.23718005418777466,0.3936258554458618
1740247036880133600,4.292133544921875,-1.7615529298782349,-0.20877131819725037,0.031747542321681976
1740247036890115600,4.302115478515625,-2.0809226036071777,-0.18306995928287506,-0.297711044549942
1740247036900096800,4.3120966796875,-2.4046566486358643,-0.17434702813625336,-0.5490330457687378
1740247036910077700,4.32207763671875,-2.710604667663574,-0.20361784100532532,-0.7016901969909668
1740247036920059600,4.3320595703125,-2.978318214416504,-0.25618863105773926,-0.7715536952018738
1740247036930040600,4.34204052734375,-3.176541328430176,-0.3189369738101959,-0.7652910351753235
1740247036940021500,4.352021484375,-3.315760612487793,-0.39748477935791016,-0.6824702024459839
1740247036950003700,4.362003662109375,-3.418386936187744,-0.46732884645462036,-0.534741997718811
1740247036959984600,4.371984619140625,-3.5184073448181152,-0.5171853303909302,-0.3568931519985199
1740247036969965800,4.3819658203125,-3.6357295513153076,-0.5342980027198792,-0.19306638836860657
1740247036979947500,4.391947509765625,-3.7496464252471924,-0.5041286945343018,-0.07002462446689606
1740247036989928400,4.401928466796875,-3.847501277923584,-0.42800992727279663,0.0056925066746771336
1740247036999910700,4.41191064453125,-3.926549196243286,-0.3446394205093384,0.03105725161731243
1740247037009891600,4.4218916015625,-3.9815964698791504,-0.29137060046195984,0.034031737595796585
1740247037019872800,4.431872802734375,-4.006840705871582,-0.2955341935157776,0.04158233106136322
1740247037029854500,4.4418544921875,-4.01035737991333,-0.367611825466156,0.06763043999671936
1740247037039835600,4.451835693359375,-3.9861645698547363,-0.49354419112205505,0.09860300272703171
1740247037049816600,4.461816650390625,-3.9431400299072266,-0.6055908203125,0.12979315221309662
1740247037059798500,4.471798583984375,-3.913599729537964,-0.6698364019393921,0.15685752034187317
1740247037069779700,4.48177978515625,-3.931203842163086,-0.6786176562309265,0.18971987068653107
1740247037079760600,4.4917607421875,-4.013221740722656,-0.7113683819770813,0.2559766471385956
1740247037089742600,4.50174267578125,-4.1159491539001465,-0.782058835029602,0.37594833970069885
1740247037099723800,4.511723876953125,-4.180884838104248,-0.8694227337837219,0.518537700176239
1740247037109704700,4.52170458984375,-4.189718723297119,-0.9260639548301697,0.5964452624320984
1740247037119686700,4.531686767578125,-4.145425319671631,-0.9132575988769531,0.5547958612442017
1740247037129667800,4.541667724609375,-4.081284523010254,-0.7943756580352783,0.3553953766822815
1740247037139649500,4.5516494140625,-4.028693675994873,-0.5759589076042175,0.02953418903052807
1740247037149630700,4.561630615234375,-4.022249221801758,-0.3283062279224396,-0.3264838457107544
1740247037159611600,4.571611572265625,-4.067017078399658,-0.1501849740743637,-0.5968767404556274
1740247037169593900,4.58159375,-4.116508960723877,-0.08096888661384583,-0.7423681616783142
1740247037179574800,4.59157470703125,-4.123668193817139,-0.1297966092824936,-0.778182864189148
1740247037189555700,4.6015556640625,-4.065482139587402,-0.2701742351055145,-0.755994439125061
1740247037199537700,4.61153759765625,-3.9470341205596924,-0.4247390329837799,-0.7105002403259277
1740247037209518600,4.6215185546875,-3.7843856811523438,-0.5271087884902954,-0.6710633039474487
1740247037219499500,4.63149951171875,-3.599838972091675,-0.5373220443725586,-0.6299481391906738
1740247037229481700,4.641481689453125,-3.3907761573791504,-0.46048903465270996,-0.5604206919670105
1740247037239462700,4.651462646484375,-3.169365167617798,-0.3184690475463867,-0.4240833520889282
1740247037249443800,4.66144384765625,-2.9310638904571533,-0.1355290710926056,-0.22493138909339905
1740247037259425500,4.671425537109375,-2.6481618881225586,0.05332900211215019,0.023514380678534508
1740247037269406700,4.68140673828125,-2.2885661125183105,0.21440310776233673,0.2927922010421753
1740247037279387600,4.6913876953125,-1.8500421047210693,0.35639458894729614,0.5569748282432556
1740247037289369900,4.701369873046875,-1.3550866842269897,0.4817349314689636,0.7810039520263672
1740247037299350800,4.711350830078125,-0.8507694602012634,0.5730451345443726,0.9298142194747925
1740247037309332700,4.721332763671875,-0.3753754794597626,0.6126881837844849,0.9791948199272156
1740247037319313700,4.731313720703125,0.05126079171895981,0.5705739855766296,0.918657124042511
1740247037329294600,4.741294677734375,0.42587754130363464,0.42313021421432495,0.7535728216171265
1740247037339276800,4.75127685546875,0.7475128173828125,0.17505517601966858,0.5134750604629517
1740247037349257700,4.7612578125,1.0152630805969238,-0.12703491747379303,0.22874397039413452
1740247037359238700,4.77123876953125,1.2593806982040405,-0.4461252987384796,-0.05958796292543411
1740247037369220600,4.781220703125,1.5113260746002197,-0.7491427063941956,-0.3223370313644409
1740247037379201500,4.791201416015625,1.7939223051071167,-0.9775838255882263,-0.5680320262908936
1740247037389182700,4.8011826171875,2.1024510860443115,-1.069874882698059,-0.803210973739624
1740247037399164700,4.81116455078125,2.426063060760498,-1.055762529373169,-1.0069077014923096
1740247037409145600,4.8211455078125,2.7293014526367188,-0.9897944331169128,-1.1295055150985718
1740247037419127800,4.8311279296875,2.985515832901001,-0.8844371438026428,-1.1278295516967773
1740247037429108700,4.841108642578125,3.2043886184692383,-0.7246032357215881,-1.0135418176651
1740247037439089700,4.851089599609375,3.3774349689483643,-0.5145378708839417,-0.8273122906684875
1740247037449071600,4.861071533203125,3.5172486305236816,-0.29452696442604065,-0.6047490239143372
1740247037459052800,4.871052734375,3.614156723022461,-0.056163135915994644,-0.3880595862865448
1740247037469033700,4.88103369140625,3.6673483848571777,0.216998890042305,-0.19687338173389435
1740247037479015700,4.891015625,3.6867263317108154,0.5306169986724854,-0.0408981628715992
1740247037488996900,4.900996826171875,3.714158296585083,0.8395482301712036,0.08680839836597443
1740247037498977500,4.9109775390625,3.7713963985443115,1.097519874572754,0.18675443530082703
1740247037508959700,4.920959716796875,3.8759589195251465,1.2893345355987549,0.2723918557167053
1740247037518940700,4.930940673828125,4.030030250549316,1.4214811325073242,0.3629166781902313
1740247037528923000,4.9409228515625,4.195836544036865,1.5010433197021484,0.4528942406177521
1740247037538903800,4.95090380859375,4.301551818847656,1.5424972772598267,0.5303890109062195
1740247037548884700,4.960884765625,4.295953750610352,1.5191041231155396,0.5709463357925415
1740247037558866700,4.97086669921875,4.196897029876709,1.419925332069397,0.561581015586853
1740247037568847600,4.98084765625,4.090576648712158,1.2203139066696167,0.5156026482582092
1740247037578828800,4.990828857421875,4.064313888549805,0.9119161367416382,0.4508492052555084
1740247037588810800,5.000810791015625,4.155860424041748,0.55134117603302,0.3736521601676941
1740247037598791700,5.010791748046875,4.299732685089111,0.24546408653259277,0.29251256585121155
1740247037608772900,5.02077294921875,4.390939235687256,0.04608440399169922,0.20567379891872406
1740247037618754600,5.030754638671875,4.387041091918945,-0.07605588436126709,0.12544314563274384
1740247037628735700,5.04073583984375,4.328254699707031,-0.14884993433952332,0.06440562009811401
1740247037638716700,5.050716552734375,4.242648124694824,-0.21105392277240753,0.04206276312470436
1740247037648699000,5.060698974609375,4.165226936340332,-0.2813773453235626,0.07330324500799179
1740247037658679800,5.0706796875,4.089615345001221,-0.3757946491241455,0.138302743434906
1740247037668661500,5.08066162109375,4.0209455490112305,-0.470308393239975,0.2089923620223999
1740247037678642700,5.090642578125,3.964331865310669,-0.5227385759353638,0.2527446448802948
1740247037688623600,5.10062353515625,3.9068214893341064,-0.49506086111068726,0.2475629299879074
1740247037698605800,5.110605712890625,3.8243680000305176,-0.4123857021331787,0.20390012860298157
1740247037708586800,5.120586669921875,3.718592643737793,-0.31045961380004883,0.1486360728740692
1740247037718567700,5.130567626953125,3.584552526473999,-0.2070261538028717,0.12065504491329193
1740247037728549600,5.140549560546875,3.432114362716675,-0.0956125408411026,0.13377563655376434
1740247037738530600,5.150530517578125,3.280198812484741,-0.007032609544694424,0.19091376662254333
1740247037748511700,5.16051171875,3.1404645442962646,0.060141365975141525,0.2693451941013336
1740247037758493700,5.17049365234375,3.015322208404541,0.09398455172777176,0.34940460324287415
1740247037768475000,5.180474853515625,2.870392084121704,0.1070401668548584,0.4162707030773163
1740247037778456600,5.19045654296875,2.703535556793213,0.09565088897943497,0.46823883056640625
1740247037788437500,5.2004375,2.499551296234131,0.09018102288246155,0.5009419322013855
1740247037798418700,5.210418701171875,2.2527401447296143,0.08509012311697006,0.518015444278717
1740247037808400600,5.220400634765625,1.951007604598999,0.05612771585583687,0.5190200209617615
1740247037818381800,5.2303818359375,1.608747959136963,-0.009107744321227074,0.5007573962211609
1740247037828362800,5.24036279296875,1.224697470664978,-0.0656123012304306,0.45520320534706116
1740247037838344700,5.2503447265625,0.816738486289978,-0.08430822193622589,0.3542267978191376
1740247037848325600,5.26032568359375,0.40168723464012146,-0.07384226471185684,0.19708643853664398
1740247037858306600,5.270306640625,-0.016643425449728966,-0.07522124797105789,0.013169597834348679
1740247037868288800,5.280288818359375,-0.4475588798522949,-0.09565382450819016,-0.14282585680484772
1740247037878269700,5.290269775390625,-0.8947190642356873,-0.14285461604595184,-0.24440307915210724
1740247037888252000,5.300251953125,-1.3372187614440918,-0.23063960671424866,-0.2996716797351837
1740247037898232600,5.310232666015625,-1.7404273748397827,-0.3405173718929291,-0.32094261050224304
1740247037908213500,5.320213623046875,-2.114649772644043,-0.4387128949165344,-0.3374328911304474
1740247037918195700,5.33019580078125,-2.455871343612671,-0.4936824142932892,-0.35933658480644226
1740247037928176600,5.3401767578125,-2.7557454109191895,-0.5121684670448303,-0.37148407101631165
1740247037938157800,5.35015771484375,-3.0134873390197754,-0.5040048360824585,-0.3528829514980316
1740247037948139800,5.360139892578125,-3.2272849082946777,-0.47599929571151733,-0.318632036447525
1740247037958120700,5.37012060546875,-3.400918960571289,-0.4621330201625824,-0.2996967136859894
1740247037968101600,5.3801015625,-3.5407960414886475,-0.4622326195240021,-0.2995217442512512
1740247037978083600,5.39008349609375,-3.6660494804382324,-0.4589364230632782,-0.3111501634120941
1740247037988064800,5.400064697265625,-3.769073486328125,-0.41277745366096497,-0.35987722873687744
1740247037998045700,5.410045654296875,-3.8515608310699463,-0.29971960186958313,-0.4394676387310028
1740247038008028000,5.42002783203125,-3.8993163108825684,-0.1660081446170807,-0.5387721061706543
1740247038018008800,5.4300087890625,-3.9382832050323486,-0.054841410368680954,-0.660656213760376
1740247038027990800,5.43999072265625,-3.995600461959839,0.025174595415592194,-0.8141446113586426
1740247038037971700,5.4499716796875,-4.078718185424805,0.06511668860912323,-1.0240341424942017
1740247038047952600,5.45995263671875,-4.172667980194092,0.062311310321092606,-1.260472297668457
1740247038057934800,5.469934814453125,-4.262326240539551,0.02930862084031105,-1.50101637840271
1740247038067915800,5.479915771484375,-4.353700160980225,-0.028624454513192177,-1.708632230758667
1740247038077896700,5.489896728515625,-4.444283962249756,-0.12074212729930878,-1.847324013710022
1740247038087878700,5.499878662109375,-4.527237892150879,-0.23903042078018188,-1.8771743774414062
1740247038097860000,5.509860107421875,-4.598090648651123,-0.3521474003791809,-1.7856199741363525
1740247038107841300,5.51984130859375,-4.647363662719727,-0.41950806975364685,-1.5897293090820312
1740247038117823200,5.5298232421875,-4.659609317779541,-0.3989473879337311,-1.330572247505188
1740247038127804200,5.53980419921875,-4.644099235534668,-0.29293492436408997,-1.062193751335144
1740247038137786000,5.5497861328125,-4.612920761108398,-0.11847738176584244,-0.8071386218070984
1740247038147767300,5.559767333984375,-4.5736083984375,0.12302658706903458,-0.5587493181228638
1740247038157748200,5.569748291015625,-4.532383918762207,0.39765122532844543,-0.29344412684440613
1740247038167730200,5.579730224609375,-4.488962650299072,0.6709386706352234,0.003929493948817253
1740247038177711400,5.58971142578125,-4.413135528564453,0.9060814380645752,0.32276180386543274
1740247038187692300,5.5996923828125,-4.288601398468018,1.0819488763809204,0.6514954566955566
1740247038197674200,5.60967431640625,-4.101393222808838,1.1737972497940063,0.9666339755058289
1740247038207655200,5.6196552734375,-3.8669509887695312,1.1750001907348633,1.241055965423584
1740247038217636000,5.629635986328125,-3.6048431396484375,1.0711857080459595,1.4472026824951172
1740247038227618300,5.639618408203125,-3.34431529045105,0.9211402535438538,1.5410696268081665
1740247038237599200,5.64959912109375,-3.098217725753784,0.7928475737571716,1.4976675510406494
1740247038247581200,5.659581298828125,-2.8632755279541016,0.7103111147880554,1.3394166231155396
1740247038257562000,5.66956201171875,-2.630659580230713,0.617241621017456,1.1058791875839233
1740247038267543300,5.679543212890625,-2.390288829803467,0.44942599534988403,0.856712281703949
1740247038277525200,5.689525146484375,-2.1539247035980225,0.19437479972839355,0.6298349499702454
1740247038287506200,5.699506103515625,-1.9286141395568848,-0.08828751742839813,0.41842973232269287
1740247038297487400,5.7094873046875,-1.7125334739685059,-0.3406608998775482,0.2183896005153656
1740247038307469000,5.719468994140625,-1.5271047353744507,-0.5668104290962219,0.023122629150748253
1740247038317450200,5.7294501953125,-1.3516032695770264,-0.8002420663833618,-0.15573100745677948
1740247038327431200,5.73943115234375,-1.157760500907898,-1.080343246459961,-0.3013862073421478
1740247038337413400,5.749413330078125,-0.9674989581108093,-1.389235019683838,-0.44495829939842224
1740247038347394300,5.759394287109375,-0.793797492980957,-1.6595818996429443,-0.6540910005569458
1740247038357376000,5.7693759765625,-0.61118483543396,-1.8172130584716797,-0.9592170715332031
1740247038367357200,5.779357177734375,-0.39340800046920776,-1.8784151077270508,-1.2895095348358154
1740247038377338000,5.789338134765625,-0.15708096325397491,-1.9164490699768066,-1.5308555364608765
1740247038387320300,5.7993203125,0.06945524364709854,-1.9239253997802734,-1.6127655506134033
1740247038397301200,5.80930126953125,0.2835414409637451,-1.8669472932815552,-1.543144941329956
1740247038407282200,5.8192822265625,0.5083172917366028,-1.7405118942260742,-1.3390238285064697
1740247038417264000,5.82926416015625,0.7649538516998291,-1.564195990562439,-1.0312864780426025
1740247038427245000,5.8392451171875,1.0557305812835693,-1.332351565361023,-0.6469694375991821
1740247038437226200,5.849226318359375,1.3640133142471313,-1.0102016925811768,-0.2396421581506729
1740247038447208200,5.859208251953125,1.6718281507492065,-0.6122617721557617,0.13890649378299713
1740247038457189400,5.869189453125,1.9713938236236572,-0.1727728396654129,0.4603947699069977
1740247038467171000,5.879171142578125,2.2438805103302,0.2397926151752472,0.7332790493965149
1740247038477152000,5.889152099609375,2.460421562194824,0.5865859985351562,0.9704697132110596
1740247038487133200,5.89913330078125,2.619584321975708,0.8875495791435242,1.1813966035842896
1740247038497115100,5.909115234375,2.7305479049682617,1.1717826128005981,1.3782609701156616
1740247038507096300,5.919096435546875,2.8137471675872803,1.4524002075195312,1.5545063018798828
1740247038517077200,5.9290771484375,2.8720123767852783,1.7136485576629639,1.7054555416107178
1740247038527059200,5.93905908203125,2.934605121612549,1.9167108535766602,1.8405414819717407
1740247038537040100,5.9490400390625,3.008577346801758,2.0601630210876465,1.9518598318099976
1740247038547021000,5.95902099609375,3.1033499240875244,2.161302328109741,2.0218989849090576
1740247038557003300,5.969003173828125,3.2166802883148193,2.243295907974243,2.0359580516815186
1740247038566984200,5.978984130859375,3.3372740745544434,2.302346706390381,1.9873509407043457
1740247038576966400,5.98896630859375,3.4479143619537354,2.3171613216400146,1.850904107093811
1740247038586947300,5.998947265625,3.541912794113159,2.2646126747131348,1.6378281116485596
1740247038596928000,6.008927978515625,3.6230814456939697,2.1607770919799805,1.3676413297653198
1740247038606910200,6.01891015625,3.694077730178833,1.9976115226745605,1.0598912239074707
1740247038616891100,6.02889111328125,3.7519304752349854,1.8009426593780518,0.7407177686691284
1740247038626872300,6.038872314453125,3.8184869289398193,1.5848910808563232,0.44216328859329224
1740247038636854300,6.048854248046875,3.886545181274414,1.3658710718154907,0.18825805187225342
1740247038646835200,6.058835205078125,3.9510154724121094,1.141299843788147,-0.0037579864729195833
1740247038656816000,6.068816162109375,4.006402492523193,0.9385563135147095,-0.14389964938163757
1740247038666798000,6.078798095703125,4.054162502288818,0.758975625038147,-0.23931299149990082
1740247038676779300,6.088779296875,4.074391841888428,0.6002711653709412,-0.30723077058792114
1740247038686761200,6.09876123046875,4.084603309631348,0.4757513403892517,-0.37059536576271057
1740247038696742400,6.108742431640625,4.0791521072387695,0.3834794759750366,-0.43325474858283997
1740247038706723300,6.118723388671875,4.063994884490967,0.3331734240055084,-0.4922424554824829
1740247038716705300,6.128705322265625,4.05614709854126,0.3032171428203583,-0.530351996421814
1740247038726686200,6.138686279296875,4.053402900695801,0.28289616107940674,-0.5345033407211304
1740247038736667100,6.148667236328125,4.046426773071289,0.26610490679740906,-0.5016295313835144
1740247038746649300,6.1586494140625,4.021457672119141,0.2633461356163025,-0.44225624203681946
1740247038756630300,6.16863037109375,3.984163522720337,0.26993268728256226,-0.3593296706676483
1740247038766611200,6.178611083984375,3.934828281402588,0.2938782274723053,-0.2567335069179535
1740247038776593200,6.18859326171875,3.867642879486084,0.3334008753299713,-0.13954830169677734
1740247038786574000,6.198573974609375,3.7893576622009277,0.39746588468551636,-0.014974421821534634
1740247038796556300,6.208556396484375,3.6955678462982178,0.46975231170654297,0.10172955691814423
1740247038806537200,6.218537109375,3.5904181003570557,0.5137083530426025,0.21154767274856567
1740247038816518400,6.228518310546875,3.463324785232544,0.4930001199245453,0.3289989233016968
1740247038826500000,6.2385,3.3152623176574707,0.41831815242767334,0.4581412076950073
1740247038836481000,6.24848095703125,3.1404531002044678,0.30981430411338806,0.5910521149635315
1740247038846462200,6.258462158203125,2.946063280105591,0.1876109093427658,0.6995181441307068
1740247038856444200,6.268444091796875,2.735306978225708,0.06484637409448624,0.7710993885993958
1740247038866425300,6.27842529296875,2.511932373046875,-0.033057551831007004,0.7657687664031982
1740247038876407000,6.288406982421875,2.251811981201172,-0.10896296799182892,0.6805101037025452
1740247038886388200,6.29838818359375,1.925520896911621,-0.1735563427209854,0.5154092907905579
1740247038896369200,6.308369140625,1.5205421447753906,-0.2371036261320114,0.2931631803512573
1740247038906351000,6.31835107421875,1.0467724800109863,-0.31711989641189575,0.04896035045385361
1740247038916332300,6.328332275390625,0.5349118709564209,-0.40419381856918335,-0.1782674789428711
1740247038926313200,6.338313232421875,0.02184244804084301,-0.5137006044387817,-0.3592361807823181
1740247038936295200,6.348295166015625,-0.4695749580860138,-0.6359642148017883,-0.48437759280204773
1740247038946276000,6.358276123046875,-0.9125795364379883,-0.7680780291557312,-0.5636606812477112
1740247038956257000,6.368257080078125,-1.2920677661895752,-0.8896534442901611,-0.6108124852180481
1740247038966239200,6.3782392578125,-1.6133447885513306,-0.9777649641036987,-0.6292319893836975
1740247038976220200,6.38822021484375,-1.8749277591705322,-1.0359911918640137,-0.6134365200996399
1740247038986202000,6.3982021484375,-2.081160068511963,-1.069281816482544,-0.5646535158157349
1740247038996183000,6.40818310546875,-2.2486824989318848,-1.0818426609039307,-0.4991980791091919
1740247039006164200,6.418164306640625,-2.4047982692718506,-1.0685549974441528,-0.4315527379512787
1740247039016146200,6.428146240234375,-2.570659637451172,-0.9893158674240112,-0.3906252682209015
1740247039026127000,6.438127197265625,-2.742562770843506,-0.8380693793296814,-0.39419522881507874
1740247039036108300,6.4481083984375,-2.933567762374878,-0.6558774709701538,-0.44390660524368286
1740247039046090200,6.45809033203125,-3.136776924133301,-0.4791303873062134,-0.5310665369033813
1740247039056071200,6.4680712890625,-3.360612392425537,-0.35334768891334534,-0.6102785468101501
1740247039066053000,6.47805322265625,-3.5850040912628174,-0.3113110065460205,-0.6566407084465027
1740247039076034300,6.488034423828125,-3.7848165035247803,-0.3299619257450104,-0.6746828556060791
1740247039086015200,6.49801513671875,-3.9547433853149414,-0.35674241185188293,-0.7157178521156311
1740247039095997200,6.5079970703125,-4.09370231628418,-0.37353870272636414,-0.8252177238464355
1740247039105978000,6.51797802734375,-4.208916187286377,-0.358679860830307,-1.0400704145431519
1740247039115959000,6.527958984375,-4.307363510131836,-0.32231438159942627,-1.3436115980148315
1740247039125941000,6.53794091796875,-4.4201436042785645,-0.2761287987232208,-1.68271803855896
1740247039135922000,6.547921875,-4.544588565826416,-0.25429967045783997,-1.9834520816802979
1740247039145903000,6.557903076171875,-4.684391975402832,-0.2551843523979187,-2.173309803009033
1740247039155885000,6.567885009765625,-4.827077865600586,-0.274551123380661,-2.2330970764160156
1740247039165866000,6.577865966796875,-4.960967540740967,-0.31552547216415405,-2.14101505279541
1740247039175847200,6.58784716796875,-5.064462661743164,-0.3504674732685089,-1.9218385219573975
1740247039185828900,6.597828857421875,-5.11293363571167,-0.3224624693393707,-1.6277687549591064
1740247039195810000,6.60781005859375,-5.109196662902832,-0.2127266526222229,-1.347538709640503
1740247039205792000,6.6177919921875,-5.055956840515137,-0.051532965153455734,-1.1019524335861206
1740247039215773200,6.627773193359375,-4.9548563957214355,0.1586466282606125,-0.9124975204467773
1740247039225754000,6.637754150390625,-4.841455459594727,0.41736501455307007,-0.7891111373901367
1740247039235735800,6.64773583984375,-4.748478889465332,0.6646631956100464,-0.7059073448181152
1740247039245717000,6.657717041015625,-4.685115814208984,0.8334844708442688,-0.6022751927375793
1740247039255698000,6.667697998046875,-4.62736177444458,0.9110522270202637,-0.4648262560367584
1740247039265680100,6.67768017578125,-4.555046081542969,0.9328770637512207,-0.308991402387619
1740247039275661000,6.6876611328125,-4.438486099243164,0.9400151371955872,-0.15329954028129578
1740247039285643000,6.69764306640625,-4.263466835021973,0.9494169354438782,-0.01769883558154106
1740247039295624000,6.7076240234375,-4.0136871337890625,0.964368999004364,0.09697607904672623
1740247039305604900,6.71760498046875,-3.687539577484131,0.9604402780532837,0.2241223156452179
1740247039315587000,6.727587158203125,-3.280465602874756,0.9163050651550293,0.37177860736846924
1740247039325568000,6.737568115234375,-2.8025059700012207,0.8086352944374084,0.5212274789810181
1740247039335549200,6.747549072265625,-2.3021957874298096,0.6437081098556519,0.646669864654541
1740247039345531000,6.75753076171875,-1.8299610614776611,0.4371914565563202,0.7283710837364197
1740247039355511800,6.76751171875,-1.4307310581207275,0.23909540474414825,0.7411681413650513
1740247039365494000,6.777493896484375,-1.1159939765930176,0.07039240747690201,0.6882354021072388
1740247039375475000,6.787474853515625,-0.8801350593566895,-0.08079338073730469,0.59468013048172
1740247039385456000,6.7974560546875,-0.7142179608345032,-0.23842056095600128,0.46427392959594727
1740247039395438000,6.80743798828125,-0.5954567193984985,-0.4047216475009918,0.2786654531955719
1740247039405419000,6.8174189453125,-0.4886234700679779,-0.5697505474090576,0.027726702392101288
1740247039415400000,6.82739990234375,-0.3704928457736969,-0.7293758988380432,-0.25965872406959534
1740247039425382000,6.8373818359375,-0.2309405356645584,-0.8649968504905701,-0.525931179523468
1740247039435363000,6.847363037109375,-0.08391540497541428,-0.9796046614646912,-0.7273969054222107
1740247039445344000,6.857343994140625,0.07556186616420746,-1.104334831237793,-0.8416244387626648
1740247039455326200,6.867326171875,0.25984328985214233,-1.2352219820022583,-0.8875210881233215
1740247039465307000,6.877306884765625,0.49653998017311096,-1.3315606117248535,-0.897882878780365
1740247039475289000,6.8872890625,0.7847909331321716,-1.3525590896606445,-0.897589921951294
1740247039485270000,6.89727001953125,1.1064419746398926,-1.2826415300369263,-0.8983106017112732
1740247039495251000,6.9072509765625,1.4422413110733032,-1.129266619682312,-0.8828775882720947
1740247039505233200,6.917233154296875,1.7591941356658936,-0.9110186696052551,-0.8202788829803467
1740247039515214000,6.927214111328125,2.0372869968414307,-0.6445819139480591,-0.6816898584365845
1740247039525195000,6.937195068359375,2.2826409339904785,-0.35778504610061646,-0.4655815362930298
1740247039535177000,6.947177001953125,2.5155301094055176,-0.07702340930700302,-0.20397096872329712
1740247039545158000,6.957157958984375,2.7321887016296387,0.1633995771408081,0.05734904482960701
1740247039555140000,6.96714013671875,2.9275481700897217,0.34592384099960327,0.2721841037273407
1740247039565121000,6.97712109375,3.0871832370758057,0.4716591536998749,0.40529078245162964
1740247039575102200,6.987102294921875,3.2496957778930664,0.5821142792701721,0.4465620517730713
1740247039585084000,6.997083984375,3.4344911575317383,0.6836560964584351,0.42476221919059753
1740247039595064800,7.00706494140625,3.651458740234375,0.7341626882553101,0.35826200246810913
1740247039605046000,7.0170458984375,3.8852550983428955,0.6736090183258057,0.2680698037147522
1740247039615028000,7.027028076171875,4.111344814300537,0.5066099166870117,0.13524490594863892
1740247039625009200,7.037009033203125,4.307238578796387,0.2835496962070465,-0.029450833797454834
1740247039634990000,7.046989990234375,4.450614929199219,0.052311673760414124,-0.1914386749267578
1740247039644972000,7.056971923828125,4.530208587646484,-0.17147508263587952,-0.30461370944976807
1740247039654953000,7.066952880859375,4.551080226898193,-0.38281261920928955,-0.36650341749191284
1740247039664935200,7.07693505859375,4.547647953033447,-0.5771291255950928,-0.3848169147968292
1740247039674916000,7.086916015625,4.545473575592041,-0.7250913977622986,-0.3757283389568329
1740247039684897000,7.09689697265625,4.554518699645996,-0.8094601035118103,-0.3507572114467621
1740247039694879000,7.10687890625,4.568146705627441,-0.8362094163894653,-0.2970902621746063
1740247039704860000,7.11685986328125,4.566633224487305,-0.829505443572998,-0.21242225170135498
1740247039714840800,7.1268408203125,4.529034614562988,-0.8061044812202454,-0.11619611084461212
1740247039724823000,7.136822998046875,4.456618309020996,-0.7693643569946289,-0.008012918755412102
1740247039734804000,7.146803955078125,4.354738235473633,-0.7098647952079773,0.10344729572534561
1740247039744785200,7.15678515625,4.232908248901367,-0.6314828991889954,0.21113461256027222
1740247039754766800,7.166766845703125,4.086808204650879,-0.5505033731460571,0.31271183490753174
1740247039764748000,7.176748046875,3.9292118549346924,-0.47679105401039124,0.416551411151886
1740247039774730000,7.18672998046875,3.770991325378418,-0.43542683124542236,0.5363553166389465
1740247039784711000,7.1967109375,3.6109933853149414,-0.4275071322917938,0.6671972274780273
1740247039794692000,7.206692138671875,3.448573589324951,-0.4507932662963867,0.7977104783058167
1740247039804673800,7.216673828125,3.290088415145874,-0.467091828584671,0.9049860835075378
1740247039814655000,7.226655029296875,3.145977020263672,-0.46160411834716797,0.9873025417327881
1740247039824636000,7.236635986328125,3.0269734859466553,-0.3988874554634094,1.0198493003845215
1740247039834618000,7.2466181640625,2.9206340312957764,-0.28291797637939453,1.0065137147903442
1740247039844599000,7.25659912109375,2.80936336517334,-0.11894290149211884,0.9542697072029114
1740247039854581000,7.2665810546875,2.674837112426758,0.05017155781388283,0.8801978826522827
1740247039864562000,7.27656201171875,2.513502597808838,0.2034013271331787,0.8165331482887268
1740247039874542800,7.28654296875,2.315788745880127,0.3172575831413269,0.8015888333320618
1740247039884525000,7.296525146484375,2.081876516342163,0.37273043394088745,0.8581048250198364
1740247039894506000,7.306506103515625,1.8134512901306152,0.35122913122177124,0.9926040768623352
1740247039904487000,7.31648681640625,1.5326584577560425,0.2701856791973114,1.179105281829834
1740247039914469000,7.32646923828125,1.2567754983901978,0.14563283324241638,1.3805546760559082
1740247039924450000,7.336449951171875,0.9827847480773926,0.01685594581067562,1.5311732292175293
1740247039934432000,7.346431884765625,0.7007599472999573,-0.09012190252542496,1.5716749429702759
1740247039944413000,7.356412841796875,0.3994384706020355,-0.1256684511899948,1.462897777557373
1740247039954394000,7.36639404296875,0.052494633942842484,-0.08267304301261902,1.1908953189849854
1740247039964376000,7.3763759765625,-0.3450002670288086,-0.01537336315959692,0.798732578754425
1740247039974357000,7.38635693359375,-0.7987267374992371,-0.014571219682693481,0.3915427327156067
1740247039984338000,7.396337890625,-1.3112305402755737,-0.12412381172180176,0.05540440231561661
1740247039994320000,7.40631982421875,-1.8632622957229614,-0.2724384367465973,-0.17815828323364258
1740247040004301000,7.416301025390625,-2.3905739784240723,-0.414791077375412,-0.31368255615234375
1740247040014283000,7.426282958984375,-2.8453474044799805,-0.5285112261772156,-0.36820465326309204
1740247040024264200,7.43626416015625,-3.2077136039733887,-0.5945384502410889,-0.3751499056816101
1740247040034245000,7.4462451171875,-3.4584596157073975,-0.5987989902496338,-0.38000911474227905
1740247040044226800,7.456226806640625,-3.5908451080322266,-0.533927321434021,-0.4001663029193878
1740247040054208000,7.4662080078125,-3.62420392036438,-0.4020156264305115,-0.4260740876197815
1740247040064189000,7.47618896484375,-3.6026313304901123,-0.22685019671916962,-0.46601349115371704
1740247040074171100,7.486171142578125,-3.5821762084960938,-0.028247350826859474,-0.513907790184021
1740247040084152000,7.496152099609375,-3.6004161834716797,0.13310132920742035,-0.5371108651161194
1740247040094134300,7.50613427734375,-3.6620378494262695,0.18376050889492035,-0.511665940284729
1740247040104115200,7.516115234375,-3.736450672149658,0.1368558555841446,-0.44530636072158813
1740247040114096000,7.52609619140625,-3.80918288230896,0.02791285701096058,-0.38695329427719116
1740247040124078300,7.536078369140625,-3.851316213607788,-0.08869072049856186,-0.40036579966545105
1740247040134059300,7.546059326171875,-3.877135992050171,-0.16681347787380219,-0.5220120549201965
1740247040144040400,7.55604052734375,-3.896486520767212,-0.1922176480293274,-0.7500577569007874
1740247040154022100,7.566022216796875,-3.924720525741577,-0.16292473673820496,-1.0315463542938232
1740247040164003000,7.576003173828125,-3.97585391998291,-0.15966050326824188,-1.2670938968658447
1740247040173985300,7.5859853515625,-4.055016994476318,-0.23066863417625427,-1.3698182106018066
1740247040183966200,7.59596630859375,-4.169518947601318,-0.3313443660736084,-1.3346527814865112
1740247040193947400,7.605947509765625,-4.279006004333496,-0.4073430001735687,-1.1909699440002441
1740247040203929000,7.61592919921875,-4.350764274597168,-0.4391701817512512,-0.9840108752250671
1740247040213910300,7.62591015625,-4.368518352508545,-0.4180251955986023,-0.7679600715637207
1740247040223891200,7.63589111328125,-4.339698314666748,-0.3211734890937805,-0.5642799139022827
1740247040233873200,7.645873046875,-4.256218433380127,-0.14875911176204681,-0.39209693670272827
1740247040243854300,7.655854248046875,-4.159137725830078,0.05752694234251976,-0.2591141164302826
1740247040253835300,7.665835205078125,-4.077492713928223,0.23283244669437408,-0.15120762586593628
1740247040263817200,7.675817138671875,-4.019547939300537,0.34443381428718567,-0.03783872351050377
1740247040273798100,7.685798095703125,-3.9674017429351807,0.3842107951641083,0.07598291337490082
1740247040283780400,7.6957802734375,-3.8899431228637695,0.3617648780345917,0.16405391693115234
1740247040293761300,7.70576123046875,-3.7852420806884766,0.3053213059902191,0.20065267384052277
1740247040303742200,7.7157421875,-3.656200408935547,0.2599292993545532,0.17705759406089783
1740247040313724200,7.72572412109375,-3.5045721530914307,0.2744864225387573,0.08897115290164948
1740247040323705000,7.735705078125,-3.3438315391540527,0.3167870044708252,-0.029988525435328484
1740247040333686300,7.745686279296875,-3.155758857727051,0.3189396262168884,-0.137085422873497
1740247040343668200,7.755668212890625,-2.9369306564331055,0.2632627785205841,-0.21023686230182648
1740247040353649200,7.765649169921875,-2.680724620819092,0.1678614318370819,-0.2639016807079315
1740247040363631400,7.77563134765625,-2.409111499786377,0.03972717374563217,-0.3113245964050293
1740247040373612300,7.7856123046875,-2.121861219406128,-0.1075163409113884,-0.3542901575565338
1740247040383593200,7.79559326171875,-1.825109839439392,-0.23505271971225739,-0.3913547098636627
1740247040393575200,7.8055751953125,-1.5414578914642334,-0.32621991634368896,-0.409233033657074
1740247040403556400,7.815556396484375,-1.291050672531128,-0.3898303210735321,-0.41225653886795044
1740247040413537300,7.825537353515625,-1.054991602897644,-0.43197378516197205,-0.3941590189933777
1740247040423519200,7.835519287109375,-0.8309957385063171,-0.44941696524620056,-0.3695559501647949
1740247040433500400,7.84550048828125,-0.6316008567810059,-0.4253470301628113,-0.3609398305416107
1740247040443482000,7.855482177734375,-0.45762962102890015,-0.37407904863357544,-0.3803577125072479
1740247040453463300,7.86546337890625,-0.28831222653388977,-0.32173410058021545,-0.40110480785369873
1740247040463444200,7.8754443359375,-0.12742772698402405,-0.2772904634475708,-0.3890838325023651
1740247040473426400,7.885426513671875,0.02749633975327015,-0.2506503164768219,-0.3079130947589874
1740247040483407400,7.895407470703125,0.19184720516204834,-0.2140401154756546,-0.18007655441761017
1740247040493389000,7.90538916015625,0.38637566566467285,-0.17485463619232178,-0.039323169738054276
1740247040503371300,7.915371337890625,0.6279432773590088,-0.11844142526388168,0.09811538457870483
1740247040513352200,7.925352294921875,0.9192936420440674,-0.021875737234950066,0.20525860786437988
1740247040523334100,7.935334228515625,1.2520060539245605,0.13382570445537567,0.28049159049987793
1740247040533315000,7.945315185546875,1.6064472198486328,0.34086039662361145,0.32677599787712097
1740247040543296300,7.955296142578125,1.949221134185791,0.554772675037384,0.3705037534236908
1740247040553278200,7.9652783203125,2.264474868774414,0.7415359020233154,0.42975324392318726
1740247040563259400,7.97525927734375,2.5438408851623535,0.8805172443389893,0.519949734210968
1740247040573240300,7.985240234375,2.797778844833374,1.004942536354065,0.6229727864265442
1740247040583222300,7.99522216796875,3.029395818710327,1.1139030456542969,0.7292160987854004
1740247040593203200,8.005203125,3.227492094039917,1.215445637702942,0.81658536195755
1740247040603185200,8.01518505859375,3.3995466232299805,1.2995078563690186,0.8772225975990295
1740247040613166300,8.025166259765625,3.552461862564087,1.3581562042236328,0.9041264057159424
1740247040623147300,8.035147216796876,3.7008180618286133,1.3780665397644043,0.8940985202789307
1740247040633129500,8.04512939453125,3.839170217514038,1.3333834409713745,0.8416574597358704
1740247040643110400,8.0551103515625,3.9721856117248535,1.2115103006362915,0.7504788041114807
1740247040653091000,8.065091064453124,4.094058513641357,1.0383992195129395,0.6298221349716187
1740247040663073300,8.0750732421875,4.207371234893799,0.8431940674781799,0.4749864935874939
1740247040673054200,8.08505419921875,4.311294078826904,0.6661084890365601,0.29928603768348694
1740247040683036400,8.095036376953125,4.3993754386901855,0.5027542114257812,0.15631024539470673
1740247040693017300,8.105017333984375,4.460214614868164,0.36428260803222656,0.05537750571966171
1740247040702998300,8.114998291015626,4.499878883361816,0.2552410960197449,0.004327370319515467
1740247040712980200,8.124980224609375,4.5173492431640625,0.18057429790496826,0.007518103811889887
1740247040722961200,8.134961181640625,4.524776935577393,0.13531441986560822,0.04753156751394272
1740247040732942300,8.1449423828125,4.5372748374938965,0.11324799805879593,0.1100279688835144
1740247040742924300,8.15492431640625,4.536663055419922,0.11405439674854279,0.18178310990333557
1740247040752905200,8.1649052734375,4.522319793701172,0.13726864755153656,0.24747903645038605
1740247040762887200,8.17488720703125,4.492204189300537,0.18717388808727264,0.3010583817958832
1740247040772868000,8.1848681640625,4.44256591796875,0.27950939536094666,0.3290170431137085
1740247040782849300,8.194849365234376,4.376859188079834,0.3957177698612213,0.33346664905548096
1740247040792831200,8.204831298828125,4.289257526397705,0.5250667333602905,0.3193542957305908
1740247040802812400,8.2148125,4.18371057510376,0.6439536809921265,0.2975004017353058
1740247040812793300,8.22479345703125,4.066269397735596,0.7053709626197815,0.2993723154067993
1740247040822775300,8.234775390625,3.9407243728637695,0.6986896395683289,0.3286588490009308
1740247040832756200,8.244756103515625,3.816483736038208,0.6635462641716003,0.39654362201690674
1740247040842738200,8.25473828125,3.690573215484619,0.6246675848960876,0.4832707941532135
1740247040852719400,8.26471923828125,3.5538625717163086,0.5907759666442871,0.5777741074562073
1740247040862700300,8.2747001953125,3.407907247543335,0.5623051524162292,0.6741440892219543
1740247040872681200,8.28468115234375,3.256014347076416,0.5466974377632141,0.7629559636116028
1740247040882663200,8.2946630859375,3.0928876399993896,0.5412824153900146,0.8254382610321045
1740247040892644000,8.30464404296875,2.917537212371826,0.5256214141845703,0.8524749279022217
1740247040902626300,8.314626220703126,2.7409632205963135,0.46858853101730347,0.8650269508361816
1740247040912607200,8.324607177734375,2.5589652061462402,0.3605211675167084,0.8704409003257751
1740247040922588400,8.33458837890625,2.3617165088653564,0.21189893782138824,0.8698747158050537
1740247040932570000,8.344570068359374,2.1450843811035156,0.05348186567425728,0.843418300151825
1740247040942551000,8.354551025390625,1.895955204963684,-0.09106306731700897,0.7655751705169678
1740247040952532200,8.3645322265625,1.6033872365951538,-0.21931077539920807,0.629950225353241
1740247040962514200,8.37451416015625,1.2672041654586792,-0.345907062292099,0.43247178196907043
1740247040972495400,8.384495361328124,0.8836919665336609,-0.5120046734809875,0.20508071780204773
1740247040982477300,8.394477294921876,0.45169687271118164,-0.7292262315750122,-0.036163330078125
1740247040992458200,8.404458251953125,-0.008153799921274185,-0.9767425656318665,-0.27442675828933716
1740247041002439200,8.414439208984374,-0.4654787480831146,-1.2334654331207275,-0.5021531581878662
1740247041012421000,8.424421142578124,-0.9084511399269104,-1.4790443181991577,-0.7100056409835815
1740247041022402300,8.43440234375,-1.3460345268249512,-1.668593168258667,-0.876732349395752
1740247041032383200,8.44438330078125,-1.782156229019165,-1.7903960943222046,-0.9729076027870178
1740247041042365400,8.454365478515625,-2.2030656337738037,-1.8174769878387451,-0.9752551913261414
1740247041052346000,8.46434619140625,-2.568758964538574,-1.738161325454712,-0.8961899280548096
1740247041062328300,8.474328369140625,-2.8277227878570557,-1.5643030405044556,-0.7486957907676697
1740247041072309200,8.484309326171875,-2.9869353771209717,-1.2955924272537231,-0.5793648362159729
1740247041082290200,8.494290283203124,-3.068800449371338,-0.9685525298118591,-0.4119340181350708
1740247041092272400,8.5042724609375,-3.098721742630005,-0.6103888154029846,-0.25184157490730286
1740247041102253300,8.51425341796875,-3.109851121902466,-0.2633677124977112,-0.12867115437984467
1740247041112234500,8.524234375,-3.1336324214935303,0.04259832575917244,-0.05511385202407837
1740247041122216400,8.534216552734375,-3.1951732635498047,0.2814734876155853,-0.0268289502710104
1740247041132197400,8.544197265625,-3.3063812255859375,0.43942955136299133,-0.038604915142059326
1740247041142179600,8.5541796875,-3.457077980041504,0.5242986679077148,-0.0902143120765686
1740247041152160500,8.564160400390625,-3.618699550628662,0.5092291235923767,-0.15630891919136047
1740247041162141400,8.574141357421874,-3.7670202255249023,0.38210529088974,-0.24251356720924377
1740247041172123400,8.584123291015626,-3.886932849884033,0.17039410769939423,-0.35641297698020935
1740247041182104600,8.5941044921875,-3.988192081451416,-0.07116525620222092,-0.5290502905845642
1740247041192085500,8.60408544921875,-4.068665027618408,-0.2665416896343231,-0.7694932222366333
1740247041202067700,8.614067626953124,-4.136353969573975,-0.397684246301651,-1.0616662502288818
1740247041212048600,8.624048583984376,-4.193638324737549,-0.489470899105072,-1.3471744060516357
1740247041222030300,8.6340302734375,-4.2526984214782715,-0.5695851445198059,-1.5459764003753662
1740247041232011500,8.644011474609375,-4.335763931274414,-0.6566553711891174,-1.6118640899658203
1740247041241992400,8.653992431640624,-4.441930770874023,-0.7264325618743896,-1.5512340068817139
1740247041251974700,8.663974609375,-4.536443710327148,-0.7561148405075073,-1.4084502458572388
1740247041261955600,8.67395556640625,-4.607228755950928,-0.7400434613227844,-1.2306941747665405
1740247041271937500,8.6839375,-4.650784492492676,-0.6909984350204468,-1.0523669719696045
1740247041281918500,8.69391845703125,-4.656261444091797,-0.62582927942276,-0.8870992064476013
1740247041291899400,8.7038994140625,-4.621138572692871,-0.5038831233978271,-0.755394697189331
1740247041301881600,8.713881591796875,-4.538665771484375,-0.2987819015979767,-0.6641606688499451
1740247041311862500,8.723862548828125,-4.417704105377197,-0.052556417882442474,-0.5856354832649231
1740247041321843500,8.733843505859374,-4.28022575378418,0.17922408878803253,-0.4887811243534088
1740247041331825400,8.743825439453126,-4.126311302185059,0.33625203371047974,-0.357634574174881
1740247041341806300,8.753806396484375,-3.944899797439575,0.39254462718963623,-0.20146840810775757
1740247041351788500,8.76378857421875,-3.7379889488220215,0.36973249912261963,-0.04665485396981239
1740247041361769500,8.77376953125,-3.5233380794525146,0.30766114592552185,0.07009360194206238
1740247041371750700,8.783750732421876,-3.3016140460968018,0.2474188506603241,0.1583012193441391
1740247041381732400,8.793732421875,-3.0748822689056396,0.18447211384773254,0.23409372568130493
1740247041391713300,8.80371337890625,-2.8274667263031006,0.12000496685504913,0.3253794312477112
1740247041401694500,8.813694580078124,-2.549788475036621,0.05013507232069969,0.4375768005847931
1740247041411676400,8.823676513671876,-2.2358219623565674,-0.030771760269999504,0.5636281967163086
1740247041421657600,8.83365771484375,-1.8896994590759277,-0.11893490701913834,0.6736649870872498
1740247041431639600,8.8436396484375,-1.5335352420806885,-0.22887445986270905,0.739699125289917
1740247041441620500,8.853620361328124,-1.191210389137268,-0.34761494398117065,0.7339214086532593
1740247041451601400,8.863601318359375,-0.8939927816390991,-0.4444006085395813,0.6381493210792542
1740247041461583600,8.87358349609375,-0.6573432683944702,-0.4994311034679413,0.44183918833732605
1740247041471564500,8.883564453125,-0.4804760813713074,-0.5308148860931396,0.1621881127357483
1740247041481546500,8.89354638671875,-0.3392835259437561,-0.5620537400245667,-0.17702963948249817
1740247041491527700,8.903527587890625,-0.2127373069524765,-0.6244500279426575,-0.5168167948722839
1740247041501508400,8.91350830078125,-0.08322751522064209,-0.7538026571273804,-0.8154825568199158
1740247041511490600,8.923490478515625,0.06509590893983841,-0.9228734374046326,-1.028318166732788
1740247041521471500,8.933471435546876,0.23293524980545044,-1.090211033821106,-1.1541804075241089
1740247041531452400,8.943452392578125,0.4248729944229126,-1.2318207025527954,-1.1994973421096802
1740247041541434600,8.9534345703125,0.6150567531585693,-1.316372036933899,-1.1969406604766846
1740247041551415600,8.96341552734375,0.8055335283279419,-1.3188320398330688,-1.1399717330932617
1740247041561397500,8.9733974609375,0.9887483716011047,-1.2310067415237427,-1.0434890985488892
1740247041571378400,8.98337841796875,1.1863861083984375,-1.0429513454437256,-0.9030387997627258
1740247041581359400,8.993359375,1.4027657508850098,-0.7809075117111206,-0.7345456480979919
1740247041591341600,9.003341552734375,1.6443730592727661,-0.498625785112381,-0.5425493121147156
1740247041601322500,9.013322509765626,1.9034368991851807,-0.2603261172771454,-0.34758806228637695
1740247041611303700,9.0233037109375,2.160888195037842,-0.08616897463798523,-0.16379426419734955
1740247041621285400,9.033285400390625,2.4001779556274414,0.049194175750017166,0.015014369040727615
1740247041631266600,9.0432666015625,2.5844900608062744,0.16459187865257263,0.19865557551383972
1740247041641248500,9.05324853515625,2.711768388748169,0.296181857585907,0.37780827283859253
1740247041651229400,9.0632294921875,2.8086938858032227,0.4858681559562683,0.5304252505302429
1740247041661210600,9.073210693359375,2.9017174243927,0.7161437273025513,0.6451318860054016
1740247041671192300,9.0831923828125,3.0058882236480713,0.9319739937782288,0.7300475239753723
1740247041681173500,9.093173583984376,3.11580491065979,1.083096981048584,0.7620475888252258
1740247041691154400,9.103154541015625,3.2341833114624023,1.142813801765442,0.7409265637397766
1740247041701136600,9.11313671875,3.332765579223633,1.1252137422561646,0.6708359122276306
1740247041711117600,9.12311767578125,3.414459228515625,1.0590083599090576,0.5447801947593689
1740247041721099500,9.133099609375,3.48679780960083,0.9427710175514221,0.3715386688709259
1740247041731080400,9.14308056640625,3.5584399700164795,0.7604345083236694,0.16813388466835022
1740247041741061400,9.153061279296875,3.6540820598602295,0.5142470598220825,-0.04278874397277832
1740247041751043600,9.163043701171874,3.765620708465576,0.23185773193836212,-0.24171169102191925
1740247041761024500,9.1730244140625,3.890509843826294,-0.042629752308130264,-0.39520299434661865
1740247041771006500,9.18300634765625,4.024819374084473,-0.28396326303482056,-0.4877976179122925
1740247041780987400,9.1929873046875,4.152307510375977,-0.4816015064716339,-0.5166934728622437
1740247041790968300,9.20296826171875,4.263486862182617,-0.6249922513961792,-0.4840551018714905
1740247041800950500,9.212950439453126,4.358697891235352,-0.7306060194969177,-0.40448036789894104
1740247041810931500,9.222931396484375,4.4408769607543945,-0.8017408847808838,-0.3046666979789734
1740247041820912600,9.23291259765625,4.51548433303833,-0.8416433334350586,-0.21472641825675964
1740247041830894600,9.24289453125,4.573948383331299,-0.8296143412590027,-0.13210929930210114
1740247041840875300,9.252875244140625,4.599754810333252,-0.77877277135849,-0.063911072909832
1740247041850857500,9.262857421875,4.587123394012451,-0.698308527469635,0.006331399083137512
1740247041860838400,9.27283837890625,4.545943737030029,-0.6211349368095398,0.08367092907428741
1740247041870819600,9.282819580078124,4.474422931671143,-0.5593719482421875,0.18539276719093323
1740247041880801500,9.292801513671876,4.370043754577637,-0.49785560369491577,0.3013952672481537
1740247041890782700,9.30278271484375,4.234817981719971,-0.44974344968795776,0.42864322662353516
1740247041900764400,9.312764404296875,4.0849480628967285,-0.43251466751098633,0.5476133227348328
1740247041910745300,9.322745361328124,3.91506028175354,-0.4320073425769806,0.6554180383682251
1740247041920726500,9.3327265625,3.7328426837921143,-0.44901907444000244,0.7403039336204529
1740247041930708500,9.34270849609375,3.5269582271575928,-0.47870293259620667,0.7814388275146484
1740247041940689700,9.352689697265625,3.288431406021118,-0.5153160691261292,0.7780845761299133
1740247041950670600,9.362670654296876,3.0306553840637207,-0.5288475751876831,0.7187322974205017
1740247041960652500,9.372652587890625,2.7610905170440674,-0.509950578212738,0.6109539270401001
1740247041970633500,9.382633544921875,2.467283010482788,-0.45319998264312744,0.4876469075679779
1740247041980615700,9.39261572265625,2.125089406967163,-0.3754471242427826,0.38206639885902405
1740247041990596600,9.4025966796875,1.7346174716949463,-0.2933085858821869,0.30718791484832764
1740247042000577500,9.41257763671875,1.322858452796936,-0.20445513725280762,0.26163533329963684
1740247042010559500,9.4225595703125,0.9271230697631836,-0.11794181913137436,0.24311837553977966
1740247042020540400,9.43254052734375,0.5634809136390686,-0.04411579668521881,0.25340908765792847
1740247042030522600,9.442522705078124,0.22079682350158691,-0.019711919128894806,0.300592839717865
1740247042040503600,9.452503662109375,-0.10249707847833633,-0.04089736565947533,0.396261066198349
1740247042050484500,9.462484375,-0.40506014227867126,-0.08554445952177048,0.5305405855178833
1740247042060466400,9.472466552734375,-0.6756812334060669,-0.13511042296886444,0.652510941028595
1740247042070447400,9.482447265625,-0.8973422646522522,-0.16653625667095184,0.7131282091140747
1740247042080428500,9.492428466796875,-1.076658010482788,-0.1715368628501892,0.6807835698127747
1740247042090410500,9.502410400390625,-1.2654342651367188,-0.11398409307003021,0.5596907138824463
1740247042100391200,9.51239111328125,-1.499885082244873,-0.03911944106221199,0.3631073534488678
1740247042110373000,9.522373046875,-1.7866407632827759,0.0412965752184391,0.12077461928129196
1740247042120354000,9.53235400390625,-2.104975461959839,0.1019870862364769,-0.1374899446964264
1740247042130335000,9.5423349609375,-2.425180673599243,0.1713792085647583,-0.3956213593482971
1740247042140317000,9.55231689453125,-2.6828019618988037,0.2534826099872589,-0.6327982544898987
1740247042150298000,9.562298095703126,-2.8508169651031494,0.2935445308685303,-0.8065924048423767
1740247042160280000,9.572280029296875,-2.9606106281280518,0.2797727882862091,-0.9058108329772949
1740247042170261200,9.58226123046875,-3.0470046997070312,0.22986862063407898,-0.9699277877807617
1740247042180242200,9.5922421875,-3.12357234954834,0.1709965169429779,-1.0335406064987183
1740247042190224100,9.60222412109375,-3.226280450820923,0.13959811627864838,-1.1483659744262695
1740247042200205000,9.612205078125,-3.3608219623565674,0.15563619136810303,-1.3251460790634155
1740247042210186000,9.62218603515625,-3.5119104385375977,0.22402670979499817,-1.5422756671905518
1740247042220168200,9.632168212890624,-3.660095453262329,0.29370006918907166,-1.7694138288497925
1740247042230149000,9.642149169921876,-3.8083112239837646,0.32080891728401184,-1.978365182876587
1740247042240131000,9.652131103515625,-3.9704785346984863,0.29192906618118286,-2.1555497646331787
1740247042250112000,9.662112060546875,-4.130791664123535,0.22655057907104492,-2.2949366569519043
1740247042260093000,9.672093017578124,-4.274978160858154,0.15620824694633484,-2.3963379859924316
1740247042270075100,9.6820751953125,-4.39133882522583,0.09604424238204956,-2.454212188720703
1740247042280056000,9.69205615234375,-4.4764909744262695,0.08258116245269775,-2.4654877185821533
1740247042290038000,9.7020380859375,-4.5213093757629395,0.10852354764938354,-2.3974668979644775
1740247042300019000,9.71201904296875,-4.545462131500244,0.14714151620864868,-2.235776901245117
1740247042310000000,9.722000244140625,-4.5720648765563965,0.21953928470611572,-1.995622992515564
1740247042319982000,9.731982177734375,-4.612432956695557,0.3308410346508026,-1.7150977849960327
1740247042329963000,9.741962890625,-4.6328511238098145,0.45884135365486145,-1.4180219173431396
1740247042339944200,9.751944091796876,-4.596149444580078,0.6016110181808472,-1.1136772632598877
1740247042349926000,9.76192578125,-4.501956462860107,0.7363488674163818,-0.8198826313018799
1740247042359907000,9.771906982421875,-4.376842975616455,0.8438206911087036,-0.5394059419631958
1740247042369889000,9.781888916015625,-4.249379634857178,0.9154203534126282,-0.30431756377220154
1740247042379870200,9.7918701171875,-4.112738132476807,0.9573893547058105,-0.14023274183273315
1740247042389851100,9.80185107421875,-3.974868059158325,0.9837037920951843,-0.0766066238284111
1740247042399833000,9.8118330078125,-3.8513684272766113,0.9840835332870483,-0.10237190872430801
1740247042409814000,9.82181396484375,-3.7361056804656982,0.9624893069267273,-0.1852489560842514
1740247042419796000,9.8317958984375,-3.6169066429138184,0.9080092906951904,-0.29388755559921265
1740247042429777200,9.841777099609375,-3.4870998859405518,0.8049308657646179,-0.36534708738327026
1740247042439758000,9.851758056640625,-3.3276991844177246,0.6582229137420654,-0.37995052337646484
1740247042449740300,9.861740234375,-3.126138925552368,0.4668548107147217,-0.3616357147693634
1740247042459721200,9.87172119140625,-2.871042013168335,0.26033490896224976,-0.3250870108604431
1740247042469702000,9.881701904296875,-2.581402540206909,0.06323995441198349,-0.29267847537994385
1740247042479684000,9.89168408203125,-2.2677905559539795,-0.09890127927064896,-0.2859302759170532
1740247042489665000,9.9016650390625,-1.9440313577651978,-0.21430590748786926,-0.2975030541419983
1740247042499647200,9.911647216796876,-1.6247751712799072,-0.3231218755245209,-0.32831448316574097
1740247042509628200,9.921628173828125,-1.3491411209106445,-0.4527631998062134,-0.3822192847728729
1740247042519609000,9.931609130859375,-1.1260244846343994,-0.6133225560188293,-0.45441144704818726
1740247042529591000,9.941591064453124,-0.959007203578949,-0.7800689339637756,-0.5498218536376953
1740247042539572000,9.951572021484376,-0.8377543091773987,-0.9180513024330139,-0.6611909866333008
1740247042549554200,9.96155419921875,-0.7568504214286804,-1.0161120891571045,-0.7882794141769409
1740247042559535000,9.97153515625,-0.6927566528320312,-1.0949301719665527,-0.9061727523803711
1740247042569516300,9.981516357421874,-0.6170533299446106,-1.2325873374938965,-1.0111525058746338
1740247042579498000,9.991498046875,-0.5279921889305115,-1.4966046810150146,-1.1058228015899658
1740247042589479000,10.00147900390625,-0.42694759368896484,-1.8557449579238892,-1.2182753086090088
1740247042599460000,10.011460205078125,-0.30560067296028137,-2.1885852813720703,-1.36479651927948
1740247042609442000,10.021442138671874,-0.15333975851535797,-2.402863025665283,-1.509371280670166
1740247042619423200,10.03142333984375,0.029401032254099846,-2.437145709991455,-1.6113057136535645
1740247042629405000,10.041405029296875,0.23830284178256989,-2.304762125015259,-1.6224515438079834
1740247042639386000,10.05138623046875,0.47836869955062866,-2.046630859375,-1.5272810459136963
1740247042649367000,10.061366943359374,0.7476614117622375,-1.7162041664123535,-1.33885657787323
1740247042659349000,10.071348876953126,1.0529276132583618,-1.3456950187683105,-1.0697680711746216
1740247042669330200,10.081330078125,1.3827641010284424,-0.9557821154594421,-0.7394780516624451
1740247042679312000,10.091311767578125,1.7126295566558838,-0.5871719121932983,-0.35105496644973755
1740247042689293000,10.10129296875,2.0491557121276855,-0.2536011040210724,0.0666932761669159
1740247042699274000,10.11127392578125,2.374364137649536,0.029455626383423805,0.5032282471656799
1740247042709256200,10.121256103515625,2.66142201423645,0.2669491469860077,0.9289036393165588
1740247042719237000,10.131237060546875,2.9057953357696533,0.46739354729652405,1.3106712102890015
1740247042729219000,10.141218994140624,3.100050687789917,0.6309465169906616,1.6503745317459106
1740247042739200000,10.151199951171876,3.2660253047943115,0.7628193497657776,1.940118432044983
1740247042749181000,10.161180908203125,3.4006340503692627,0.838101327419281,2.178961992263794
1740247042759163100,10.1711630859375,3.527885913848877,0.8971936702728271,2.369638681411743
1740247042769144000,10.18114404296875,3.6661107540130615,0.9510055184364319,2.5118255615234375
1740247042779125000,10.191125,3.8429007530212402,1.0165989398956299,2.597653865814209
1740247042789107200,10.201107177734375,4.070223808288574,1.0549896955490112,2.622169256210327
1740247042799088000,10.211088134765625,4.288473129272461,0.9826095104217529,2.5991621017456055
1740247042809070000,10.221070068359374,4.470133304595947,0.79477459192276,2.514096975326538
1740247042819051000,10.231051025390625,4.621427059173584,0.5903277397155762,2.3717598915100098
1740247042829032200,10.2410322265625,4.732185363769531,0.4566258490085602,2.169285297393799
1740247042839014100,10.25101416015625,4.783614635467529,0.4143814742565155,1.9450210332870483
1740247042848995000,10.2609951171875,4.781520366668701,0.4322286546230316,1.7293550968170166
1740247042858977000,10.27097705078125,4.7497124671936035,0.46854618191719055,1.5588853359222412
1740247042868958000,10.2809580078125,4.712625503540039,0.514424741268158,1.4418271780014038
1740247042878939100,10.290939208984375,4.681856155395508,0.5440379977226257,1.3639355897903442
1740247042888921000,10.300921142578124,4.665471076965332,0.5870853066444397,1.314214825630188
1740247042898902300,10.31090234375,4.662810325622559,0.6308929920196533,1.2903265953063965
1740247042908883200,10.32088330078125,4.638242721557617,0.6708425283432007,1.2641096115112305
1740247042918865000,10.330864990234375,4.584590435028076,0.7111961245536804,1.2048979997634888
1740247042928846000,10.34084619140625,4.501228332519531,0.7754136919975281,1.0937399864196777
1740247042938828000,10.350828125,4.3785600662231445,0.8522027730941772,0.9261752367019653
1740247042948809200,10.360809326171875,4.226329326629639,0.890936017036438,0.7459418177604675
1740247042958790100,10.3707900390625,4.061652660369873,0.8682805299758911,0.6127731204032898
1740247042968772000,10.380772216796874,3.899509906768799,0.791857898235321,0.5476926565170288
1740247042978753000,10.3907529296875,3.737375497817993,0.6776450872421265,0.5532504320144653
1740247042988735200,10.4007353515625,3.57651948928833,0.5730656385421753,0.5989829897880554
1740247042998716200,10.410716064453124,3.415391445159912,0.4911971688270569,0.6520347595214844
1740247043008697000,10.420697021484376,3.254215955734253,0.4388364851474762,0.6777105927467346
1740247043018679000,10.430678955078125,3.0927023887634277,0.3928751051425934,0.6655793190002441
1740247043028660000,10.440659912109375,2.93139910697937,0.32089680433273315,0.6030815839767456
1740247043038642200,10.45064208984375,2.7480053901672363,0.22613540291786194,0.5092142224311829
1740247043048623000,10.460623046875,2.501612424850464,0.11482725292444229,0.40401512384414673
1740247043058604000,10.47060400390625,2.169665813446045,-0.0254592876881361,0.3243282735347748
1740247043068586000,10.4805859375,1.7370353937149048,-0.1461862325668335,0.2834461033344269
1740247043078567000,10.49056689453125,1.2246689796447754,-0.23020178079605103,0.264167457818985
1740247043088549000,10.500549072265626,0.6997019052505493,-0.3177558481693268,0.26322177052497864
1740247043098529500,10.510529541015625,0.215187668800354,-0.455512672662735,0.28002285957336426
1740247043108510700,10.5205107421875,-0.22910456359386444,-0.6203705668449402,0.31046998500823975
1740247043118492700,10.53049267578125,-0.6767659783363342,-0.7463378310203552,0.30120643973350525
1740247043128473600,10.5404736328125,-1.132696509361267,-0.8294726610183716,0.23496244847774506
1740247043138454800,10.550454833984375,-1.5836316347122192,-0.8833534717559814,0.12459386140108109
1740247043148436500,10.5604365234375,-2.027629852294922,-0.8990685343742371,-0.011232147924602032
1740247043158417700,10.570417724609374,-2.456143379211426,-0.8715626001358032,-0.15029603242874146
1740247043168399600,10.580399658203126,-2.8313233852386475,-0.7758587002754211,-0.2839798033237457
1740247043178380800,10.590380859375,-3.1450183391571045,-0.6363998651504517,-0.4029671549797058
1740247043188361700,10.60036181640625,-3.365962028503418,-0.50374436378479,-0.4928523004055023
1740247043198343400,10.610343505859374,-3.4813930988311768,-0.3875059187412262,-0.5640945434570312
1740247043208324600,10.62032470703125,-3.4911739826202393,-0.3015976548194885,-0.6258100867271423
1740247043218306600,10.630306640625,-3.459538221359253,-0.2215622216463089,-0.7039914727210999
1740247043228287700,10.640287841796875,-3.463501214981079,-0.1276216059923172,-0.7998572587966919
1740247043238268700,10.6502685546875,-3.5322368144989014,-0.04975317418575287,-0.9024824500083923
1740247043248250600,10.660250732421876,-3.6466851234436035,-0.0033486587926745415,-0.9599390625953674
1740247043258231600,10.6702314453125,-3.7829487323760986,-0.013420733623206615,-0.9517029523849487
1740247043268212500,10.68021240234375,-3.9131312370300293,-0.0659627690911293,-0.8780199885368347
1740247043278194700,10.690194580078124,-4.001235485076904,-0.16019633412361145,-0.757111132144928
1740247043288175600,10.700175537109375,-4.045422554016113,-0.26380687952041626,-0.6166623830795288
1740247043298157600,10.710157470703125,-4.0659637451171875,-0.36176326870918274,-0.49844682216644287
1740247043308138500,10.720138427734375,-4.060230731964111,-0.4504278898239136,-0.4250306487083435
1740247043318119400,10.730119384765626,-4.04866886138916,-0.5046205520629883,-0.40557464957237244
1740247043328101600,10.7401015625,-4.055954933166504,-0.5025595426559448,-0.4259539842605591
1740247043338082600,10.75008251953125,-4.074948310852051,-0.47483763098716736,-0.4455612301826477
1740247043348064800,10.760064697265625,-4.1153059005737305,-0.4639122784137726,-0.40384867787361145
1740247043358045700,10.770045654296876,-4.168410301208496,-0.4570373296737671,-0.302082359790802
1740247043368026600,10.780026611328125,-4.209688663482666,-0.4438275098800659,-0.1881352812051773
1740247043378008600,10.790008544921875,-4.232874393463135,-0.38905322551727295,-0.12178821861743927
1740247043387989500,10.799989501953124,-4.237505912780762,-0.2774196267127991,-0.14365410804748535
1740247043397971700,10.8099716796875,-4.218029975891113,-0.11866193264722824,-0.2807648181915283
1740247043407952600,10.81995263671875,-4.196539402008057,0.03297659009695053,-0.4938392639160156
1740247043417933800,10.829933837890625,-4.175270080566406,0.12942403554916382,-0.7273263335227966
1740247043427915500,10.83991552734375,-4.154830455780029,0.144952654838562,-0.9088290333747864
1740247043437896700,10.849896728515626,-4.130614280700684,0.06531908363103867,-1.0252728462219238
1740247043447878700,10.859878662109375,-4.089175224304199,-0.08153799921274185,-1.1024123430252075
1740247043457859600,10.869859619140625,-4.03776741027832,-0.23097889125347137,-1.1547056436538696
1740247043467840800,10.8798408203125,-3.9602086544036865,-0.33520328998565674,-1.1839231252670288
1740247043477822500,10.889822509765626,-3.859744071960449,-0.38287389278411865,-1.1627060174942017
1740247043487803600,10.8998037109375,-3.740290880203247,-0.3696616590023041,-1.0832221508026123
1740247043497784600,10.90978466796875,-3.5980284214019775,-0.28490549325942993,-0.9326925277709961
1740247043507766800,10.919766845703125,-3.421483039855957,-0.12698911130428314,-0.7128272652626038
1740247043517747700,10.929747802734376,-3.1926746368408203,0.08431301265954971,-0.4364910423755646
1740247043527729400,10.9397294921875,-2.9149603843688965,0.33490875363349915,-0.10013885051012039
1740247043537710600,10.949710693359375,-2.571460247039795,0.579584538936615,0.2828015983104706
1740247043547691500,10.95969140625,-2.1696932315826416,0.7351336479187012,0.7045016884803772
1740247043557673700,10.969673828125,-1.7421762943267822,0.7515552639961243,1.1253248453140259
1740247043567654700,10.979654541015625,-1.3224972486495972,0.652349054813385,1.4860010147094727
1740247043577636600,10.98963671875,-0.9081792235374451,0.5077122449874878,1.7277363538742065
1740247043587617500,10.999617431640624,-0.4972345530986786,0.32735469937324524,1.8191560506820679
1740247043597598500,11.009598388671876,-0.13660284876823425,0.1542055457830429,1.742695927619934
1740247043607580700,11.01958056640625,0.13417884707450867,-0.0024226775858551264,1.5166443586349487
1740247043617561600,11.0295615234375,0.3161523640155792,-0.16077983379364014,1.2016172409057617
1740247043627543800,11.039543701171874,0.4539211690425873,-0.3467598259449005,0.8624553680419922
1740247043637524500,11.0495244140625,0.5719215869903564,-0.5275631546974182,0.5429953932762146
1740247043647505400,11.05950537109375,0.7153964638710022,-0.6536661982536316,0.2544810175895691
1740247043657487600,11.069487548828125,0.9079999923706055,-0.6842614412307739,-0.012684103101491928
1740247043667468500,11.079468505859374,1.1588609218597412,-0.6173551082611084,-0.27142778038978577
1740247043677450800,11.08945068359375,1.4431380033493042,-0.45454141497612,-0.5323664546012878
1740247043687431700,11.099431640625,1.7313330173492432,-0.2239540070295334,-0.7646638751029968
1740247043697412600,11.10941259765625,1.9923033714294434,0.031377095729112625,-0.9298048615455627
1740247043707394600,11.11939453125,2.218876600265503,0.27818208932876587,-1.0021089315414429
1740247043717375500,11.12937548828125,2.4246275424957275,0.4966566264629364,-0.9789828062057495
1740247043727356700,11.139356689453125,2.622924327850342,0.698596179485321,-0.8926907777786255
1740247043737338600,11.149338623046875,2.8251590728759766,0.8754175305366516,-0.7705052495002747
1740247043747319800,11.15931982421875,3.01292085647583,1.0247622728347778,-0.6345745325088501
1740247043757301500,11.169301513671876,3.186310052871704,1.1280276775360107,-0.4916568100452423
1740247043767282700,11.17928271484375,3.350266456604004,1.1775143146514893,-0.3350149989128113
1740247043777263600,11.189263671875,3.5052807331085205,1.1967462301254272,-0.17100822925567627
1740247043787245600,11.19924560546875,3.659165382385254,1.17472243309021,0.00572952488437295
1740247043797226800,11.209226806640626,3.8122429847717285,1.1175446510314941,0.18061478435993195
1740247043807208400,11.21920849609375,3.9692258834838867,1.0600520372390747,0.3562084436416626
1740247043817189600,11.229189697265625,4.114684581756592,1.0119231939315796,0.5246506929397583
1740247043827170600,11.239170654296874,4.245803356170654,0.9660768508911133,0.6720598936080933
1740247043837152800,11.24915283203125,4.380402088165283,0.9288820624351501,0.8024530410766602
1740247043847133700,11.2591337890625,4.488564968109131,0.9043892621994019,0.894446611404419
1740247043857115400,11.269115478515625,4.55714225769043,0.8775821328163147,0.9467217922210693
1740247043867096600,11.2790966796875,4.611037731170654,0.8804250955581665,0.9608730673789978
1740247043877077500,11.289077392578125,4.654398441314697,0.9156999588012695,0.9380950331687927
1740247043887059700,11.299059814453125,4.696352481842041,0.9725278615951538,0.8698291778564453
1740247043897040600,11.30904052734375,4.73022985458374,1.0283282995224,0.7811586856842041
1740247043907022600,11.319022705078124,4.74100923538208,1.0837047100067139,0.6983990669250488
1740247043917003500,11.32900341796875,4.718544960021973,1.1008086204528809,0.6240937113761902
1740247043926984400,11.338984375,4.670335292816162,1.0822796821594238,0.560389518737793
1740247043936966700,11.348966552734375,4.592838764190674,1.0560933351516724,0.485587477684021
1740247043946947600,11.358947509765626,4.493061065673828,1.0588587522506714,0.3860433101654053
1740247043956929800,11.3689296875,4.386667251586914,1.0966628789901733,0.2702658474445343
1740247043966910700,11.37891064453125,4.276954174041748,1.1346783638000488,0.16581320762634277
1740247043976891400,11.388891357421874,4.169688701629639,1.1265019178390503,0.11307462304830551
1740247043986873600,11.39887353515625,4.070183753967285,1.0655832290649414,0.13157214224338531
1740247043996854500,11.4088544921875,3.967804431915283,0.9675362706184387,0.19506429135799408
1740247044006836700,11.418836669921875,3.8650200366973877,0.8664653301239014,0.2766454517841339
1740247044016817700,11.428817626953125,3.7510573863983154,0.7758014798164368,0.33527520298957825
1740247044026798800,11.438798828125,3.647942543029785,0.6836971044540405,0.3359793424606323
1740247044036780500,11.448780517578125,3.547302484512329,0.5891498327255249,0.2779056429862976
1740247044046761500,11.458761474609375,3.4379098415374756,0.45792680978775024,0.17746293544769287
1740247044056742700,11.46874267578125,3.2742271423339844,0.2953038215637207,0.05807395651936531
1740247044066724600,11.478724609375,3.0343575477600098,0.06899265199899673,-0.06711725145578384
1740247044076705800,11.488705810546875,2.7157461643218994,-0.16857729852199554,-0.18722288310527802
1740247044086687500,11.4986875,2.3186352252960205,-0.3558686375617981,-0.29786843061447144
1740247044096668700,11.508668701171874,1.836855411529541,-0.4476022720336914,-0.3926580548286438
1740247044106650000,11.518650146484376,1.3243482112884521,-0.5167283415794373,-0.45565512776374817
1740247044116632000,11.528632080078125,0.8406577110290527,-0.6360076069831848,-0.4780115783214569
1740247044126613200,11.53861328125,0.3967188596725464,-0.8243575692176819,-0.4714716672897339
1740247044136595000,11.548594970703125,0.0021579593885689974,-1.0183101892471313,-0.45605888962745667
1740247044146576100,11.558576171875,-0.34076690673828125,-1.163209080696106,-0.4636685848236084
1740247044156557000,11.56855712890625,-0.6556620001792908,-1.2292711734771729,-0.5031006932258606
1740247044166539300,11.578539306640625,-0.975729763507843,-1.2531520128250122,-0.5660887360572815
1740247044176520200,11.588520263671874,-1.3257908821105957,-1.2444692850112915,-0.6243059635162354
1740247044186502000,11.598501953125,-1.7073088884353638,-1.224189043045044,-0.6638091206550598
1740247044196483000,11.608483154296875,-2.1188125610351562,-1.1973865032196045,-0.675961971282959
1740247044206464000,11.618464111328125,-2.5299313068389893,-1.1800631284713745,-0.6542726159095764
1740247044216446200,11.6284462890625,-2.919686794281006,-1.1442623138427734,-0.5972074866294861
1740247044226427100,11.63842724609375,-3.266848564147949,-1.0694900751113892,-0.5046956539154053
1740247044236409000,11.6484091796875,-3.545938730239868,-0.9657764434814453,-0.38372769951820374
1740247044246390000,11.65839013671875,-3.7474613189697266,-0.8348045945167542,-0.24636796116828918
1740247044256371000,11.668370849609374,-3.8724169731140137,-0.6922916769981384,-0.11792397499084473
1740247044266353200,11.678353271484376,-3.9376277923583984,-0.5564461946487427,0.0022327941842377186
1740247044276334000,11.688333984375,-3.973341941833496,-0.4387832283973694,0.09591294825077057
1740247044286316000,11.69831591796875,-4.005138874053955,-0.3464309275150299,0.1559360772371292
1740247044296297000,11.708296875,-4.049328327178955,-0.2826511263847351,0.1763761043548584
1740247044306278000,11.71827783203125,-4.109802722930908,-0.27408507466316223,0.15422286093235016
1740247044316260000,11.728260009765625,-4.166158676147461,-0.357677698135376,0.11138670891523361
1740247044326241000,11.738240966796875,-4.211452007293701,-0.5262688398361206,0.04417864605784416
1740247044336223200,11.74822314453125,-4.2464823722839355,-0.725209653377533,-0.06126682087779045
1740247044346204200,11.7582041015625,-4.271419525146484,-0.8942034840583801,-0.21687506139278412
1740247044356185000,11.76818505859375,-4.2963080406188965,-0.9871941208839417,-0.40514135360717773
1740247044366167000,11.7781669921875,-4.33936882019043,-0.995308518409729,-0.6104298233985901
1740247044376148000,11.78814794921875,-4.420114994049072,-0.9427489042282104,-0.8039169907569885
1740247044386130200,11.798130126953126,-4.530454635620117,-0.8513609170913696,-0.9325090646743774
1740247044396111000,11.808111083984375,-4.624953269958496,-0.7557164430618286,-0.9488078355789185
1740247044406092300,11.81809228515625,-4.682577133178711,-0.6938040852546692,-0.85603266954422
1740247044416074000,11.828073974609374,-4.716306686401367,-0.6671591401100159,-0.7182691693305969
1740247044426055200,11.83805517578125,-4.729183673858643,-0.6521897912025452,-0.6247355341911316
1740247044436036000,11.8480361328125,-4.713798522949219,-0.6006999611854553,-0.6057977676391602
1740247044446018000,11.85801806640625,-4.662790298461914,-0.48895689845085144,-0.6846097707748413
1740247044455999200,11.867999267578124,-4.587064266204834,-0.29549768567085266,-0.835481584072113
1740247044465981000,11.87798095703125,-4.515925407409668,-0.06083325669169426,-0.9928205609321594
1740247044475962000,11.887962158203125,-4.454603672027588,0.10822127759456635,-1.0665762424468994
1740247044485943000,11.897943115234375,-4.3913655281066895,0.1845163106918335,-1.0303746461868286
1740247044495925200,11.90792529296875,-4.29539155960083,0.19289781153202057,-0.9107025265693665
1740247044505907000,11.917906982421876,-4.148200035095215,0.1881193071603775,-0.727230429649353
1740247044515887900,11.927887939453125,-3.9427297115325928,0.19030176103115082,-0.4952837824821472
1740247044525869000,11.937869140625,-3.6574220657348633,0.19408665597438812,-0.23109127581119537
1740247044535851000,11.94785107421875,-3.2671186923980713,0.20260797441005707,0.061764296144247055
1740247044545832200,11.957832275390626,-2.753467559814453,0.1787489801645279,0.37257543206214905
1740247044555814100,11.967814208984375,-2.146545648574829,0.09301143139600754,0.6792104840278625
1740247044565795000,11.977795166015625,-1.5080618858337402,-0.052739642560482025,0.9403757452964783
1740247044575776000,11.98777587890625,-0.9171292781829834,-0.2168968915939331,1.1060757637023926
1740247044585758000,11.997758056640626,-0.44850480556488037,-0.33233827352523804,1.133836269378662
1740247044595739100,12.0077392578125,-0.1389397829771042,-0.349381685256958,1.0164843797683716
1740247044605721000,12.01772119140625,0.051957473158836365,-0.3210347592830658,0.7855158448219299
1740247044615702300,12.027702392578124,0.15520210564136505,-0.2942907512187958,0.49945348501205444
1740247044625683000,12.037682861328125,0.19882015883922577,-0.29762130975723267,0.22974558174610138
1740247044635665200,12.0476650390625,0.19441741704940796,-0.32539328932762146,0.017189638689160347
1740247044645646000,12.05764599609375,0.1764136552810669,-0.3604668378829956,-0.10657038539648056
1740247044655628000,12.0676279296875,0.1774621307849884,-0.36639583110809326,-0.1666789948940277
1740247044665609200,12.077609130859376,0.2181088924407959,-0.3188387155532837,-0.1577153205871582
1740247044675590100,12.087590087890625,0.3278404474258423,-0.19716420769691467,-0.10108240693807602
1740247044685572000,12.097572021484375,0.5301107168197632,0.029769347980618477,-0.024683775380253792
1740247044695553000,12.107552978515624,0.8170176148414612,0.34874388575553894,0.0473528690636158
1740247044705534000,12.117533935546875,1.1733709573745728,0.7070306539535522,0.11568772047758102
1740247044715516200,12.12751611328125,1.5788215398788452,1.038116693496704,0.20895801484584808
1740247044725497000,12.1374970703125,1.9778517484664917,1.2842860221862793,0.33241894841194153
1740247044735479000,12.14747900390625,2.3360118865966797,1.418587565422058,0.4809815287590027
1740247044745460000,12.1574599609375,2.634284257888794,1.4670219421386719,0.6200432777404785
1740247044755441200,12.167441162109375,2.8696985244750977,1.4710891246795654,0.7283774614334106
1740247044765423000,12.177423095703125,3.0415611267089844,1.4708186388015747,0.7726927399635315
1740247044775404000,12.187404052734376,3.1599671840667725,1.4840388298034668,0.748751699924469
1740247044785386000,12.197385986328126,3.244260311126709,1.5128389596939087,0.655264139175415
1740247044795367000,12.207366943359375,3.323003053665161,1.5455780029296875,0.5234959721565247
1740247044805348000,12.21734814453125,3.4301798343658447,1.5703505277633667,0.361636221408844
1740247044815330000,12.227330078125,3.5751514434814453,1.5641778707504272,0.1911957859992981
1740247044825311200,12.237311279296875,3.746087074279785,1.518991470336914,0.015325693413615227
1740247044835293000,12.24729296875,3.919268846511841,1.4098247289657593,-0.16340729594230652
1740247044845273900,12.25727392578125,4.078845024108887,1.2443740367889404,-0.3415389657020569
1740247044855255000,12.267255126953126,4.226939678192139,1.0531913042068481,-0.5230067372322083
1740247044865237000,12.277237060546875,4.355734825134277,0.8567072153091431,-0.6993260979652405
1740247044875218200,12.28721826171875,4.453139305114746,0.6668491363525391,-0.8384819030761719
1740247044885200100,12.2972001953125,4.511340141296387,0.48605939745903015,-0.9291049838066101
1740247044895181000,12.30718115234375,4.536507606506348,0.32022595405578613,-0.974844753742218
1740247044905162000,12.317161865234375,4.548995018005371,0.1886492818593979,-0.9962304830551147
1740247044915144000,12.32714404296875,4.567042350769043,0.10333624482154846,-0.9848934412002563
1740247044925125000,12.337125,4.5772552490234375,0.045816488564014435,-0.9415704607963562
1740247044935107000,12.347107177734374,4.576924800872803,0.006876814644783735,-0.8769240975379944
1740247044945088300,12.357088134765625,4.562664985656738,-0.03527623042464256,-0.799033522605896
1740247044955069200,12.367069091796875,4.541714191436768,-0.06770740449428558,-0.720507025718689
1740247044965051100,12.377051025390625,4.505429267883301,-0.06156322732567787,-0.6634959578514099
1740247044975032000,12.387031982421876,4.44602632522583,-0.031090540811419487,-0.6266423463821411
1740247044985014000,12.397013916015625,4.374621391296387,0.010295247659087181,-0.5943991541862488
1740247044994995200,12.4069951171875,4.286023139953613,0.025004684925079346,-0.5365760922431946
1740247045004976000,12.41697607421875,4.1850152015686035,0.0250406377017498,-0.4459279477596283
1740247045014958000,12.4269580078125,4.072175979614258,0.013194898143410683,-0.3175273537635803
1740247045024939000,12.43693896484375,3.939940929412842,-0.027717914432287216,-0.15784795582294464
1740247045034921200,12.446921142578125,3.793261766433716,-0.07848095893859863,0.015674034133553505
1740247045044902100,12.456902099609374,3.634531021118164,-0.14669197797775269,0.20142419636249542
1740247045054883000,12.466883056640626,3.456303358078003,-0.21723857522010803,0.3937813937664032
1740247045064865000,12.476864990234375,3.2767438888549805,-0.2916283905506134,0.5734614133834839
1740247045074846000,12.486845947265625,3.118375301361084,-0.3772929608821869,0.7354093194007874
1740247045084828200,12.496828125,3.0279340744018555,-0.4829576015472412,0.8838954567909241
1740247045094809000,12.50680908203125,3.013981342315674,-0.6018219590187073,1.0369396209716797
1740247045104789800,12.516789794921875,3.0240366458892822,-0.720120370388031,1.1736260652542114
1740247045114771700,12.526771728515625,2.9331891536712646,-0.7852703332901001,1.2696138620376587
