time,seconds_elapsed,z,y,x
1740247032614355000,0.02635498046875,0.1807291954755783,0.5406011939048767,0.20529848337173462
1740247032624336600,0.036336669921875,0.2379344254732132,0.5904765725135803,0.18557778000831604
1740247032634317800,0.04631787109375,0.26175355911254883,0.5605123043060303,0.16168436408042908
1740247032644298800,0.056298828125,0.23298636078834534,0.4637892544269562,0.15243813395500183
1740247032654281000,0.066281005859375,0.17930318415164948,0.3458995819091797,0.17914581298828125
1740247032664262000,0.076261962890625,0.13072605431079865,0.1538504958152771,0.24634934961795807
1740247032674242800,0.086242919921875,0.11106403172016144,-0.014579805545508862,0.1581699699163437
1740247032684224800,0.096224853515625,0.0008419157820753753,0.20449687540531158,0.1706111878156662
1740247032694205700,0.106205810546875,-0.115301713347435,0.5790731310844421,0.22279250621795654
1740247032704187000,0.116186767578125,-0.1609213948249817,1.0014041662216187,0.11568176746368408
1740247032714168800,0.1261689453125,-0.12270525842905045,1.3109477758407593,-0.13170777261257172
1740247032724150000,0.13614990234375,-0.08360978215932846,1.5112829208374023,-0.4141367971897125
1740247032734131000,0.146130859375,-0.012726746499538422,1.484835147857666,-0.6185430288314819
1740247032744112600,0.156112548828125,0.11110278964042664,1.2394160032272339,-0.7097509503364563
1740247032754093800,0.16609375,0.2355242669582367,0.863513171672821,-0.7052333950996399
1740247032764074800,0.17607470703125,0.3045254349708557,0.5351262092590332,-0.6462739109992981
1740247032774057000,0.186056884765625,0.3049100637435913,0.34650978446006775,-0.5553779006004333
1740247032784038000,0.196037841796875,0.2542453110218048,0.334797739982605,-0.43080267310142517
1740247032794018800,0.206018798828125,0.22302162647247314,0.5055767893791199,-0.2881251871585846
1740247032804000800,0.216000732421875,0.24205763638019562,0.795464813709259,-0.14413179457187653
1740247032813981700,0.225981689453125,0.2822277843952179,1.181755542755127,-0.011046272702515125
1740247032823963000,0.235962890625,0.2696011960506439,1.6758856773376465,0.11723607033491135
1740247032833944800,0.24594482421875,0.18079575896263123,2.2088189125061035,0.23731230199337006
1740247032843925800,0.25592578125,0.0536055862903595,2.711211681365967,0.3512716293334961
1740247032853907000,0.265906982421875,-0.0734349861741066,3.0980021953582764,0.44101306796073914
1740247032863888600,0.275888671875,-0.18371248245239258,3.3657543659210205,0.4796174466609955
1740247032873869800,0.285869873046875,-0.2836502194404602,3.5186209678649902,0.42924264073371887
1740247032883850800,0.295850830078125,-0.3698010742664337,3.5668935775756836,0.2986558675765991
1740247032893833000,0.3058330078125,-0.46411752700805664,3.593982219696045,0.12779976427555084
1740247032903814000,0.31581396484375,-0.5700215697288513,3.681779623031616,-0.0428052693605423
1740247032913795800,0.3257958984375,-0.6591149568557739,3.863274097442627,-0.18219484388828278
1740247032923776800,0.33577685546875,-0.719771683216095,4.156346321105957,-0.25635963678359985
1740247032933757700,0.3457578125,-0.7812188267707825,4.524064540863037,-0.2699635326862335
1740247032943740000,0.355739990234375,-0.8838868737220764,4.911168575286865,-0.23463325202465057
1740247032953720800,0.365720947265625,-1.0497424602508545,5.244667053222656,-0.17701387405395508
1740247032963701800,0.37570166015625,-1.2848042249679565,5.516473293304443,-0.08794578164815903
1740247032973683700,0.38568359375,-1.5755926370620728,5.727944374084473,0.0001752224052324891
1740247032983664600,0.39566455078125,-1.89613676071167,5.86876916885376,0.06427271664142609
1740247032993645800,0.405645751953125,-2.244594097137451,5.909740447998047,0.08666419237852097
1740247033003627800,0.415627685546875,-2.5951573848724365,5.846263408660889,0.03455624729394913
1740247033013609000,0.42560888671875,-2.9390628337860107,5.705013751983643,-0.08991313725709915
1740247033023590000,0.43558984375,-3.2550132274627686,5.531617164611816,-0.2785235345363617
1740247033033571800,0.44557177734375,-3.5188589096069336,5.357098579406738,-0.47897273302078247
1740247033043552800,0.455552734375,-3.7689719200134277,5.219390869140625,-0.6699445843696594
1740247033053533700,0.46553369140625,-4.051962852478027,5.0843610763549805,-0.8433259725570679
1740247033063516000,0.475515869140625,-4.4120659828186035,4.959846496582031,-0.9851168990135193
1740247033073496800,0.485496826171875,-4.834975242614746,4.822448253631592,-1.0537590980529785
1740247033083477800,0.495477783203125,-5.267251014709473,4.652430534362793,-1.0381053686141968
1740247033093460000,0.5054599609375,-5.641411304473877,4.477963447570801,-0.973784863948822
1740247033103441000,0.51544091796875,-5.895044803619385,4.26943302154541,-0.899900496006012
1740247033113422000,0.525422119140625,-6.026867389678955,4.040253639221191,-0.8644704818725586
1740247033123404000,0.535404052734375,-6.045576572418213,3.7377443313598633,-0.9100054502487183
1740247033133385200,0.54538525390625,-5.962154865264893,3.374272108078003,-1.0470259189605713
1740247033143366100,0.5553662109375,-5.7806806564331055,2.9577369689941406,-1.257512092590332
1740247033153348000,0.56534814453125,-5.530019283294678,2.4983367919921875,-1.548906922340393
1740247033163329000,0.5753291015625,-5.316617965698242,2.055413007736206,-1.9656884670257568
1740247033173310000,0.58531005859375,-5.149562835693359,1.6268523931503296,-2.402855157852173
1740247033183292200,0.595292236328125,-4.948836326599121,1.15166437625885,-2.6953234672546387
1740247033193273000,0.605273193359375,-4.634278774261475,0.6021212339401245,-2.734785556793213
1740247033203254000,0.61525390625,-4.184001922607422,0.03908293694257736,-2.5002996921539307
1740247033213236000,0.625236083984375,-3.6281232833862305,-0.3669269382953644,-2.0577564239501953
1740247033223217000,0.635216796875,-2.9609992504119873,-0.6171892285346985,-1.532141089439392
1740247033233198000,0.645197998046875,-2.219841480255127,-0.7717922925949097,-1.0135254859924316
1740247033243180000,0.655179931640625,-1.5470513105392456,-0.8158625364303589,-0.5536897778511047
1740247033253161200,0.6651611328125,-0.9948386549949646,-0.8040614724159241,-0.1630283147096634
1740247033263143200,0.67514306640625,-0.5642367005348206,-0.7518672943115234,0.17791062593460083
1740247033273124000,0.6851240234375,-0.3066669702529907,-0.6575667858123779,0.4341052174568176
1740247033283105000,0.69510498046875,-0.23369716107845306,-0.5138663053512573,0.5926631689071655
1740247033293087000,0.7050869140625,-0.2721831798553467,-0.2956560552120209,0.6569474935531616
1740247033303068200,0.715068115234375,-0.35811352729797363,-0.011498645879328251,0.6521905660629272
1740247033313049000,0.725049072265625,-0.45294880867004395,0.3164486885070801,0.6232927441596985
1740247033323031300,0.73503125,-0.546120285987854,0.6189321279525757,0.5730378031730652
1740247033333012200,0.74501220703125,-0.6268354058265686,0.8379246592521667,0.4628276526927948
1740247033342993000,0.754992919921875,-0.685163140296936,0.9527695178985596,0.2551063895225525
1740247033352975000,0.76497509765625,-0.7731085419654846,1.0136172771453857,-0.05768556520342827
1740247033362956000,0.7749560546875,-0.9140805602073669,1.0220807790756226,-0.4616868197917938
1740247033372937000,0.78493701171875,-1.0612547397613525,0.9424640536308289,-0.9011035561561584
1740247033382919200,0.794919189453125,-1.1374560594558716,0.8663245439529419,-1.286085844039917
1740247033392900000,0.804900146484375,-1.0475949048995972,0.8139471411705017,-1.5575637817382812
1740247033402881000,0.814881103515625,-0.6345977187156677,0.6299589276313782,-1.6884759664535522
1740247033412863000,0.824863037109375,0.11892339587211609,0.19548626244068146,-1.6725249290466309
1740247033422844200,0.83484423828125,1.0542738437652588,-0.41919633746147156,-1.521869421005249
1740247033432825000,0.8448251953125,1.9815667867660522,-1.0109736919403076,-1.2391637563705444
1740247033442807300,0.854807373046875,2.8072500228881836,-1.413928508758545,-0.8097662925720215
1740247033452788200,0.864788330078125,3.4471471309661865,-1.6163251399993896,-0.28316691517829895
1740247033462769200,0.87476904296875,3.8383233547210693,-1.7048429250717163,0.23656360805034637
1740247033472751000,0.884751220703125,4.002951145172119,-1.7463486194610596,0.7004086375236511
1740247033482732000,0.89473193359375,4.049201965332031,-1.7172369956970215,1.109976887702942
1740247033492713000,0.904712890625,4.047048568725586,-1.5674105882644653,1.460471510887146
1740247033502695200,0.914695068359375,4.037246227264404,-1.3045533895492554,1.7560787200927734
1740247033512676000,0.924676025390625,4.044460296630859,-0.9693319201469421,2.0000150203704834
1740247033522657300,0.9346572265625,4.079134941101074,-0.6191036105155945,2.1980555057525635
1740247033532639000,0.944638916015625,4.145261764526367,-0.28692707419395447,2.3589117527008057
1740247033542620200,0.9546201171875,4.236619472503662,0.0434604175388813,2.4880967140197754
1740247033552602000,0.96460205078125,4.346312522888184,0.38925227522850037,2.573380708694458
1740247033562583000,0.9745830078125,4.465019226074219,0.7020256519317627,2.627539873123169
1740247033572564200,0.984564208984375,4.578019142150879,0.9234480857849121,2.6526999473571777
1740247033582546000,0.9945458984375,4.670467853546143,1.0587308406829834,2.6338846683502197
1740247033592527000,1.004527099609375,4.729220390319824,1.1475425958633423,2.5562241077423096
1740247033602508000,1.014508056640625,4.7572245597839355,1.2084195613861084,2.41838002204895
1740247033612490200,1.024490234375,4.7700090408325195,1.208495855331421,2.2285425662994385
1740247033622471200,1.03447119140625,4.759137153625488,1.1529966592788696,1.9865447282791138
1740247033632452000,1.0444521484375,4.740451812744141,1.0323596000671387,1.7184268236160278
1740247033642434000,1.05443408203125,4.709137916564941,0.889642596244812,1.458249568939209
1740247033652415000,1.0644150390625,4.649899005889893,0.7738202810287476,1.238370418548584
1740247033662396200,1.074396240234375,4.5344061851501465,0.7409393191337585,1.0486305952072144
1740247033672378000,1.084378173828125,4.359110355377197,0.8204615712165833,0.8625727891921997
1740247033682359000,1.094359130859375,4.1171369552612305,0.9702188372612,0.6484383940696716
1740247033692340200,1.10434033203125,3.8070003986358643,1.0803139209747314,0.40145888924598694
1740247033702322000,1.114322021484375,3.4558703899383545,1.0170267820358276,0.16940781474113464
1740247033712303000,1.12430322265625,3.0985870361328125,0.7987188100814819,0.036307308822870255
1740247033722284000,1.134283935546875,2.8000025749206543,0.6035378575325012,0.028071483597159386
1740247033732266200,1.144266357421875,2.5745840072631836,0.49904412031173706,0.0991494283080101
1740247033742247200,1.1542470703125,2.4086861610412598,0.45787379145622253,0.20442791283130646
1740247033752228000,1.16422802734375,2.2808072566986084,0.4215273857116699,0.31414130330085754
1740247033762210000,1.1742099609375,2.173853874206543,0.4043247103691101,0.4103195071220398
1740247033772191000,1.18419091796875,2.1030144691467285,0.3986273407936096,0.4518274664878845
1740247033782173200,1.194173095703125,2.1342029571533203,0.34093475341796875,0.3823991119861603
1740247033792154000,1.204154052734375,2.272155523300171,0.2132776379585266,0.13633781671524048
1740247033802135000,1.214135009765625,2.337925672531128,0.0938098281621933,-0.31022822856903076
1740247033812117000,1.224116943359375,2.1373636722564697,-0.050758346915245056,-0.8157773017883301
1740247033822098000,1.234097900390625,1.6286721229553223,-0.17927557229995728,-1.1836801767349243
1740247033832079000,1.2440791015625,0.8523970246315002,-0.17636722326278687,-1.3495970964431763
1740247033842061000,1.25406103515625,-0.06672590225934982,-0.06076579540967941,-1.3522961139678955
1740247033852042200,1.264042236328125,-1.0179355144500732,0.08909665793180466,-1.214239239692688
1740247033862023200,1.274023193359375,-1.8490159511566162,0.20554043352603912,-0.9563294053077698
1740247033872004900,1.2840048828125,-2.4530136585235596,0.21124446392059326,-0.6352391242980957
1740247033881986000,1.293986083984375,-2.7812929153442383,0.049244657158851624,-0.3244735300540924
1740247033891967000,1.303967041015625,-2.8396317958831787,-0.19101479649543762,-0.06713870912790298
1740247033901949200,1.31394921875,-2.7078545093536377,-0.40449193120002747,0.12277743220329285
1740247033911930000,1.32393017578125,-2.5204854011535645,-0.49924203753471375,0.20261244475841522
1740247033921911000,1.3339111328125,-2.415010929107666,-0.4224196970462799,0.15711474418640137
1740247033931893000,1.34389306640625,-2.4244320392608643,-0.25041788816452026,0.005767081398516893
1740247033941874000,1.3538740234375,-2.5244903564453125,-0.10287689417600632,-0.17497020959854126
1740247033951855000,1.363855224609375,-2.6637141704559326,-0.052136000245809555,-0.32493698596954346
1740247033961837000,1.373837158203125,-2.8124170303344727,-0.11269335448741913,-0.41741231083869934
1740247033971818000,1.38381787109375,-2.9532246589660645,-0.2373102754354477,-0.4629477858543396
1740247033981799200,1.393799072265625,-3.0749268531799316,-0.3726617097854614,-0.49082550406455994
1740247033991781000,1.403781005859375,-3.2100515365600586,-0.49430426955223083,-0.5012121200561523
1740247034001762000,1.413761962890625,-3.3605313301086426,-0.5905884504318237,-0.49372246861457825
1740247034011743000,1.423742919921875,-3.5235447883605957,-0.6837272644042969,-0.466937780380249
1740247034021725200,1.43372509765625,-3.6814491748809814,-0.7682115435600281,-0.4313630163669586
1740247034031706000,1.4437060546875,-3.8089518547058105,-0.8030199408531189,-0.39503100514411926
1740247034041688000,1.45368798828125,-3.8988842964172363,-0.7813628315925598,-0.33764973282814026
1740247034051669200,1.463669189453125,-3.9684972763061523,-0.7143719792366028,-0.2549094259738922
1740247034061650000,1.47364990234375,-4.031444549560547,-0.637315571308136,-0.1665516048669815
1740247034071632100,1.483632080078125,-4.09827184677124,-0.5960483551025391,-0.09025615453720093
1740247034081613000,1.493613037109375,-4.167963027954102,-0.5928013920783997,-0.04270940646529198
1740247034091593700,1.50359375,-4.219916343688965,-0.5604702830314636,-0.02928781695663929
1740247034101576000,1.513575927734375,-4.237678050994873,-0.5049428343772888,-0.07201850414276123
1740247034111556900,1.523556884765625,-4.238684177398682,-0.4328894019126892,-0.178338885307312
1740247034121538000,1.5335380859375,-4.2742767333984375,-0.3273847997188568,-0.36142268776893616
1740247034131519700,1.543519775390625,-4.3638224601745605,-0.20222850143909454,-0.5887192487716675
1740247034141501000,1.5535009765625,-4.532591342926025,-0.11147356778383255,-0.8387839198112488
1740247034151481900,1.56348193359375,-4.75139856338501,-0.10043375194072723,-1.109370231628418
1740247034161463800,1.5734638671875,-4.931093692779541,-0.21674545109272003,-1.406357765197754
1740247034171445000,1.583445068359375,-5.038426399230957,-0.37645915150642395,-1.7342805862426758
1740247034181426000,1.593426025390625,-5.079399585723877,-0.517870306968689,-2.045914888381958
1740247034191407900,1.603407958984375,-5.0728302001953125,-0.6089558005332947,-2.2929294109344482
1740247034201388800,1.613388916015625,-5.033600807189941,-0.6667187213897705,-2.4346115589141846
1740247034211369700,1.62336962890625,-4.944979190826416,-0.7225255370140076,-2.4545578956604004
1740247034221352000,1.63335205078125,-4.770295143127441,-0.7989518642425537,-2.359652042388916
1740247034231332900,1.643332763671875,-4.482838153839111,-0.9231374263763428,-2.1555018424987793
1740247034241314800,1.653314697265625,-4.092098236083984,-1.074508786201477,-1.8865641355514526
1740247034251295700,1.663295654296875,-3.604909896850586,-1.2259842157363892,-1.579616904258728
1740247034261276700,1.673276611328125,-3.0304694175720215,-1.3242429494857788,-1.2487667798995972
1740247034271259000,1.6832587890625,-2.4027838706970215,-1.3281115293502808,-0.9083070158958435
1740247034281239800,1.69323974609375,-1.7660897970199585,-1.2528362274169922,-0.5740089416503906
1740247034291221000,1.703220947265625,-1.1634736061096191,-1.1342716217041016,-0.2526587247848511
1740247034301202700,1.71320263671875,-0.6606394648551941,-0.9881296753883362,0.03647399693727493
1740247034311184000,1.723183837890625,-0.29525959491729736,-0.8205328583717346,0.2749784588813782
1740247034321164800,1.733164794921875,-0.07141583412885666,-0.6562472581863403,0.44255706667900085
1740247034331146800,1.743146728515625,0.04209568724036217,-0.49861088395118713,0.5374159812927246
1740247034341128000,1.7531279296875,0.08493077009916306,-0.34146761894226074,0.5609085559844971
1740247034351108900,1.76310888671875,0.09743643552064896,-0.16224537789821625,0.5348877906799316
1740247034361090800,1.7730908203125,0.08883122354745865,0.04524310678243637,0.47016796469688416
1740247034371071700,1.78307177734375,0.08807524293661118,0.2756243944168091,0.3943716883659363
1740247034381052700,1.793052734375,0.13177718222141266,0.49902820587158203,0.33479171991348267
1740247034391035000,1.803034912109375,0.23492909967899323,0.6942893862724304,0.32130900025367737
1740247034401015800,1.813015869140625,0.4006221890449524,0.8552234172821045,0.3539971709251404
1740247034410997000,1.8229970703125,0.6355101466178894,0.9353721141815186,0.43233954906463623
1740247034420978700,1.832978759765625,0.9121859669685364,0.9277166128158569,0.5313543081283569
1740247034430959900,1.8429599609375,1.2133793830871582,0.8663719296455383,0.6189665794372559
1740247034440940800,1.85294091796875,1.519059658050537,0.8020469546318054,0.665493369102478
1740247034450922800,1.8629228515625,1.8126654624938965,0.749834418296814,0.6742023825645447
1740247034460904000,1.872904052734375,2.0740816593170166,0.703205943107605,0.6758064031600952
1740247034470885600,1.8828857421875,2.29905366897583,0.6505652070045471,0.6813369393348694
1740247034480866800,1.89286669921875,2.4993371963500977,0.5945221781730652,0.7101720571517944
1740247034490847700,1.90284765625,2.6957194805145264,0.5571944713592529,0.7616965770721436
1740247034500830000,1.912829833984375,2.896183729171753,0.5531312823295593,0.8327955007553101
1740247034510811000,1.922810791015625,3.1021108627319336,0.5952366590499878,0.9099571704864502
1740247034520791800,1.932791748046875,3.308880090713501,0.6713905930519104,0.9812813997268677
1740247034530773800,1.942773681640625,3.49743390083313,0.7532612681388855,1.0272363424301147
1740247034540754700,1.952754638671875,3.6606714725494385,0.8034698367118835,1.0590463876724243
1740247034550735600,1.962735595703125,3.7875585556030273,0.7902440428733826,1.0744764804840088
1740247034560717800,1.9727177734375,3.8916494846343994,0.728568971157074,1.0724998712539673
1740247034570698800,1.98269873046875,3.9785268306732178,0.6910902261734009,1.0451351404190063
1740247034580680000,1.992679931640625,4.041843891143799,0.695785641670227,0.9981189966201782
1740247034590662000,2.002661865234375,4.088914394378662,0.7161474227905273,0.9323742985725403
1740247034600642800,2.012642822265625,4.119772434234619,0.7633833289146423,0.8634066581726074
1740247034610623700,2.022623779296875,4.127735614776611,0.8358086347579956,0.8060311675071716
1740247034620606000,2.03260595703125,4.118814945220947,0.9285433292388916,0.7591134309768677
1740247034630587000,2.0425869140625,4.0873332023620605,1.0519682168960571,0.7234219312667847
1740247034640567800,2.05256787109375,4.032433032989502,1.1672651767730713,0.6677147150039673
1740247034650550000,2.062550048828125,3.9486987590789795,1.2301063537597656,0.6040273308753967
1740247034660530700,2.07253076171875,3.851639986038208,1.2437924146652222,0.5222030282020569
1740247034670513000,2.082512939453125,3.751384735107422,1.221908450126648,0.43569475412368774
1740247034680493800,2.092493896484375,3.6520121097564697,1.176682949066162,0.355136513710022
1740247034690474800,2.102474853515625,3.570108413696289,1.107378602027893,0.285450279712677
1740247034700457000,2.11245703125,3.520672559738159,1.065076231956482,0.22100816667079926
1740247034710438000,2.12243798828125,3.4982213973999023,1.089416742324829,0.13972844183444977
1740247034720418800,2.132418701171875,3.475940465927124,1.1246567964553833,0.04662911221385002
1740247034730400800,2.14240087890625,3.427908420562744,1.0889616012573242,-0.02713407203555107
1740247034740381700,2.152381591796875,3.319338083267212,0.9199150204658508,-0.05600513145327568
1740247034750363000,2.16236279296875,3.1406683921813965,0.6638525724411011,-0.01241713110357523
1740247034760344800,2.1723447265625,2.909552812576294,0.4154132008552551,0.10298269242048264
1740247034770326000,2.182325927734375,2.6423227787017822,0.239777073264122,0.24378161132335663
1740247034780307000,2.192306884765625,2.364034652709961,0.1244981437921524,0.39197906851768494
1740247034790289000,2.202288818359375,2.0910487174987793,0.031133871525526047,0.5079852938652039
1740247034800269800,2.212269775390625,1.8498809337615967,-0.03252419829368591,0.5785039067268372
1740247034810250800,2.222250732421875,1.6345361471176147,-0.05438856780529022,0.5698972344398499
1740247034820233000,2.23223291015625,1.4245299100875854,-0.014469916000962257,0.4795897305011749
1740247034830214000,2.2422138671875,1.200490117073059,0.08658891916275024,0.3211907744407654
1740247034840194800,2.25219482421875,0.9493153691291809,0.18882021307945251,0.12757602334022522
1740247034850176800,2.2621767578125,0.6740916967391968,0.21405045688152313,-0.05846623331308365
1740247034860157700,2.27215771484375,0.36775892972946167,0.14149422943592072,-0.21534213423728943
1740247034870140000,2.282139892578125,0.04923703148961067,0.013184256851673126,-0.3418666422367096
1740247034880120800,2.292120849609375,-0.24183714389801025,-0.10680127143859863,-0.4430997967720032
1740247034890102000,2.30210205078125,-0.4839974641799927,-0.201178178191185,-0.5104334354400635
1740247034900083700,2.312083740234375,-0.6582353115081787,-0.34754788875579834,-0.5213824510574341
1740247034910065000,2.32206494140625,-0.7895293831825256,-0.5469105243682861,-0.48596513271331787
1740247034920045800,2.3320458984375,-0.9194260835647583,-0.7822593450546265,-0.43537333607673645
1740247034930027800,2.34202783203125,-1.0531762838363647,-0.9756225347518921,-0.4171372652053833
1740247034940009000,2.352009033203125,-1.2182762622833252,-1.0489604473114014,-0.47408896684646606
1740247034949990000,2.361989990234375,-1.4166016578674316,-1.0251986980438232,-0.6049175262451172
1740247034959971800,2.371971923828125,-1.6479771137237549,-0.9533872604370117,-0.7677935361862183
1740247034969952800,2.381952880859375,-1.8813673257827759,-0.8804948925971985,-0.9108372926712036
1740247034979933700,2.39193359375,-2.112673044204712,-0.8256614804267883,-1.002458930015564
1740247034989916000,2.401916015625,-2.334191083908081,-0.7901497483253479,-1.0395663976669312
1740247034999896800,2.411896728515625,-2.531510829925537,-0.7586187124252319,-1.0376499891281128
1740247035009878000,2.4218779296875,-2.703094482421875,-0.7258696556091309,-0.9960318207740784
1740247035019859700,2.431859619140625,-2.8695170879364014,-0.7326524257659912,-0.9032320976257324
1740247035029841000,2.4418408203125,-3.0249626636505127,-0.7785063982009888,-0.78643798828125
1740247035039821800,2.45182177734375,-3.173027753829956,-0.836544930934906,-0.6630057692527771
1740247035049803800,2.4618037109375,-3.3060414791107178,-0.858295202255249,-0.5455572605133057
1740247035059785000,2.471784912109375,-3.4352617263793945,-0.8102584481239319,-0.44418957829475403
1740247035069766700,2.4817666015625,-3.5622544288635254,-0.7131785154342651,-0.338164359331131
1740247035079747800,2.491747802734375,-3.6924309730529785,-0.6019225716590881,-0.23052579164505005
1740247035089728500,2.501728515625,-3.813638210296631,-0.5060583353042603,-0.10785102099180222
1740247035099710700,2.511710693359375,-3.9110822677612305,-0.4435289204120636,0.025325940921902657
1740247035109691600,2.521691650390625,-3.967073440551758,-0.41352587938308716,0.1935301423072815
1740247035119672800,2.5316728515625,-3.9914886951446533,-0.42935889959335327,0.41453149914741516
1740247035129654500,2.541654541015625,-3.9851317405700684,-0.4983689785003662,0.6586540937423706
1740247035139635700,2.5516357421875,-3.9733471870422363,-0.5988481640815735,0.8443446159362793
1740247035149616600,2.56161669921875,-3.9785847663879395,-0.6601895093917847,0.8910782337188721
1740247035159598600,2.5715986328125,-4.040249347686768,-0.5697413682937622,0.725805401802063
1740247035169579800,2.581579833984375,-4.147712230682373,-0.32539382576942444,0.3841753304004669
1740247035179560700,2.591560791015625,-4.254811763763428,-0.04487323388457298,-0.031906839460134506
1740247035189542700,2.601542724609375,-4.327735424041748,0.14982450008392334,-0.3846377432346344
1740247035199523600,2.611523681640625,-4.335577011108398,0.157380148768425,-0.6124871969223022
1740247035209504500,2.62150439453125,-4.296882629394531,-0.013953975401818752,-0.7342143058776855
1740247035219486700,2.63148681640625,-4.216658115386963,-0.23159894347190857,-0.8138718008995056
1740247035229467600,2.641467529296875,-4.084198951721191,-0.36635899543762207,-0.9008472561836243
1740247035239449900,2.651449951171875,-3.8679633140563965,-0.3954516351222992,-0.9940456748008728
1740247035249430800,2.6614306640625,-3.5563855171203613,-0.4100961685180664,-1.0444774627685547
1740247035259411700,2.67141162109375,-3.170325517654419,-0.46811872720718384,-1.0287094116210938
1740247035269393700,2.6813935546875,-2.716400623321533,-0.5984639525413513,-0.9361774325370789
1740247035279374600,2.69137451171875,-2.20173978805542,-0.7830060720443726,-0.8034300208091736
1740247035289355800,2.701355712890625,-1.631221055984497,-0.9684435129165649,-0.641355037689209
1740247035299337700,2.711337646484375,-1.0256671905517578,-1.1117439270019531,-0.47056785225868225
1740247035309318700,2.721318603515625,-0.4330756962299347,-1.2604619264602661,-0.2966476082801819
1740247035319299600,2.731299560546875,0.0729597881436348,-1.436265468597412,-0.17388787865638733
1740247035329281800,2.74128173828125,0.4407077431678772,-1.6023454666137695,-0.11360430717468262
1740247035339262700,2.7512626953125,0.6829336881637573,-1.6702179908752441,-0.10141688585281372
1740247035349243600,2.76124365234375,0.820793092250824,-1.5841002464294434,-0.08050692081451416
1740247035359225900,2.771225830078125,0.8752033114433289,-1.3560535907745361,-0.012584059499204159
1740247035369206800,2.781206787109375,0.8747157454490662,-0.9961772561073303,0.1096842959523201
1740247035379187700,2.791187744140625,0.8516221642494202,-0.5316404700279236,0.2856958210468292
1740247035389169700,2.801169677734375,0.8297203183174133,-0.006634988822042942,0.4971444010734558
1740247035399150600,2.811150634765625,0.8338609933853149,0.5029049515724182,0.7341521382331848
1740247035409131800,2.8211318359375,0.8655765652656555,0.96733158826828,0.9637100100517273
1740247035419113700,2.83111376953125,0.922480583190918,1.367570400238037,1.1566771268844604
1740247035429095000,2.841094970703125,1.01026451587677,1.6923335790634155,1.2709330320358276
1740247035439076600,2.85107666015625,1.1184279918670654,1.9015989303588867,1.2945765256881714
1740247035449057800,2.861057861328125,1.2436318397521973,2.0003674030303955,1.2408149242401123
1740247035459038700,2.871038818359375,1.3831533193588257,1.999660849571228,1.1268079280853271
1740247035469020700,2.881020751953125,1.5571331977844238,1.8737897872924805,0.9692245721817017
1740247035479001900,2.891001953125,1.7620991468429565,1.6550995111465454,0.7904327511787415
1740247035488982800,2.900982666015625,1.9938660860061646,1.384987711906433,0.6096664071083069
1740247035498964700,2.91096484375,2.2291324138641357,1.1114678382873535,0.44699224829673767
1740247035508945700,2.920945556640625,2.455756425857544,0.855667233467102,0.3254214823246002
1740247035518926600,2.930926513671875,2.6569502353668213,0.7668660283088684,0.2761220932006836
1740247035528908800,2.94090869140625,2.8307478427886963,0.6677165627479553,0.2776626646518707
1740247035538889700,2.9508896484375,2.9745945930480957,0.575925886631012,0.31828996539115906
1740247035548871000,2.960870849609375,3.0991878509521484,0.4773060977458954,0.3364062011241913
1740247035558852600,2.9708525390625,3.234426259994507,0.33473828434944153,0.3072107434272766
1740247035568833500,2.98083349609375,3.3696553707122803,0.2681061029434204,0.2159746140241623
1740247035578814700,2.990814697265625,3.4754257202148438,0.2603856027126312,0.09961311519145966
1740247035588796700,3.000796630859375,3.5318071842193604,0.26941192150115967,-0.018001040443778038
1740247035598777900,3.01077783203125,3.5543699264526367,0.29968753457069397,-0.12586519122123718
1740247035608758800,3.0207587890625,3.5647222995758057,0.3365636467933655,-0.20682039856910706
1740247035618740700,3.03074072265625,3.5817372798919678,0.3560878038406372,-0.2521250247955322
1740247035628721700,3.0407216796875,3.5920896530151367,0.3482528030872345,-0.26572659611701965
1740247035638703900,3.050703857421875,3.588893413543701,0.33969658613204956,-0.2613089382648468
1740247035648684800,3.060684814453125,3.558983325958252,0.39237385988235474,-0.2702794075012207
1740247035658665700,3.070665771484375,3.49763822555542,0.5080117583274841,-0.2943112552165985
1740247035668647700,3.080647705078125,3.426578998565674,0.651397705078125,-0.3161800503730774
1740247035678628600,3.090628662109375,3.3422203063964844,0.7634413838386536,-0.30717775225639343
1740247035688609500,3.100609619140625,3.2236828804016113,0.8094674348831177,-0.26221317052841187
1740247035698591700,3.110591796875,3.0876271724700928,0.7945012450218201,-0.18097957968711853
1740247035708572700,3.12057275390625,2.958616018295288,0.7636914253234863,-0.06571416556835175
1740247035718553900,3.130553955078125,2.8491272926330566,0.737871527671814,0.07836684584617615
1740247035728535600,3.14053564453125,2.770205497741699,0.73200923204422,0.23364034295082092
1740247035738516700,3.150516845703125,2.720813751220703,0.7272065281867981,0.37475886940956116
1740247035748497700,3.16049755859375,2.6904897689819336,0.6988326907157898,0.47372445464134216
1740247035758479600,3.170479736328125,2.6713407039642334,0.5734140872955322,0.5234629511833191
1740247035768460800,3.180460693359375,2.664522409439087,0.36867812275886536,0.5326988101005554
1740247035778442500,3.1904423828125,2.6452300548553467,0.14716756343841553,0.5116209387779236
1740247035788423700,3.200423583984375,2.563429355621338,-0.04732806980609894,0.43500402569770813
1740247035798404600,3.210404541015625,2.3696095943450928,-0.19305305182933807,0.27486762404441833
1740247035808386800,3.22038671875,2.0675034523010254,-0.27493634819984436,0.0033424352295696735
1740247035818367700,3.23036767578125,1.6592180728912354,-0.3107982277870178,-0.33264464139938354
1740247035828348700,3.2403486328125,1.1735299825668335,-0.3410642147064209,-0.6662272214889526
1740247035838330600,3.25033056640625,0.6532197594642639,-0.4167648255825043,-0.9302812218666077
1740247035848311600,3.2603115234375,0.14352937042713165,-0.5183843374252319,-1.110862374305725
1740247035858292700,3.270292724609375,-0.3391944169998169,-0.6400742530822754,-1.2204458713531494
1740247035868274700,3.280274658203125,-0.799885094165802,-0.7997381687164307,-1.2782413959503174
1740247035878255600,3.290255615234375,-1.2225035429000854,-0.9409070014953613,-1.290602684020996
1740247035888236800,3.30023681640625,-1.6006748676300049,-1.0349621772766113,-1.2610546350479126
1740247035898218800,3.31021875,-1.9386550188064575,-1.0683542490005493,-1.196332573890686
1740247035908199700,3.32019970703125,-2.2403175830841064,-1.0524821281433105,-1.1136831045150757
1740247035918180600,3.3301806640625,-2.505863666534424,-1.0096582174301147,-1.0400701761245728
1740247035928162800,3.340162841796875,-2.726332664489746,-0.964762806892395,-0.9832257628440857
1740247035938143700,3.350143798828125,-2.9057300090789795,-0.9094936847686768,-0.9591853618621826
1740247035948125700,3.360125732421875,-3.03872013092041,-0.8247236609458923,-0.9760479927062988
1740247035958107000,3.37010693359375,-3.1249289512634277,-0.7303742170333862,-1.0304808616638184
1740247035968087600,3.380087646484375,-3.168193817138672,-0.6439849138259888,-1.111437439918518
1740247035978069800,3.39006982421875,-3.200803756713867,-0.5790045857429504,-1.2110114097595215
1740247035988050700,3.40005078125,-3.2333316802978516,-0.5302470922470093,-1.3002724647521973
1740247035998031600,3.410031494140625,-3.2815401554107666,-0.48752361536026,-1.3548287153244019
1740247036008013800,3.420013916015625,-3.3611185550689697,-0.44687584042549133,-1.3558672666549683
1740247036017994800,3.429994873046875,-3.458601713180542,-0.41481778025627136,-1.2931897640228271
1740247036027975700,3.4399755859375,-3.5719830989837646,-0.4123607277870178,-1.1879857778549194
1740247036037957600,3.44995751953125,-3.6831462383270264,-0.43349212408065796,-1.049484372138977
1740247036047938800,3.459938720703125,-3.7704741954803467,-0.44892048835754395,-0.8794631361961365
1740247036057919700,3.469919677734375,-3.816011905670166,-0.4280519485473633,-0.6868335008621216
1740247036067901700,3.479901611328125,-3.8192410469055176,-0.3747538626194,-0.468120276927948
1740247036077883000,3.4898828125,-3.777776002883911,-0.3213407099246979,-0.22620487213134766
1740247036087863800,3.49986376953125,-3.705221652984619,-0.2923505902290344,0.010107041336596012
1740247036097845500,3.509845458984375,-3.629047393798828,-0.2670463025569916,0.2289421707391739
1740247036107826400,3.519826416015625,-3.5879242420196533,-0.22648416459560394,0.3999215364456177
1740247036117808600,3.52980859375,-3.5863375663757324,-0.1182040348649025,0.5027179718017578
1740247036127789600,3.53978955078125,-3.607736110687256,0.06851830333471298,0.5354647040367126
1740247036137770800,3.549770751953125,-3.6321141719818115,0.2839065194129944,0.5161216259002686
1740247036147752400,3.55975244140625,-3.6505355834960938,0.4655345678329468,0.45925766229629517
1740247036157733600,3.569733642578125,-3.6602118015289307,0.5735587477684021,0.3651479482650757
1740247036167714600,3.579714599609375,-3.6460368633270264,0.6278380155563354,0.2505640387535095
1740247036177696500,3.589696533203125,-3.5950541496276855,0.6335326433181763,0.10639992356300354
1740247036187677700,3.599677734375,-3.5174567699432373,0.5793160200119019,-0.06541338562965393
1740247036197658600,3.60965869140625,-3.440363883972168,0.4911603629589081,-0.2658151686191559
1740247036207640600,3.619640625,-3.3627521991729736,0.4092189073562622,-0.47849684953689575
1740247036217621500,3.62962158203125,-3.274251937866211,0.35793015360832214,-0.6601740121841431
1740247036227602400,3.6396025390625,-3.159729480743408,0.31103456020355225,-0.7845262885093689
1740247036237584600,3.649584716796875,-3.0099446773529053,0.25992822647094727,-0.8253709077835083
1740247036247565600,3.659565673828125,-2.800506114959717,0.2250664085149765,-0.8040934205055237
1740247036257546800,3.669546630859375,-2.4893343448638916,0.22607120871543884,-0.7506176829338074
1740247036267528400,3.679528564453125,-2.0496363639831543,0.24028585851192474,-0.6790721416473389
1740247036277509600,3.689509521484375,-1.4881813526153564,0.20637530088424683,-0.5821016430854797
1740247036287491600,3.69949169921875,-0.8589222431182861,0.0831485167145729,-0.43662261962890625
1740247036297472500,3.709472412109375,-0.25025996565818787,-0.12806518375873566,-0.23733137547969818
1740247036307453700,3.71945361328125,0.2892144024372101,-0.37183237075805664,-0.005183525383472443
1740247036317435400,3.729435302734375,0.7050185203552246,-0.5925289988517761,0.20969656109809875
1740247036327416600,3.73941650390625,0.9945453405380249,-0.7433815598487854,0.3610086143016815
1740247036337397500,3.7493974609375,1.1929160356521606,-0.778747022151947,0.44644519686698914
1740247036347379700,3.759379638671875,1.3284167051315308,-0.6871174573898315,0.4802173376083374
1740247036357360600,3.769360595703125,1.4424937963485718,-0.49692386388778687,0.498032808303833
1740247036367341600,3.779341552734375,1.5769226551055908,-0.25761809945106506,0.5291284322738647
1740247036377323500,3.789323486328125,1.7453795671463013,-6.523914635181427e-7,0.5933555960655212
1740247036387304400,3.799304443359375,1.9460291862487793,0.2502611577510834,0.6750118136405945
1740247036397285600,3.80928564453125,2.1730074882507324,0.4770314693450928,0.7675723433494568
1740247036407267600,3.819267578125,2.406228542327881,0.69816654920578,0.865389883518219
1740247036417248500,3.82924853515625,2.6251556873321533,0.9325215220451355,0.9523186087608337
1740247036427230700,3.839230712890625,2.789184093475342,1.1838796138763428,1.0084717273712158
1740247036437211400,3.84921142578125,2.898440361022949,1.4122363328933716,1.0262384414672852
1740247036447192600,3.859192626953125,2.9681382179260254,1.5939692258834839,1.0136196613311768
1740247036457174500,3.869174560546875,3.019573450088501,1.7248337268829346,0.9783599376678467
1740247036467155700,3.87915576171875,3.066835403442383,1.7827842235565186,0.9260565042495728
1740247036477136600,3.88913671875,3.125253677368164,1.7797703742980957,0.8491276502609253
1740247036487118600,3.89911865234375,3.190406084060669,1.7297354936599731,0.7498656511306763
1740247036497100500,3.9091005859375,3.255446672439575,1.6489495038986206,0.6092475056648254
1740247036507081500,3.91908154296875,3.30802583694458,1.588140606880188,0.4394080638885498
1740247036517062700,3.929062744140625,3.3532915115356445,1.4616734981536865,0.2692677676677704
1740247036527044600,3.939044677734375,3.402078151702881,1.2799495458602905,0.13103815913200378
1740247036537025800,3.94902587890625,3.454010486602783,1.081994891166687,0.044210318475961685
1740247036547006700,3.9590068359375,3.5108649730682373,0.8501029014587402,0.008906709030270576
1740247036556988400,3.968988525390625,3.5781867504119873,0.5926873683929443,-0.006468253210186958
1740247036566969600,3.978969482421875,3.6473755836486816,0.34178993105888367,-0.03150549530982971
1740247036576950500,3.988950439453125,3.7111294269561768,0.1556357592344284,-0.08940687775611877
1740247036586932700,3.9989326171875,3.764324903488159,0.055407021194696426,-0.18415601551532745
1740247036596913700,4.00891357421875,3.7988440990448,0.0113799087703228,-0.2932681143283844
1740247036606895600,4.0188955078125,3.807046413421631,-0.0058191376738250256,-0.3893153667449951
1740247036616876500,4.02887646484375,3.8052151203155518,-0.013425658456981182,-0.4468066394329071
1740247036626857500,4.038857421875,3.794227361679077,-0.02231733500957489,-0.4625791013240814
1740247036636839700,4.048839599609375,3.7785909175872803,-0.03398650884628296,-0.44162002205848694
1740247036646820600,4.058820556640625,3.7520697116851807,-0.04609917104244232,-0.39315301179885864
1740247036656801500,4.068801513671875,3.7040905952453613,-0.0547347366809845,-0.32837268710136414
1740247036666783500,4.078783447265625,3.6369245052337646,-0.06829793006181717,-0.2569257318973541
1740247036676764400,4.088764404296875,3.5526444911956787,-0.04795563966035843,-0.1890537291765213
1740247036686745600,4.09874560546875,3.4447438716888428,0.007975579239428043,-0.12453793734312057
1740247036696727600,4.1087275390625,3.3157083988189697,0.07911713421344757,-0.05939595028758049
1740247036706708700,4.118708740234375,3.1802608966827393,0.14004932343959808,0.02771446481347084
1740247036716689700,4.128689697265625,3.0425209999084473,0.1891140639781952,0.1385514885187149
1740247036726671600,4.138671630859375,2.9159178733825684,0.2229071855545044,0.26831111311912537
1740247036736652500,4.148652587890625,2.7911593914031982,0.2358701229095459,0.4059874713420868
1740247036746634500,4.158634521484375,2.6692698001861572,0.18415777385234833,0.5471768379211426
1740247036756615700,4.16861572265625,2.560089588165283,0.07353378087282181,0.6953878998756409
1740247036766596600,4.1785966796875,2.4746909141540527,-0.0794600173830986,0.8365623354911804
1740247036776578600,4.18857861328125,2.401501178741455,-0.24008670449256897,0.9561971426010132
1740247036786559500,4.1985595703125,2.3005266189575195,-0.3339507579803467,1.0268142223358154
1740247036796540400,4.20854052734375,2.102715015411377,-0.309719979763031,1.0351307392120361
1740247036806522600,4.218522705078125,1.7510335445404053,-0.18841935694217682,1.0045169591903687
1740247036816503600,4.228503662109375,1.253445029258728,-0.06504283100366592,0.9729669690132141
1740247036826484700,4.238484619140625,0.6753301024436951,-0.02387116104364395,0.9646464586257935
1740247036836466400,4.248466552734375,0.08594781160354614,-0.06865943223237991,0.9679076075553894
1740247036846447400,4.258447265625,-0.4648367762565613,-0.1558862179517746,0.9254554510116577
1740247036856428500,4.268428466796875,-0.9275506138801575,-0.22780995070934296,0.783471405506134
1740247036866409500,4.278409423828125,-1.3042359352111816,-0.251828134059906,0.5190905332565308
1740247036876391700,4.2883916015625,-1.6399970054626465,-0.2271379828453064,0.16881348192691803
1740247036886372600,4.29837255859375,-1.9585884809494019,-0.19849859178066254,-0.18512600660324097
1740247036896353500,4.308353515625,-2.2823753356933594,-0.17952169477939606,-0.46947145462036133
1740247036906335500,4.31833544921875,-2.59816837310791,-0.19435757398605347,-0.6529068946838379
1740247036916316400,4.32831640625,-2.8820607662200928,-0.24244414269924164,-0.7546542882919312
1740247036926297600,4.338297607421875,-3.108919858932495,-0.30075526237487793,-0.7728886604309082
1740247036936279600,4.348279541015625,-3.2703709602355957,-0.3768761157989502,-0.7221639752388
1740247036946260700,4.3582607421875,-3.381216526031494,-0.4498807191848755,-0.5961921811103821
1740247036956241700,4.36824169921875,-3.478283643722534,-0.5074699521064758,-0.4234451949596405
1740247036966223400,4.378223388671875,-3.5904650688171387,-0.5416173934936523,-0.25151023268699646
1740247036976204500,4.38820458984375,-3.7028753757476807,-0.529697597026825,-0.11055552214384079
1740247036986185500,4.398185546875,-3.8073813915252686,-0.466061532497406,-0.01590513251721859
1740247036996167700,4.408167724609375,-3.8981330394744873,-0.3823632001876831,0.026445521041750908
1740247037006148600,4.418148681640625,-3.9651005268096924,-0.3107839524745941,0.03311627730727196
1740247037016130600,4.428130615234375,-3.997084140777588,-0.29211917519569397,0.038091059774160385
1740247037026111500,4.438111572265625,-4.010146617889404,-0.3383077085018158,0.05693947896361351
1740247037036092400,4.448092529296875,-3.9980289936065674,-0.4527144432067871,0.08697514235973358
1740247037046074600,4.45807470703125,-3.958481788635254,-0.5761591196060181,0.11898738890886307
1740247037056055600,4.4680556640625,-3.920466661453247,-0.6595858335494995,0.1480906754732132
1740247037066036500,4.478036376953125,-3.9148106575012207,-0.6844740509986877,0.1749221533536911
1740247037076018700,4.488018798828125,-3.9762470722198486,-0.7010266780853271,0.22258688509464264
1740247037085999600,4.49799951171875,-4.078526020050049,-0.7603909373283386,0.3254653513431549
1740247037095980500,4.50798046875,-4.158933639526367,-0.844714879989624,0.46448394656181335
1740247037105962800,4.517962646484375,-4.1947832107543945,-0.9195094704627991,0.5776509642601013
1740247037115943700,4.527943603515625,-4.165929317474365,-0.9393188953399658,0.5877885818481445
1740247037125924600,4.537924560546875,-4.1026387214660645,-0.8582339286804199,0.44529327750205994
1740247037135906800,4.54790673828125,-4.041651248931885,-0.6725077033042908,0.16025808453559875
1740247037145887500,4.557887451171875,-4.017267227172852,-0.42623916268348694,-0.19652394950389862
1740247037155869700,4.56786962890625,-4.044322490692139,-0.21318171918392181,-0.5089045166969299
1740247037165850600,4.5778505859375,-4.097614288330078,-0.1008307933807373,-0.7032774686813354
1740247037175831800,4.587831787109375,-4.1248884201049805,-0.10378371179103851,-0.7738901376724243
1740247037185813800,4.597813720703125,-4.095128536224365,-0.21867704391479492,-0.773340106010437
1740247037195795000,4.607794921875,-3.9933228492736816,-0.3761407136917114,-0.7280344367027283
1740247037205775600,4.617775634765625,-3.8487744331359863,-0.5056443214416504,-0.6872918605804443
1740247037215757600,4.627757568359375,-3.669904947280884,-0.5505196452140808,-0.6471273899078369
1740247037225738800,4.63773876953125,-3.46820068359375,-0.5065120458602905,-0.5910054445266724
1740247037235719700,4.6477197265625,-3.2525556087493896,-0.38763171434402466,-0.48221370577812195
1740247037245702000,4.657701904296875,-3.0220718383789062,-0.21586081385612488,-0.30750516057014465
1740247037255682800,4.667682861328125,-2.7610738277435303,-0.020579196512699127,-0.07461678236722946
1740247037265664800,4.677664794921875,-2.4322590827941895,0.15167982876300812,0.19102706015110016
1740247037275645700,4.687645751953125,-2.020090103149414,0.2981685996055603,0.4621741473674774
1740247037285626600,4.697626708984375,-1.5441757440567017,0.42896437644958496,0.7067664265632629
1740247037295608800,4.70760888671875,-1.0318024158477783,0.5372492671012878,0.8867769837379456
1740247037305589800,4.71758984375,-0.544389009475708,0.5977378487586975,0.9740912914276123
1740247037315570700,4.72757080078125,-0.09903573989868164,0.590225338935852,0.9521428346633911
1740247037325552600,4.737552734375,0.29072999954223633,0.48691537976264954,0.8257650136947632
1740247037335533600,4.747533447265625,0.6348519325256348,0.27222970128059387,0.6117653846740723
1740247037345514800,4.7575146484375,0.9200485944747925,-0.016852281987667084,0.34106332063674927
1740247037355496700,4.76749658203125,1.1702005863189697,-0.3342305123806,0.048630669713020325
1740247037365478000,4.777477783203125,1.4152687788009644,-0.6472870111465454,-0.22606627643108368
1740247037375458800,4.787458740234375,1.6860218048095703,-0.9109466075897217,-0.4782481789588928
1740247037385440500,4.7974404296875,1.9835668802261353,-1.0588347911834717,-0.7185276746749878
1740247037395421700,4.807421630859375,2.307678699493408,-1.0794329643249512,-0.9362360239028931
1740247037405403600,4.817403564453125,2.622589111328125,-1.0233185291290283,-1.0969659090042114
1740247037415384800,4.827384765625,2.8957042694091797,-0.9363441467285156,-1.1431169509887695
1740247037425365800,4.83736572265625,3.12703275680542,-0.7955731749534607,-1.0683162212371826
1740247037435347700,4.84734765625,3.321565628051758,-0.6031222343444824,-0.9013580679893494
1740247037445328600,4.85732861328125,3.473482370376587,-0.38706156611442566,-0.6894339323043823
1740247037455309600,4.8673095703125,3.5823800563812256,-0.1576576828956604,-0.4679550528526306
1740247037465291800,4.877291748046875,3.649555206298828,0.10229531675577164,-0.26503515243530273
1740247037475272700,4.887272705078125,3.681175470352173,0.40327194333076477,-0.09482456743717194
1740247037485254000,4.89725390625,3.702667713165283,0.719218373298645,0.04256060719490051
1740247037495235600,4.907235595703125,3.7461743354797363,1.0018393993377686,0.15484559535980225
1740247037505216500,4.917216552734375,3.8294410705566406,1.2189855575561523,0.2373247593641281
1740247037515197700,4.92719775390625,3.967940092086792,1.37018620967865,0.3275183141231537
1740247037525179600,4.9371796875,4.137847423553467,1.4675415754318237,0.4202933609485626
1740247037535160800,4.947160888671875,4.2746806144714355,1.5260424613952637,0.5019866228103638
1740247037545142500,4.957142578125,4.313183307647705,1.5285682678222656,0.5590411424636841
1740247037555123700,4.967123779296875,4.243730068206787,1.464187741279602,0.569805383682251
1740247037565104600,4.977104736328125,4.127060413360596,1.300788402557373,0.5352376103401184
1740247037575086600,4.987086669921875,4.061877250671387,1.029776930809021,0.4780460000038147
1740247037585067800,4.99706787109375,4.107834815979004,0.676249086856842,0.40148991346359253
1740247037595048700,5.007048583984375,4.2457594871521,0.33968281745910645,0.3232571482658386
1740247037605030700,5.01703076171875,4.368577003479004,0.101222924888134,0.23794953525066376
1740247037615011600,5.027011474609375,4.40010404586792,-0.04629409313201904,0.15236352384090424
1740247037624992500,5.036992431640625,4.353023529052734,-0.13103438913822174,0.08266030997037888
1740247037634974700,5.046974609375,4.278313636779785,-0.1914151906967163,0.04555555433034897
1740247037644955600,5.05695556640625,4.199090957641602,-0.2592625916004181,0.05411558225750923
1740247037654937900,5.066937744140625,4.11954927444458,-0.34465232491493225,0.11198820173740387
1740247037664918800,5.076918701171875,4.042264461517334,-0.44195428490638733,0.18189574778079987
1740247037674899700,5.086899658203125,3.987338066101074,-0.5184839963912964,0.2414083331823349
1740247037684881700,5.096881591796875,3.931166410446167,-0.5206751823425293,0.2546175718307495
1740247037694862600,5.106862548828125,3.856041669845581,-0.45378613471984863,0.22195523977279663
1740247037704843800,5.11684375,3.762824296951294,-0.3562574088573456,0.16878587007522583
1740247037714825700,5.12682568359375,3.6399900913238525,-0.2539379298686981,0.12453825026750565
1740247037724807000,5.136806884765625,3.4926204681396484,-0.14278830587863922,0.12071537226438522
1740247037734787600,5.14678759765625,3.332399368286133,-0.04461779072880745,0.16472463309764862
1740247037744769800,5.156769775390625,3.1885173320770264,0.030785469338297844,0.23625078797340393
1740247037754750700,5.166750732421875,3.063011646270752,0.07910159975290298,0.31870144605636597
1740247037764732700,5.176732666015625,2.9329135417938232,0.0999889001250267,0.3927357494831085
1740247037774713900,5.1867138671875,2.7704825401306152,0.09337414056062698,0.4491231441497803
1740247037784694800,5.19669482421875,2.5816779136657715,0.08109546452760696,0.491487979888916
1740247037794676700,5.2066767578125,2.350858688354492,0.08200706541538239,0.5126816630363464
1740247037804657700,5.21665771484375,2.0707967281341553,0.06437337398529053,0.5189618468284607
1740247037814638600,5.226638671875,1.7430585622787476,0.01113065890967846,0.5089010000228882
1740247037824620800,5.236620849609375,1.3747131824493408,-0.055595822632312775,0.47964227199554443
1740247037834601700,5.246601806640625,0.9696176648139954,-0.08873619884252548,0.39937567710876465
1740247037844583000,5.2565830078125,0.5585159659385681,-0.08549872785806656,0.2597375810146332
1740247037854564600,5.266564697265625,0.14137649536132812,-0.07763653993606567,0.07897315174341202
1740247037864545800,5.2765458984375,-0.28328102827072144,-0.09306009113788605,-0.08903959393501282
1740247037874527700,5.28652783203125,-0.7260919809341431,-0.1291419267654419,-0.2134598195552826
1740247037884508700,5.2965087890625,-1.1715630292892456,-0.19917018711566925,-0.2834412157535553
1740247037894489900,5.30648974609375,-1.5897771120071411,-0.3073243498802185,-0.31420233845710754
1740247037904471600,5.316471435546875,-1.9751434326171875,-0.41340407729148865,-0.32914793491363525
1740247037914452700,5.32645263671875,-2.329892873764038,-0.4859941303730011,-0.34995388984680176
1740247037924433700,5.33643359375,-2.6486124992370605,-0.5167130827903748,-0.36974528431892395
1740247037934416000,5.346415771484375,-2.9201443195343018,-0.5182135105133057,-0.3625105321407318
1740247037944396800,5.356396728515625,-3.149529457092285,-0.49201148748397827,-0.32978981733322144
1740247037954377700,5.366377685546875,-3.337327003479004,-0.4731592535972595,-0.30449751019477844
1740247037964359700,5.376359619140625,-3.4939382076263428,-0.46451666951179504,-0.2975558936595917
1740247037974340600,5.386340576171875,-3.618342876434326,-0.469151109457016,-0.3056305944919586
1740247037984321500,5.396321533203125,-3.731113910675049,-0.4430505335330963,-0.33665406703948975
1740247037994303700,5.4063037109375,-3.825335741043091,-0.3558429181575775,-0.4064885377883911
1740247038004284700,5.41628466796875,-3.8824682235717773,-0.22077037394046783,-0.49988627433776855
1740247038014266600,5.4262666015625,-3.922558307647705,-0.09731901437044144,-0.6126120090484619
1740247038024247600,5.43624755859375,-3.9700875282287598,-0.007250703871250153,-0.7537921667098999
1740247038034228700,5.446228759765625,-4.0434794425964355,0.04845037683844566,-0.9410731196403503
1740247038044210700,5.456210693359375,-4.137317180633545,0.05999692156910896,-1.1691257953643799
1740247038054191600,5.466191650390625,-4.227840900421143,0.03824874758720398,-1.413375735282898
1740247038064172800,5.4761728515625,-4.314993858337402,-0.009592478163540363,-1.638603925704956
1740247038074154500,5.486154541015625,-4.4081878662109375,-0.09054245799779892,-1.8080754280090332
1740247038084135700,5.4961357421875,-4.493710994720459,-0.1984885036945343,-1.880185604095459
1740247038094117000,5.5061171875,-4.571621894836426,-0.32081225514411926,-1.834305763244629
1740247038104099300,5.516099365234375,-4.630268573760986,-0.4117310643196106,-1.6726136207580566
1740247038114080300,5.526080322265625,-4.658721923828125,-0.42335790395736694,-1.4328604936599731
1740247038124062200,5.536062255859375,-4.650723934173584,-0.34881508350372314,-1.16457998752594
1740247038134043100,5.546043212890625,-4.626142978668213,-0.19921334087848663,-0.8990482091903687
1740247038144024000,5.556024169921875,-4.587942600250244,0.01893831416964531,-0.6520578861236572
1740247038154006300,5.56600634765625,-4.54608678817749,0.28820788860321045,-0.3953227698802948
1740247038163987200,5.5759873046875,-4.504077911376953,0.563300609588623,-0.1100187748670578
1740247038173968400,5.585968505859375,-4.444574356079102,0.8158612251281738,0.2000943422317505
1740247038183950000,5.5959501953125,-4.343832015991211,1.0196906328201294,0.5288288593292236
1740247038193931000,5.605930908203125,-4.178961277008057,1.1456043720245361,0.8493149876594543
1740247038203912200,5.615912109375,-3.9580883979797363,1.1825447082519531,1.1449288129806519
1740247038213894100,5.62589404296875,-3.7014613151550293,1.1118332147598267,1.380279779434204
1740247038223875300,5.635875244140625,-3.4385032653808594,0.9724846482276917,1.5211843252182007
1740247038233857300,5.645857177734375,-3.186378002166748,0.8280872106552124,1.5319880247116089
1740247038243838200,5.655838134765625,-2.949857711791992,0.7306268215179443,1.4108471870422363
1740247038253819100,5.665819091796875,-2.715672492980957,0.6502617001533508,1.1986398696899414
1740247038263801000,5.675801025390625,-2.4772045612335205,0.5188650488853455,0.9492419362068176
1740247038273782300,5.6857822265625,-2.2404704093933105,0.28896424174308777,0.710492730140686
1740247038283763200,5.69576318359375,-2.0081682205200195,0.010930031538009644,0.49626925587654114
1740247038293745200,5.7057451171875,-1.7885493040084839,-0.25590431690216064,0.29385438561439514
1740247038303726000,5.71572607421875,-1.5911310911178589,-0.491147518157959,0.09886103123426437
1740247038313707000,5.72570703125,-1.4164594411849976,-0.7169572114944458,-0.09522908180952072
1740247038323689200,5.735689208984375,-1.2288092374801636,-0.9775349497795105,-0.2520950138568878
1740247038333670100,5.745670166015625,-1.0338389873504639,-1.2782388925552368,-0.38821208477020264
1740247038343652400,5.75565234375,-0.8587283492088318,-1.5751163959503174,-0.5673755407333374
1740247038353633300,5.76563330078125,-0.6814049482345581,-1.780258059501648,-0.8370105028152466
1740247038363614200,5.7756142578125,-0.4751860201358795,-1.8692697286605835,-1.1701661348342896
1740247038373596200,5.78559619140625,-0.24432536959648132,-1.909767985343933,-1.4560388326644897
1740247038383577000,5.7955771484375,-0.013535972684621811,-1.9363023042678833,-1.6040548086166382
1740247038393558300,5.805558349609375,0.2050216645002365,-1.9057379961013794,-1.5855764150619507
1740247038403540200,5.815540283203125,0.42167389392852783,-1.7991338968276978,-1.4281206130981445
1740247038413521400,5.825521484375,0.6651552319526672,-1.640419840812683,-1.1583820581436157
1740247038423502000,5.835502197265625,0.9452479481697083,-1.433499813079834,-0.7957211136817932
1740247038433484300,5.845484375,1.2470289468765259,-1.146883487701416,-0.3913334310054779
1740247038443465200,5.85546533203125,1.5566126108169556,-0.7736108899116516,0.0007839362369850278
1740247038453447200,5.865447265625,1.8613067865371704,-0.34563156962394714,0.34699779748916626
1740247038463428400,5.875428466796875,2.147818088531494,0.08430857211351395,0.6359375715255737
1740247038473409300,5.8854091796875,2.3868720531463623,0.45526453852653503,0.8832413554191589
1740247038483391200,5.89539111328125,2.566232442855835,0.7702957391738892,1.1059170961380005
1740247038493372200,5.9053720703125,2.6964993476867676,1.0566370487213135,1.3054519891738892
1740247038503353000,5.91535302734375,2.7882468700408936,1.3410905599594116,1.4897453784942627
1740247038513335300,5.925335205078125,2.855571985244751,1.611385464668274,1.653055191040039
1740247038523316200,5.935316162109375,2.9112353324890137,1.8424403667449951,1.7892733812332153
1740247038533297400,5.94529736328125,2.9811251163482666,2.00624942779541,1.912940502166748
1740247038543279000,5.955279052734375,3.0656509399414062,2.1227898597717285,1.9993644952774048
1740247038553260000,5.965260009765625,3.174692153930664,2.208960771560669,2.038850784301758
1740247038563241200,5.9752412109375,3.2950196266174316,2.2740530967712402,2.015153646469116
1740247038573223200,5.98522314453125,3.4084627628326416,2.3119542598724365,1.9144715070724487
1740247038583204400,5.995204345703125,3.508854627609253,2.284273147583008,1.7266219854354858
1740247038593186000,6.00518603515625,3.597651481628418,2.1997084617614746,1.476006031036377
1740247038603167200,6.015167236328125,3.671562910079956,2.0568888187408447,1.1786211729049683
1740247038613148200,6.025148193359375,3.732884168624878,1.8695738315582275,0.8576964139938354
1740247038623130400,6.03513037109375,3.792496681213379,1.6608614921569824,0.5531999468803406
1740247038633111300,6.045111328125,3.861966371536255,1.4394545555114746,0.27861469984054565
1740247038643092200,6.05509228515625,3.926988124847412,1.2150731086730957,0.0614151768386364
1740247038653074200,6.06507421875,3.9895987510681152,1.002497673034668,-0.09727060794830322
1740247038663055000,6.07505517578125,4.042582035064697,0.8168852925300598,-0.20701520144939423
1740247038673037300,6.085037353515625,4.072022438049316,0.6524873375892639,-0.28273552656173706
1740247038683018200,6.095018310546875,4.083391189575195,0.5086027383804321,-0.34763386845588684
1740247038692999200,6.104999267578125,4.085152626037598,0.4040861427783966,-0.40967273712158203
1740247038702981000,6.114981201171875,4.070961952209473,0.3391414284706116,-0.4704599976539612
1740247038712962000,6.124962158203125,4.05853271484375,0.30744582414627075,-0.5165646076202393
1740247038722943200,6.134943115234375,4.055221080780029,0.28124481439590454,-0.5346178412437439
1740247038732925200,6.14492529296875,4.052573204040527,0.26533135771751404,-0.5184455513954163
1740247038742906000,6.154906005859375,4.033452987670898,0.256553053855896,-0.4659503996372223
1740247038752887300,6.16488720703125,4.001639366149902,0.2594638764858246,-0.3968730866909027
1740247038762869000,6.174868896484375,3.9554524421691895,0.27690544724464417,-0.30197158455848694
1740247038772850200,6.18485009765625,3.8966658115386963,0.3093099892139435,-0.18670810759067535
1740247038782832000,6.19483203125,3.8202669620513916,0.3642835021018982,-0.0596470981836319
1740247038792813300,6.204813232421875,3.7326176166534424,0.4377569258213043,0.059867579489946365
1740247038802794200,6.214794189453125,3.632642984390259,0.49586597084999084,0.17278914153575897
1740247038812776200,6.224776123046875,3.5140416622161865,0.5013965964317322,0.28481578826904297
1740247038822757000,6.234757080078125,3.3721768856048584,0.4420536160469055,0.41022250056266785
1740247038832738000,6.244738037109375,3.2114460468292236,0.346192330121994,0.5436956286430359
1740247038842720300,6.25472021484375,3.022385358810425,0.22757524251937866,0.6647845506668091
1740247038852701200,6.264701171875,2.8145644664764404,0.1031867265701294,0.7513803839683533
1740247038862682000,6.27468212890625,2.600909471511841,-0.007962357252836227,0.7779518961906433
1740247038872664300,6.284664306640625,2.3569836616516113,-0.08815999329090118,0.7214284539222717
1740247038882645200,6.294645263671875,2.0580971240997314,-0.1532278209924698,0.5866525769233704
1740247038892627200,6.304627197265625,1.6820727586746216,-0.21863825619220734,0.3794357180595398
1740247038902608100,6.314608154296875,1.230432152748108,-0.29209399223327637,0.13836809992790222
1740247038912589300,6.32458935546875,0.7294892072677612,-0.37706536054611206,-0.09814537316560745
1740247038922571300,6.3345712890625,0.21406394243240356,-0.47728782892227173,-0.3000926077365875
1740247038932552200,6.34455224609375,-0.28789639472961426,-0.590459406375885,-0.44162872433662415
1740247038942533400,6.354533447265625,-0.7558455467224121,-0.7255994081497192,-0.5391586422920227
1740247038952515000,6.36451513671875,-1.1560959815979004,-0.8528329730033875,-0.5984935760498047
1740247038962496300,6.374496337890625,-1.501079797744751,-0.9525017142295837,-0.6241781115531921
1740247038972478200,6.384478271484375,-1.7824044227600098,-1.022657871246338,-0.6226843595504761
1740247038982459400,6.39445947265625,-2.0075838565826416,-1.0666784048080444,-0.586959183216095
1740247038992440300,6.4044404296875,-2.1868202686309814,-1.087261438369751,-0.5252031087875366
1740247039002422000,6.414422119140625,-2.3428592681884766,-1.086504340171814,-0.4548293352127075
1740247039012403200,6.4244033203125,-2.506727457046509,-1.0378763675689697,-0.4006052613258362
1740247039022384000,6.434384033203125,-2.675626754760742,-0.909255862236023,-0.3882642984390259
1740247039032366300,6.444366455078125,-2.857861280441284,-0.7340414524078369,-0.4237346649169922
1740247039042347300,6.45434716796875,-3.0585806369781494,-0.5490322113037109,-0.4986099302768707
1740247039052328200,6.464328125,-3.2749063968658447,-0.400118887424469,-0.582599401473999
1740247039062310100,6.47431005859375,-3.4999639987945557,-0.3262759745121002,-0.6409199237823486
1740247039072291000,6.484291015625,-3.712693214416504,-0.32838812470436096,-0.6671488881111145
1740247039082273300,6.494273193359375,-3.8940277099609375,-0.3545267879962921,-0.6935453414916992
1740247039092254200,6.504254150390625,-4.0441203117370605,-0.37668880820274353,-0.7727147340774536
1740247039102235100,6.514235107421875,-4.1659111976623535,-0.3752545416355133,-0.9462164640426636
1740247039112216800,6.524216796875,-4.2711639404296875,-0.34343641996383667,-1.2173817157745361
1740247039122198000,6.534197998046875,-4.373489856719971,-0.2990773320198059,-1.556636929512024
1740247039132179000,6.544178955078125,-4.4958720207214355,-0.2637481093406677,-1.881267786026001
1740247039142161000,6.554160888671875,-4.628443241119385,-0.25640833377838135,-2.1199135780334473
1740247039152142000,6.56414208984375,-4.773051738739014,-0.2743724286556244,-2.2267439365386963
1740247039162123000,6.574123046875,-4.911566257476807,-0.3035545349121094,-2.1923444271087646
1740247039172105000,6.58410498046875,-5.028122425079346,-0.3475233018398285,-2.0188424587249756
1740247039182086000,6.5940859375,-5.100085735321045,-0.34874120354652405,-1.74215567111969
1740247039192068000,6.604068115234375,-5.115050792694092,-0.2653525769710541,-1.4498982429504395
1740247039202049000,6.614049072265625,-5.080358982086182,-0.12312547117471695,-1.1858172416687012
1740247039212030000,6.624030029296875,-4.996596336364746,0.06809242069721222,-0.9757350087165833
1740247039222012200,6.63401220703125,-4.879148006439209,0.3118138015270233,-0.8279763460159302
1740247039231992800,6.643992919921875,-4.777309417724609,0.5702323317527771,-0.7358937859535217
1740247039241974000,6.65397412109375,-4.703478813171387,0.7725731134414673,-0.6459899544715881
1740247039251956000,6.6639560546875,-4.6493000984191895,0.8824900388717651,-0.5215774774551392
1740247039261937000,6.67393701171875,-4.58641242980957,0.922896683216095,-0.369867742061615
1740247039271918000,6.68391796875,-4.487452507019043,0.9292477369308472,-0.20694884657859802
1740247039281900000,6.693900146484375,-4.335972309112549,0.9380163550376892,-0.06625581532716751
1740247039291881000,6.703880859375,-4.117660045623779,0.951417088508606,0.05607248842716217
1740247039301863000,6.71386279296875,-3.816991090774536,0.9557163715362549,0.1734699010848999
1740247039311844000,6.723843994140625,-3.4400601387023926,0.9316355586051941,0.3116229772567749
1740247039321825000,6.733824951171875,-2.988121509552002,0.8481590151786804,0.46719494462013245
1740247039331807000,6.743806884765625,-2.490648031234741,0.704054594039917,0.6066628098487854
1740247039341788200,6.7537880859375,-1.9981001615524292,0.508140504360199,0.7043558955192566
1740247039351769000,6.76376904296875,-1.5677119493484497,0.30144190788269043,0.7446615099906921
1740247039361751000,6.7737509765625,-1.2233530282974243,0.12288693338632584,0.7174027562141418
1740247039371732000,6.78373193359375,-0.956798791885376,-0.027026403695344925,0.6344210505485535
1740247039381714200,6.793714111328125,-0.7679101228713989,-0.18400242924690247,0.5177245140075684
1740247039391695000,6.803695068359375,-0.6342950463294983,-0.3483186960220337,0.3572208285331726
1740247039401676000,6.813676025390625,-0.5292245745658875,-0.5162423849105835,0.13146093487739563
1740247039411658000,6.823657958984375,-0.4152652621269226,-0.6792734265327454,-0.15133747458457947
1740247039421639000,6.833638916015625,-0.2810419201850891,-0.824131429195404,-0.43061068654060364
1740247039431619800,6.843619873046875,-0.13747301697731018,-0.9441829919815063,-0.6600502729415894
1740247039441602000,6.85360205078125,0.013823519460856915,-1.0642634630203247,-0.8090319633483887
1740247039451583000,6.8635830078125,0.18899133801460266,-1.195224404335022,-0.878783643245697
1740247039461565000,6.87356494140625,0.40080031752586365,-1.3081170320510864,-0.8990383148193359
1740247039471545900,6.8835458984375,0.6718049645423889,-1.3622313737869263,-0.9006474018096924
1740247039481527000,6.893527099609375,0.9839512705802917,-1.3267682790756226,-0.8983421325683594
1740247039491509000,6.903509033203125,1.322708010673523,-1.2033922672271729,-0.8934565782546997
1740247039501490200,6.913490234375,1.6465883255004883,-1.0078151226043701,-0.8513063788414001
1740247039511471000,6.92347119140625,1.941681981086731,-0.7574874758720398,-0.7399657368659973
1740247039521452800,6.933452880859375,2.1959829330444336,-0.47328540682792664,-0.5546469688415527
1740247039531434000,6.94343408203125,2.4293713569641113,-0.1851857304573059,-0.30583080649375916
1740247039541415000,6.953414794921875,2.6533167362213135,0.0720948576927185,-0.03867219015955925
1740247039551397000,6.963397216796875,2.8622984886169434,0.2804992198944092,0.1996367871761322
1740247039561378000,6.9733779296875,3.031282424926758,0.42411911487579346,0.36894211173057556
1740247039571360000,6.983360107421875,3.1899752616882324,0.5316855311393738,0.4418610632419586
1740247039581341000,6.9933408203125,3.3625197410583496,0.6382910013198853,0.4390440583229065
1740247039591321900,7.00332177734375,3.566603899002075,0.7165765166282654,0.3889193534851074
1740247039601304000,7.013303955078125,3.7968897819519043,0.7046335339546204,0.3064764738082886
1740247039611285000,7.023284912109375,4.030795574188232,0.5692434906959534,0.19219304621219635
1740247039621266000,7.033265869140625,4.241953372955322,0.364148885011673,0.03611987456679344
1740247039631248000,7.043247802734375,4.406805515289307,0.13371434807777405,-0.13598982989788055
1740247039641228800,7.053228759765625,4.509131908416748,-0.09739454835653305,-0.2692694664001465
1740247039651210000,7.0632099609375,4.5467400550842285,-0.3121401369571686,-0.35042157769203186
1740247039661192000,7.07319189453125,4.552788257598877,-0.5148542523384094,-0.3825310468673706
1740247039671173000,7.083173095703125,4.545987606048584,-0.6828091740608215,-0.38177311420440674
1740247039681155000,7.093155029296875,4.550629615783691,-0.7899495363235474,-0.363908052444458
1740247039691136000,7.103135986328125,4.5666680335998535,-0.8388307690620422,-0.3207249045372009
1740247039701117000,7.113116943359375,4.573798656463623,-0.8425766229629517,-0.2467680424451828
1740247039711099000,7.123098876953125,4.546814441680908,-0.822830855846405,-0.15216563642024994
1740247039721080000,7.133080078125,4.488696098327637,-0.7899195551872253,-0.0469694659113884
1740247039731061000,7.14306103515625,4.400646209716797,-0.7401522397994995,0.06257620453834534
1740247039741043200,7.153043212890625,4.281161785125732,-0.666921079158783,0.1705797165632248
1740247039751024000,7.163024169921875,4.1470627784729,-0.5865676403045654,0.2739385962486267
1740247039761005800,7.173005859375,3.989948272705078,-0.5096977949142456,0.3775126039981842
1740247039770987000,7.182987060546875,3.8314368724823,-0.4518221914768219,0.4887546896934509
1740247039780968000,7.192968017578125,3.6715307235717773,-0.43319177627563477,0.6141626238822937
1740247039790950100,7.2029501953125,3.5089688301086426,-0.4432092308998108,0.7503734827041626
1740247039800931000,7.21293115234375,3.347552537918091,-0.4715067446231842,0.8696132302284241
1740247039810912000,7.222912109375,3.1995701789855957,-0.4766964614391327,0.9600203633308411
1740247039820894000,7.23289404296875,3.0712087154388428,-0.4348709285259247,1.0111974477767944
1740247039830875000,7.242875,2.962470293045044,-0.3389936685562134,1.014509916305542
1740247039840857000,7.252857177734375,2.8549511432647705,-0.19136646389961243,0.9764672517776489
1740247039850838000,7.262838134765625,2.728466749191284,-0.022792086005210876,0.907123327255249
1740247039860819200,7.272819091796875,2.579990863800049,0.14152759313583374,0.8365626335144043
1740247039870801000,7.28280078125,2.3956210613250732,0.271250456571579,0.797876238822937
1740247039880781800,7.29278173828125,2.176633834838867,0.34750843048095703,0.8260184526443481
1740247039890763000,7.302762939453125,1.916021704673767,0.3621678054332733,0.9330844283103943
1740247039900745000,7.312744873046875,1.640091896057129,0.2983972132205963,1.1062612533569336
1740247039910726100,7.32272607421875,1.3605287075042725,0.18691837787628174,1.3082233667373657
1740247039920707800,7.332707763671875,1.084685206413269,0.054479558020830154,1.481544017791748
1740247039930689000,7.34268896484375,0.8073111772537231,-0.057748712599277496,1.5683281421661377
1740247039940670000,7.352669921875,0.5191665291786194,-0.12969088554382324,1.5241376161575317
1740247039950652000,7.36265185546875,0.18893830478191376,-0.11003169417381287,1.3108173608779907
1740247039960633000,7.372633056640625,-0.18718849122524261,-0.041450127959251404,0.9530472755432129
1740247039970614000,7.382614013671875,-0.6166549324989319,-0.011132434010505676,0.5345030426979065
1740247039980596000,7.392595947265625,-1.112303376197815,-0.08389338850975037,0.17119818925857544
1740247039990577000,7.402576904296875,-1.6545698642730713,-0.22383317351341248,-0.10273482650518417
1740247040000559000,7.41255908203125,-2.1991400718688965,-0.369032621383667,-0.27507373690605164
1740247040010540000,7.4225400390625,-2.6823110580444336,-0.494853675365448,-0.3581595718860626
1740247040020521000,7.43252099609375,-3.0831663608551025,-0.5830365419387817,-0.37784022092819214
1740247040030503000,7.4425029296875,-3.3773934841156006,-0.6103267669677734,-0.37712064385414124
1740247040040483800,7.45248388671875,-3.5543837547302246,-0.5744860768318176,-0.39061251282691956
1740247040050465000,7.462465087890625,-3.6168088912963867,-0.4664488434791565,-0.4117303192615509
1740247040060447000,7.472447021484375,-3.609314203262329,-0.30326607823371887,-0.4498848617076874
1740247040070428000,7.482427978515625,-3.5842409133911133,-0.10807766020298004,-0.4965599477291107
1740247040080409000,7.4924091796875,-3.588587999343872,0.07703949511051178,-0.5350559949874878
1740247040090391000,7.50239111328125,-3.6352806091308594,0.17396923899650574,-0.5261367559432983
1740247040100372200,7.512372314453125,-3.7060492038726807,0.15487876534461975,-0.4717382788658142
1740247040110354200,7.522354248046875,-3.7830822467803955,0.06555446982383728,-0.4032526910305023
1740247040120335400,7.53233544921875,-3.833827495574951,-0.05306413024663925,-0.3835081160068512
1740247040130316300,7.54231640625,-3.869495391845703,-0.14934325218200684,-0.4626692533493042
1740247040140298200,7.55229833984375,-3.885990858078003,-0.19545899331569672,-0.6540897488594055
1740247040150279200,7.562279052734375,-3.910404920578003,-0.1853829175233841,-0.9253396391868591
1740247040160260000,7.572260009765625,-3.951683282852173,-0.16108438372612,-1.1896647214889526
1740247040170242300,7.5822421875,-4.021658420562744,-0.20370455086231232,-1.3485163450241089
1740247040180223200,7.59222314453125,-4.124413013458252,-0.29946988821029663,-1.3645319938659668
1740247040190205400,7.602205322265625,-4.237807273864746,-0.3920312523841858,-1.2558255195617676
1740247040200186400,7.612186279296875,-4.324311256408691,-0.43817639350891113,-1.0644557476043701
1740247040210167300,7.622167236328125,-4.365523815155029,-0.44095566868782043,-0.8488353490829468
1740247040220149200,7.632149169921875,-4.354369640350342,-0.3741177022457123,-0.6394407153129578
1740247040230130200,7.642130126953125,-4.289656162261963,-0.2247263491153717,-0.45199039578437805
1740247040240111400,7.652111328125,-4.194165229797363,-0.025316474959254265,-0.3008660674095154
1740247040250093300,7.66209326171875,-4.101825714111328,0.1656193882226944,-0.19283226132392883
1740247040260074200,7.67207421875,-4.038965702056885,0.3050922155380249,-0.08083707094192505
1740247040270056200,7.68205615234375,-3.9880096912384033,0.36942511796951294,0.033937983214855194
1740247040280037000,7.692037109375,-3.9184467792510986,0.36964163184165955,0.13635846972465515
1740247040290018300,7.702018310546875,-3.828233003616333,0.3174141049385071,0.19539517164230347
1740247040300000300,7.712000244140625,-3.702608585357666,0.26448389887809753,0.19534581899642944
1740247040309981400,7.7219814453125,-3.5600504875183105,0.2543926537036896,0.12728233635425568
1740247040319962400,7.73196240234375,-3.403315305709839,0.2953409254550934,0.01563352905213833
1740247040329944000,7.741944091796875,-3.227548360824585,0.31668004393577576,-0.0997905358672142
1740247040339925200,7.75192529296875,-3.020339012145996,0.28080883622169495,-0.189034566283226
1740247040349907200,7.7619072265625,-2.777651309967041,0.2012317180633545,-0.2449500411748886
1740247040359888400,7.771888427734375,-2.5111100673675537,0.0851583331823349,-0.295793741941452
1740247040369869300,7.781869384765625,-2.2278709411621094,-0.05679826810956001,-0.3415369987487793
1740247040379851300,7.791851318359375,-1.9318195581436157,-0.197442889213562,-0.3782787322998047
1740247040389832200,7.801832275390625,-1.6440978050231934,-0.3013554513454437,-0.4068629741668701
1740247040399813000,7.811813232421875,-1.3818100690841675,-0.3733193874359131,-0.41581669449806213
1740247040409795300,7.82179541015625,-1.1377966403961182,-0.42668116092681885,-0.40419653058052063
1740247040419776300,7.8317763671875,-0.9122753739356995,-0.45416125655174255,-0.37749674916267395
1740247040429758200,7.84175830078125,-0.7019317150115967,-0.4430966079235077,-0.3575478196144104
1740247040439739100,7.8517392578125,-0.5224751830101013,-0.40255653858184814,-0.37112265825271606
1740247040449720000,7.861719970703125,-0.3490874171257019,-0.34876441955566406,-0.39501145482063293
1740247040459702300,7.871702392578125,-0.18463876843452454,-0.29947608709335327,-0.39910373091697693
1740247040469683200,7.88168310546875,-0.0282110795378685,-0.2656920254230499,-0.34560856223106384
1740247040479664400,7.891664306640625,0.127827450633049,-0.23565000295639038,-0.23325185477733612
1740247040489646000,7.90164599609375,0.3081199824810028,-0.19660113751888275,-0.09121987968683243
1740247040499628300,7.911628173828125,0.5306490063667297,-0.14785432815551758,0.04682926461100578
1740247040509609200,7.921609130859375,0.8048096895217896,-0.07277343422174454,0.16888833045959473
1740247040519591400,7.93159130859375,1.1227357387542725,0.0636463388800621,0.2556421160697937
1740247040529572400,7.941572265625,1.4722874164581299,0.25259068608283997,0.3109993636608124
1740247040539553300,7.95155322265625,1.8254443407058716,0.4683951139450073,0.35515835881233215
1740247040549535200,7.96153515625,2.149650812149048,0.672681450843811,0.4046665132045746
1740247040559516200,7.97151611328125,2.4432380199432373,0.8266322612762451,0.4850957691669464
1740247040569497300,7.981497314453125,2.7063958644866943,0.9543590545654297,0.5835797190666199
1740247040579479300,7.991479248046875,2.948071002960205,1.0660101175308228,0.6900177597999573
1740247040589460200,8.001460205078125,3.158891439437866,1.1703522205352783,0.7865152955055237
1740247040599442200,8.011442138671875,3.3369855880737305,1.2617393732070923,0.8586079478263855
1740247040609423000,8.021423095703126,3.4964280128479004,1.3322670459747314,0.8994589447975159
1740247040619404300,8.031404296875,3.6443159580230713,1.3691375255584717,0.9016250967979431
1740247040629386200,8.04138623046875,3.7891416549682617,1.3528916835784912,0.8660103678703308
1740247040639367400,8.051367431640625,3.9239745140075684,1.257898211479187,0.791854977607727
1740247040649348400,8.061348388671876,4.052341938018799,1.100459098815918,0.6800919771194458
1740247040659330000,8.071330078125,4.1688032150268555,0.9073155522346497,0.532619297504425
1740247040669311200,8.081311279296875,4.276054382324219,0.7230916619300842,0.3663501441478729
1740247040679293200,8.091293212890625,4.372188091278076,0.553570568561554,0.20711863040924072
1740247040689274400,8.1012744140625,4.442696571350098,0.4063425064086914,0.08504650741815567
1740247040699255300,8.11125537109375,4.486459255218506,0.2852726876735687,0.018506847321987152
1740247040709237200,8.1212373046875,4.512447357177734,0.20138631761074066,0.0017989723710343242
1740247040719218200,8.13121826171875,4.52443265914917,0.14114584028720856,0.0278216190636158
1740247040729199000,8.14119921875,4.536564350128174,0.11050058901309967,0.08574910461902618
1740247040739181300,8.151181396484375,4.539412021636963,0.10526040196418762,0.1547178030014038
1740247040749162200,8.161162353515625,4.531461715698242,0.11936582624912262,0.22245317697525024
1740247040759144200,8.171144287109374,4.509573936462402,0.1573825478553772,0.2845400869846344
1740247040769125000,8.181125,4.468632221221924,0.23522301018238068,0.32302942872047424
1740247040779106000,8.19110595703125,4.404046058654785,0.34314069151878357,0.33522269129753113
1740247040789088300,8.201088134765625,4.323653221130371,0.46716731786727905,0.32343074679374695
1740247040799069200,8.211069091796874,4.227447986602783,0.5983378291130066,0.30277663469314575
1740247040809050400,8.22105029296875,4.111969947814941,0.6836870908737183,0.2960502803325653
1740247040819032300,8.2310322265625,3.9868569374084473,0.7010117769241333,0.31114307045936584
1740247040829013200,8.24101318359375,3.8644931316375732,0.671143114566803,0.3665216565132141
1740247040838995200,8.2509951171875,3.740541696548462,0.6307530999183655,0.44940292835235596
1740247040848976100,8.26097607421875,3.6070194244384766,0.5957290530204773,0.5404664874076843
1740247040858957300,8.270957275390625,3.465250253677368,0.5652373433113098,0.6374726295471191
1740247040868939300,8.280939208984375,3.316222906112671,0.5440066456794739,0.7299439907073975
1740247040878920200,8.290920166015624,3.155022382736206,0.5368613600730896,0.8025119304656982
1740247040888901000,8.300901123046875,2.9858145713806152,0.5294694900512695,0.844006359577179
1740247040898883300,8.31088330078125,2.809199094772339,0.48839622735977173,0.8603036999702454
1740247040908864300,8.3208642578125,2.6293859481811523,0.4008527994155884,0.8665351867675781
1740247040918846200,8.33084619140625,2.440234422683716,0.26138100028038025,0.8710439801216125
1740247040928827400,8.340827392578126,2.2280592918395996,0.10530031472444534,0.8572946190834045
1740247040938808300,8.350808349609375,1.9944623708724976,-0.04832123965024948,0.8016282916069031
1740247040948790300,8.360790283203125,1.719530701637268,-0.1824454963207245,0.6866361498832703
1740247040958771200,8.370771240234374,1.4002306461334229,-0.29897865653038025,0.5118989944458008
1740247040968752000,8.380752197265625,1.0359549522399902,-0.450339138507843,0.29642853140830994
1740247040978734300,8.390734375,0.6208586692810059,-0.6517384648323059,0.0556391179561615
1740247040988715300,8.40071533203125,0.1689266413450241,-0.8895177245140076,-0.18896768987178802
1740247040998697200,8.410697265625,-0.2919015884399414,-1.1433238983154297,-0.417957067489624
1740247041008678100,8.42067822265625,-0.7435582876205444,-1.396231770515442,-0.6352635622024536
1740247041018659300,8.430659423828125,-1.1797552108764648,-1.611730933189392,-0.8197941184043884
1740247041028641300,8.440641357421875,-1.6168925762176514,-1.7593435049057007,-0.9466702938079834
1740247041038622200,8.450622314453126,-2.0471224784851074,-1.8247407674789429,-0.9865309596061707
1740247041048603400,8.460603271484375,-2.4409656524658203,-1.7880531549453735,-0.9348030090332031
1740247041058585000,8.470585205078125,-2.7427914142608643,-1.6469769477844238,-0.8089311122894287
1740247041068566300,8.480566162109374,-2.9387855529785156,-1.4133790731430054,-0.6455538868904114
1740247041078548200,8.49054833984375,-3.0439841747283936,-1.104884147644043,-0.4721435606479645
1740247041088529400,8.500529296875,-3.089853525161743,-0.7523459792137146,-0.3070853650569916
1740247041098510600,8.510510498046875,-3.104755401611328,-0.40032774209976196,-0.17069527506828308
1740247041108492500,8.520492431640625,-3.1187596321105957,-0.07234961539506912,-0.07752326130867004
1740247041118473500,8.530473388671876,-3.1638851165771484,0.1947186440229416,-0.030515139922499657
1740247041128455400,8.540455322265625,-3.2576346397399902,0.3824712336063385,-0.03017478808760643
1740247041138436600,8.5504365234375,-3.3984529972076416,0.49496930837631226,-0.06660393625497818
1740247041148417500,8.56041748046875,-3.556344509124756,0.5199885964393616,-0.130865216255188
1740247041158399500,8.5703994140625,-3.710730791091919,0.4349583685398102,-0.20500032603740692
1740247041168380400,8.58038037109375,-3.8429670333862305,0.24819087982177734,-0.3076521158218384
1740247041178361300,8.590361328125,-3.952420711517334,0.009375611320137978,-0.45492061972618103
1740247041188343600,8.600343505859374,-4.0379557609558105,-0.2068360596895218,-0.6698150634765625
1740247041198324500,8.610324462890626,-4.109561443328857,-0.35986223816871643,-0.9488086104393005
1740247041208306400,8.620306396484375,-4.171191692352295,-0.4660691022872925,-1.2455828189849854
1740247041218287400,8.630287353515625,-4.226866245269775,-0.5475772619247437,-1.4828859567642212
1740247041228268300,8.640268310546874,-4.300100803375244,-0.6354791522026062,-1.603723406791687
1740247041238250500,8.65025048828125,-4.399061679840088,-0.7102702260017395,-1.5881043672561646
1740247041248231400,8.6602314453125,-4.503538608551025,-0.7559285163879395,-1.470517873764038
1740247041258212600,8.670212646484375,-4.584296703338623,-0.7554404735565186,-1.2973644733428955
1740247041268194600,8.680194580078124,-4.63703727722168,-0.7182955145835876,-1.1201918125152588
1740247041278175500,8.690175537109376,-4.655318737030029,-0.6631087064743042,-0.9455918669700623
1740247041288157400,8.700157470703125,-4.6376447677612305,-0.5659685730934143,-0.8011417388916016
1740247041298138400,8.710138427734375,-4.573596477508545,-0.3904419243335724,-0.6945908665657043
1740247041308119600,8.72011962890625,-4.465364933013916,-0.15553991496562958,-0.6152363419532776
1740247041318101500,8.7301015625,-4.333618640899658,0.09322146326303482,-0.5275667905807495
1740247041328082700,8.740082763671875,-4.181807041168213,0.2850132882595062,-0.4123424291610718
1740247041338064400,8.750064453125,-4.014452934265137,0.3760252892971039,-0.2603274881839752
1740247041348045600,8.760045654296874,-3.8192298412323,0.37695205211639404,-0.10367423295974731
1740247041358026500,8.770026611328126,-3.6030447483062744,0.32736971974372864,0.030062304809689522
1740247041368008700,8.7800087890625,-3.384587287902832,0.2628154754638672,0.1283385455608368
1740247041377989600,8.78998974609375,-3.1596696376800537,0.20133793354034424,0.20665957033634186
1740247041387970600,8.799970458984374,-2.9222733974456787,0.13633283972740173,0.2879602909088135
1740247041397952500,8.809952392578126,-2.6583926677703857,0.0681946724653244,0.3897891640663147
1740247041407933400,8.819933349609375,-2.3557989597320557,-0.006673704832792282,0.517017126083374
1740247041417915600,8.82991552734375,-2.020303249359131,-0.09040995687246323,0.6407179236412048
1740247041427896600,8.839896484375,-1.6651493310928345,-0.192932590842247,0.7214468717575073
1740247041437877500,8.84987744140625,-1.3123228549957275,-0.3119812309741974,0.7462624311447144
1740247041447859500,8.859859375,-0.9951279163360596,-0.4178514778614044,0.6848598122596741
1740247041457840400,8.86984033203125,-0.7367275357246399,-0.49121877551078796,0.5285485982894897
1740247041467821600,8.879821533203126,-0.5416965484619141,-0.5281304717063904,0.2746473252773285
1740247041477803500,8.889803466796875,-0.3870207369327545,-0.5531735420227051,-0.043960973620414734
1740247041487784400,8.899784423828125,-0.2549777328968048,-0.6012758612632751,-0.39072638750076294
1740247041497766400,8.909766357421875,-0.1333230882883072,-0.7033362984657288,-0.7118241190910339
1740247041507747300,8.919747314453126,0.006789821665734053,-0.8663420081138611,-0.9596299529075623
1740247041517728500,8.929728515625,0.16881516575813293,-1.0368674993515015,-1.1178719997406006
1740247041527710500,8.93971044921875,0.35604843497276306,-1.1927529573440552,-1.191132664680481
1740247041537691600,8.949691650390625,0.5474932789802551,-1.2986584901809692,-1.2036559581756592
1740247041547673300,8.95967333984375,0.7368581295013428,-1.3343214988708496,-1.1668345928192139
1740247041557654300,8.969654296875,0.919754683971405,-1.284976601600647,-1.0861423015594482
1740247041567635500,8.979635498046875,1.112006664276123,-1.13135826587677,-0.9627540707588196
1740247041577617400,8.989617431640625,1.3205634355545044,-0.8918981552124023,-0.7989794611930847
1740247041587598600,8.9995986328125,1.5521498918533325,-0.6099104285240173,-0.615915060043335
1740247041597579500,9.00957958984375,1.8048292398452759,-0.3481302261352539,-0.4219631552696228
1740247041607561500,9.0195615234375,2.064394950866699,-0.1488882154226303,-0.23243610560894012
1740247041617542400,9.02954248046875,2.3134121894836426,-0.004496798850595951,-0.05422244966030121
1740247041627524600,9.039524658203124,2.5245959758758545,0.11390227824449539,0.13074687123298645
1740247041637505500,9.049505615234375,2.670027732849121,0.23856516182422638,0.3101128041744232
1740247041647486500,9.059486572265625,2.776785373687744,0.4051211178302765,0.4748935103416443
1740247041657468700,9.06946875,2.869893789291382,0.6193856596946716,0.6072301268577576
1740247041667449600,9.07944970703125,2.965562105178833,0.850317656993866,0.702903151512146
1740247041677430300,9.08943017578125,3.07637882232666,1.0307937860488892,0.7559611797332764
1740247041687412500,9.09941259765625,3.190356492996216,1.1239417791366577,0.7563499808311462
1740247041697393400,9.109393310546874,3.2959365844726562,1.1335457563400269,0.7026853561401367
1740247041707375600,9.119375732421876,3.38655686378479,1.0840308666229248,0.5982151627540588
1740247041717356500,9.1293564453125,3.4633069038391113,0.9881514310836792,0.4407532215118408
1740247041727337500,9.13933740234375,3.5296711921691895,0.8327296376228333,0.24752701818943024
1740247041737319400,9.1493193359375,3.6163933277130127,0.606848955154419,0.03556276485323906
1740247041747300400,9.15930029296875,3.7239480018615723,0.335407555103302,-0.16808277368545532
1740247041757281500,9.169281494140625,3.8419556617736816,0.04929079860448837,-0.3426473140716553
1740247041767263500,9.179263427734375,3.9793713092803955,-0.20978683233261108,-0.46133482456207275
1740247041777244700,9.18924462890625,4.107877254486084,-0.41904228925704956,-0.5174280405044556
1740247041787226400,9.199226318359376,4.225299835205078,-0.5816476941108704,-0.5036107301712036
1740247041797207600,9.20920751953125,4.322080135345459,-0.6998608708381653,-0.4372814893722534
1740247041807188500,9.2191884765625,4.411159515380859,-0.7883327007293701,-0.34082740545272827
1740247041817170400,9.22917041015625,4.489980697631836,-0.8381031155586243,-0.24816685914993286
1740247041827151600,9.239151611328126,4.556581497192383,-0.8460918068885803,-0.16076403856277466
1740247041837133300,9.24913330078125,4.592352390289307,-0.8094247579574585,-0.08839025348424911
1740247041847114500,9.259114501953125,4.594042778015137,-0.7356506586074829,-0.021730003878474236
1740247041857095400,9.269095458984374,4.567778587341309,-0.6586835980415344,0.054157987236976624
1740247041867077600,9.27907763671875,4.506493091583252,-0.587653398513794,0.14361943304538727
1740247041877058600,9.28905859375,4.410422325134277,-0.5264884233474731,0.25570276379585266
1740247041887039500,9.29903955078125,4.291235446929932,-0.4738694131374359,0.3817903697490692
1740247041897021400,9.309021484375,4.1449174880981445,-0.44076767563819885,0.5048708319664001
1740247041907002400,9.31900244140625,3.98134708404541,-0.4367193877696991,0.6154959201812744
1740247041916984600,9.328984619140625,3.805739641189575,-0.44630295038223267,0.7124190926551819
1740247041926965500,9.338965576171875,3.609076499938965,-0.47685927152633667,0.7709385752677917
1740247041936946400,9.348946533203126,3.3837199211120605,-0.510075569152832,0.7885425686836243
1740247041946928400,9.358928466796876,3.130958080291748,-0.5334082245826721,0.7486773729324341
1740247041956909300,9.368909423828125,2.865277051925659,-0.527764618396759,0.6541424989700317
1740247041966891500,9.3788916015625,2.5831217765808105,-0.4837861955165863,0.5305939316749573
1740247041976872400,9.38887255859375,2.258279323577881,-0.41270795464515686,0.41645947098731995
1740247041986853600,9.398853515625,1.8884193897247314,-0.33417001366615295,0.33100637793540955
1740247041996835600,9.408835693359375,1.4815077781677246,-0.24671737849712372,0.2759852409362793
1740247042006816500,9.41881640625,1.0738744735717773,-0.1583329290151596,0.24554318189620972
1740247042016797400,9.42879736328125,0.6995798945426941,-0.07575062662363052,0.24580638110637665
1740247042026779400,9.438779296875,0.34927862882614136,-0.030190862715244293,0.278001070022583
1740247042036760600,9.448760498046875,0.01774938777089119,-0.03573278710246086,0.3537944257259369
1740247042046742500,9.458742431640625,-0.29296669363975525,-0.07353289425373077,0.47839733958244324
1740247042056723700,9.4687236328125,-0.5760036706924438,-0.12566624581813812,0.6128416657447815
1740247042066704400,9.478704345703125,-0.8177267909049988,-0.16672846674919128,0.7031949758529663
1740247042076686300,9.488686279296875,-1.0081431865692139,-0.180739626288414,0.7068877220153809
1740247042086667500,9.49866748046875,-1.18679678440094,-0.14699098467826843,0.6150973439216614
1740247042096649500,9.5086494140625,-1.4003214836120605,-0.07553794980049133,0.4434395432472229
1740247042106630100,9.518630126953125,-1.6718225479125977,0.0067641111090779305,0.21326519548892975
1740247042116611000,9.528611083984375,-1.981174349784851,0.07426314800977707,-0.042853448539972305
1740247042126593000,9.538593017578124,-2.3071372509002686,0.1337674856185913,-0.2979200780391693
1740247042136574000,9.548573974609376,-2.5952768325805664,0.21821270883083344,-0.5504897236824036
1740247042146555100,9.55855517578125,-2.7946369647979736,0.27920976281166077,-0.7495822906494141
1740247042156537000,9.568537109375,-2.921704053878784,0.2842657268047333,-0.8739017844200134
1740247042166518000,9.57851806640625,-3.015393018722534,0.24505893886089325,-0.947318971157074
1740247042176500000,9.5885,-3.0940558910369873,0.1856958270072937,-1.0042678117752075
1740247042186481000,9.59848095703125,-3.1811017990112305,0.1378723680973053,-1.0986895561218262
1740247042196462000,9.608462158203125,-3.3034884929656982,0.1347552090883255,-1.2492972612380981
1740247042206444000,9.618444091796874,-3.454263687133789,0.1910930573940277,-1.458672046661377
1740247042216425200,9.62842529296875,-3.604158401489258,0.26427024602890015,-1.6844406127929688
1740247042226407200,9.6384072265625,-3.749608039855957,0.31121939420700073,-1.9021164178848267
1740247042236388000,9.64838818359375,-3.9060590267181396,0.3008570671081543,-2.091852903366089
1740247042246369000,9.658369140625,-4.069099426269531,0.2467980980873108,-2.25010085105896
1740247042256351000,9.66835107421875,-4.221793174743652,0.1740463525056839,-2.365006446838379
1740247042266332200,9.678332275390625,-4.350132465362549,0.10792965441942215,-2.43792724609375
1740247042276313000,9.68831298828125,-4.447126388549805,0.07746955752372742,-2.468191623687744
1740247042286295300,9.69829541015625,-4.507913112640381,0.0879320502281189,-2.4312350749969482
1740247042296276000,9.70827587890625,-4.5371317863464355,0.12493496388196945,-2.3070385456085205
1740247042306258000,9.7182578125,-4.5611572265625,0.1790757030248642,-2.0916755199432373
1740247042316239000,9.728239013671875,-4.596122741699219,0.27747759222984314,-1.8246690034866333
1740247042326220000,9.738219970703126,-4.629082202911377,0.40516069531440735,-1.5335897207260132
1740247042336202200,9.7482021484375,-4.614121913909912,0.5400108098983765,-1.2256916761398315
1740247042346183200,9.75818310546875,-4.540628910064697,0.6807828545570374,-0.9290443658828735
1740247042356165000,9.7681650390625,-4.419689655303955,0.8024828433990479,-0.6393828988075256
1740247042366146000,9.77814599609375,-4.295100212097168,0.8853907585144043,-0.3821844160556793
1740247042376127000,9.788126953125,-4.164117813110352,0.9366825819015503,-0.19274112582206726
1740247042386109200,9.798109130859375,-4.026358604431152,0.9707563519477844,-0.09015882760286331
1740247042396090000,9.808090087890625,-3.8920226097106934,0.9773250222206116,-0.08210161328315735
1740247042406071300,9.8180712890625,-3.7779033184051514,0.9645064473152161,-0.14901860058307648
1740247042416053000,9.828052978515625,-3.6595263481140137,0.9257655739784241,-0.25568047165870667
1740247042426034000,9.838033935546875,-3.53267502784729,0.8438880443572998,-0.34288114309310913
1740247042436016000,9.84801611328125,-3.390014886856079,0.7115777730941772,-0.3811785876750946
1740247042445997000,9.8579970703125,-3.2064685821533203,0.5342570543289185,-0.372143030166626
1740247042455978200,9.867978271484375,-2.97108793258667,0.3306516408920288,-0.3382858633995056
1740247042465960000,9.8779599609375,-2.6918318271636963,0.12729984521865845,-0.30050545930862427
1740247042475941000,9.887941162109374,-2.390145778656006,-0.04740504175424576,-0.28715384006500244
1740247042485923000,9.897923095703124,-2.0636465549468994,-0.18158520758152008,-0.29203248023986816
1740247042495904000,9.907904052734375,-1.740419626235962,-0.28669291734695435,-0.31550654768943787
1740247042505885200,9.91788525390625,-1.4459961652755737,-0.4059221148490906,-0.35980474948883057
1740247042515867000,9.927866943359374,-1.2030481100082397,-0.5570729374885559,-0.4268184006214142
1740247042525848000,9.93784814453125,-1.0146992206573486,-0.7257002592086792,-0.5121540427207947
1740247042535829000,9.9478291015625,-0.875083863735199,-0.8792545199394226,-0.6166881322860718
1740247042545811200,9.957811279296875,-0.7791913747787476,-0.9923906922340393,-0.7382814288139343
1740247042555792100,9.967792236328124,-0.7134481072425842,-1.0723903179168701,-0.863163948059082
1740247042565774000,9.977774169921876,-0.6468232870101929,-1.1709473133087158,-0.9746705293655396
1740247042575755000,9.987755126953125,-0.5602556467056274,-1.3879315853118896,-1.0701618194580078
1740247042585736000,9.99773583984375,-0.46243399381637573,-1.7229294776916504,-1.1707336902618408
1740247042595718100,10.00771826171875,-0.35313647985458374,-2.081347703933716,-1.3072500228881836
1740247042605699000,10.017698974609376,-0.21378128230571747,-2.3483409881591797,-1.4588350057601929
1740247042615681300,10.027681396484375,-0.04171895980834961,-2.4518816471099854,-1.5804160833358765
1740247042625662200,10.037662109375,0.15537571907043457,-2.378369092941284,-1.6308480501174927
1740247042635643000,10.047642822265624,0.38396885991096497,-2.161638021469116,-1.5757025480270386
1740247042645625000,10.057625,0.6454342603683472,-1.8537876605987549,-1.419751763343811
1740247042655606000,10.06760595703125,0.9372004270553589,-1.4952077865600586,-1.1788605451583862
1740247042665588200,10.077588134765625,1.2574234008789062,-1.1069263219833374,-0.8683519959449768
1740247042675569200,10.087569091796874,1.587384581565857,-0.7277568578720093,-0.5011448860168457
1740247042685550000,10.097550048828126,1.9241681098937988,-0.3774438202381134,-0.09417076408863068
1740247042695532000,10.107531982421875,2.259446144104004,-0.07639160752296448,0.3386039137840271
1740247042705513000,10.117512939453125,2.5618250370025635,0.176190584897995,0.7706538438796997
1740247042715494100,10.127494140625,2.821561098098755,0.3886648714542389,1.172682762145996
1740247042725476000,10.13747607421875,3.0324933528900146,0.5648449659347534,1.5290403366088867
1740247042735457300,10.147457275390625,3.20825457572937,0.7127141356468201,1.8401075601577759
1740247042745439000,10.15743896484375,3.353635787963867,0.8071753978729248,2.0975353717803955
1740247042755420000,10.167419921875,3.4791135787963867,0.8691263794898987,2.3036177158355713
1740247042765401000,10.177401123046875,3.614535331726074,0.9234772324562073,2.463731050491333
1740247042775383000,10.187383056640625,3.771498918533325,0.9870173335075378,2.5753867626190186
1740247042785364200,10.1973642578125,3.983307361602783,1.0436090230941772,2.6210992336273193
1740247042795346000,10.207345947265624,4.2113518714904785,1.0208247900009155,2.614908456802368
1740247042805327000,10.2173271484375,4.406884670257568,0.8653572201728821,2.5537140369415283
1740247042815308000,10.22730810546875,4.571266174316406,0.6560981273651123,2.4328043460845947
1740247042825290000,10.2372900390625,4.697150230407715,0.48831871151924133,2.2513163089752197
1740247042835271200,10.247271240234374,4.771910667419434,0.41556409001350403,2.027679920196533
1740247042845252000,10.257252197265625,4.786762237548828,0.4170067012310028,1.804982304573059
1740247042855234000,10.267234130859375,4.7636237144470215,0.44876694679260254,1.6183459758758545
1740247042865215000,10.277215087890625,4.727128028869629,0.49056872725486755,1.4816523790359497
1740247042875197200,10.287197265625,4.695797443389893,0.5238771438598633,1.3875031471252441
1740247042885178000,10.29717822265625,4.672134876251221,0.5625595450401306,1.3312838077545166
1740247042895159000,10.307158935546875,4.66583251953125,0.608399510383606,1.2949250936508179
1740247042905141000,10.31714111328125,4.651422500610352,0.6480795741081238,1.2771940231323242
1740247042915122000,10.327121826171876,4.608771324157715,0.687811017036438,1.231036901473999
1740247042925104000,10.337104248046876,4.539576053619385,0.7420404553413391,1.1424540281295776
1740247042935085000,10.3470849609375,4.428238391876221,0.8190723061561584,0.9941068291664124
1740247042945066000,10.35706591796875,4.287099361419678,0.8759350180625916,0.8113948106765747
1740247042955048200,10.367048095703124,4.128076076507568,0.8764609098434448,0.6544079184532166
1740247042965029000,10.377029052734375,3.960195541381836,0.819062352180481,0.5621546506881714
1740247042975011000,10.387010986328125,3.797968626022339,0.7172756195068359,0.5430267453193665
1740247042984992000,10.396991943359374,3.6381208896636963,0.6057764887809753,0.5786619186401367
1740247042994973200,10.40697314453125,3.4775633811950684,0.5106027722358704,0.6349351406097412
1740247043004955100,10.416955078125,3.3155767917633057,0.4476427435874939,0.6712936758995056
1740247043014936000,10.42693603515625,3.1542203426361084,0.40580716729164124,0.6777017116546631
1740247043024917200,10.436917236328124,2.99178147315979,0.34477710723876953,0.6314386129379272
1740247043034899000,10.44689892578125,2.822409152984619,0.2562751770019531,0.5461307764053345
1740247043044880100,10.456880126953125,2.604541063308716,0.15278953313827515,0.44307011365890503
1740247043054862000,10.466862060546875,2.308311939239502,0.023908210918307304,0.35089388489723206
1740247043064843300,10.47684326171875,1.9096641540527344,-0.11311116069555283,0.2898651659488678
1740247043074824200,10.48682421875,1.4218999147415161,-0.20698218047618866,0.26794320344924927
1740247043084806000,10.496805908203125,0.8952233791351318,-0.28848105669021606,0.260010689496994
1740247043094787000,10.506787109375,0.39055129885673523,-0.40702730417251587,0.2702847421169281
1740247043104768500,10.5167685546875,-0.06284148246049881,-0.568412721157074,0.2987680435180664
1740247043114749700,10.526749755859376,-0.5075992345809937,-0.714126706123352,0.3116360008716583
1740247043124730600,10.536730712890625,-0.9612362384796143,-0.8120612502098083,0.2689404785633087
1740247043134712600,10.546712646484375,-1.416283130645752,-0.8738764524459839,0.17175984382629395
1740247043144693500,10.556693603515624,-1.8620054721832275,-0.9077438712120056,0.04108599200844765
1740247043154675700,10.56667578125,-2.298820972442627,-0.8969512581825256,-0.10031042993068695
1740247043164656600,10.57665673828125,-2.698127269744873,-0.8231295347213745,-0.23496119678020477
1740247043174637600,10.586637451171875,-3.036639928817749,-0.6984525322914124,-0.35941073298454285
1740247043184619800,10.596619873046874,-3.293930768966675,-0.5584901571273804,-0.4609259068965912
1740247043194600700,10.6066005859375,-3.4497289657592773,-0.43508192896842957,-0.5401540994644165
1740247043204581600,10.61658154296875,-3.494621992111206,-0.3359857201576233,-0.6044942140579224
1740247043214563600,10.6265634765625,-3.4699463844299316,-0.2578027844429016,-0.6707170605659485
1740247043224544500,10.63654443359375,-3.4532971382141113,-0.16926147043704987,-0.7605345845222473
1740247043234526700,10.646526611328126,-3.4991981983184814,-0.08243343979120255,-0.8659535646438599
1740247043244507600,10.656507568359375,-3.5972821712493896,-0.01855112984776497,-0.9470220804214478
1740247043254488800,10.66648876953125,-3.7283504009246826,-0.011055816896259785,-0.9626619219779968
1740247043264470500,10.676470458984374,-3.8652305603027344,-0.049609068781137466,-0.9157881736755371
1740247043274451700,10.68645166015625,-3.972353458404541,-0.1298062801361084,-0.807889997959137
1740247043284433700,10.69643359375,-4.032160758972168,-0.23164582252502441,-0.6709066033363342
1740247043294414600,10.70641455078125,-4.059834003448486,-0.3337009847164154,-0.540492057800293
1740247043304395800,10.716395751953126,-4.0618791580200195,-0.4270056188106537,-0.44852137565612793
1740247043314377500,10.72637744140625,-4.047271251678467,-0.49770694971084595,-0.4064638018608093
1740247043324358700,10.736358642578125,-4.0504984855651855,-0.5139932036399841,-0.41820621490478516
1740247043334339600,10.746339599609374,-4.0647759437561035,-0.49025577306747437,-0.4436732232570648
1740247043344321800,10.75632177734375,-4.094500541687012,-0.47523102164268494,-0.42733871936798096
1740247043354302700,10.766302734375,-4.146722793579102,-0.4668211340904236,-0.3426661789417267
1740247043364284400,10.776284423828125,-4.194953441619873,-0.46074458956718445,-0.2260974943637848
1740247043374265600,10.786265625,-4.222275257110596,-0.4208817481994629,-0.13613271713256836
1740247043384247600,10.79624755859375,-4.235504150390625,-0.3310445249080658,-0.12400414794683456
1740247043394228700,10.806228759765625,-4.225015640258789,-0.18710167706012726,-0.21641094982624054
1740247043404209700,10.816209716796875,-4.203299045562744,-0.02768300101161003,-0.40842434763908386
1740247043414191600,10.826191650390625,-4.1824564933776855,0.09547591209411621,-0.6415783762931824
1740247043424172500,10.836172607421876,-4.1629109382629395,0.1461087316274643,-0.8458673357963562
1740247043434153500,10.846153564453125,-4.139551162719727,0.10025686025619507,-0.9874812364578247
1740247043444135700,10.8561357421875,-4.104761600494385,-0.029548274353146553,-1.0765960216522217
1740247043454116600,10.86611669921875,-4.057737350463867,-0.1863168179988861,-1.1397334337234497
1740247043464098800,10.876098876953124,-3.9883244037628174,-0.3095862865447998,-1.1777682304382324
1740247043474079500,10.88607958984375,-3.897597074508667,-0.38185375928878784,-1.1753466129302979
1740247043484060400,10.896060302734375,-3.7869479656219482,-0.3900507092475891,-1.1208570003509521
1740247043494042600,10.906042724609375,-3.6554057598114014,-0.3340991139411926,-0.9962249994277954
1740247043504023600,10.9160234375,-3.4918923377990723,-0.2004459947347641,-0.8024701476097107
1740247043514005800,10.926005859375,-3.283050537109375,-0.006016925908625126,-0.5486020445823669
1740247043523986700,10.935986572265625,-3.023369789123535,0.2308259755373001,-0.23237748444080353
1740247043533967600,10.945967529296874,-2.705505609512329,0.4875054359436035,0.13341140747070312
1740247043543949600,10.955949462890626,-2.325467348098755,0.6833369731903076,0.5427619218826294
1740247043553930500,10.965930419921875,-1.9009690284729004,0.756020724773407,0.9680840969085693
1740247043563912700,10.97591259765625,-1.4771974086761475,0.6889783143997192,1.3620119094848633
1740247043573893600,10.9858935546875,-1.063816785812378,0.5565055012702942,1.653601884841919
1740247043583874800,10.995874755859376,-0.6478704214096069,0.3906235992908478,1.8033802509307861
1740247043593856500,11.0058564453125,-0.26041698455810547,0.20860426127910614,1.791508674621582
1740247043603837700,11.015837646484375,0.04372934252023697,0.046703774482011795,1.6120065450668335
1740247043613818600,11.025818603515624,0.2595902383327484,-0.10676834732294083,1.3246842622756958
1740247043623800600,11.035800537109376,0.40880849957466125,-0.2819707989692688,0.9871495366096497
1740247043633781800,11.04578173828125,0.5253621935844421,-0.46997347474098206,0.6604708433151245
1740247043643763500,11.055763427734375,0.6582342386245728,-0.6207097172737122,0.3587871491909027
1740247043653744600,11.06574462890625,0.8320476412773132,-0.6929908394813538,0.08412675559520721
1740247043663725600,11.0757255859375,1.0621799230575562,-0.6637354493141174,-0.17470507323741913
1740247043673707800,11.085707763671875,1.3349417448043823,-0.5315529108047485,-0.433960884809494
1740247043683688700,11.095688720703125,1.6253790855407715,-0.3241821527481079,-0.6834167838096619
1740247043693670400,11.10567041015625,1.9000691175460815,-0.07051625102758408,-0.8771591782569885
1740247043703651600,11.115651611328126,2.1408159732818604,0.18218816816806793,-0.9867373704910278
1740247043713632500,11.125632568359375,2.3486082553863525,0.4121555984020233,-1.0014125108718872
1740247043723614700,11.13561474609375,2.547631025314331,0.6166911125183105,-0.9304458498954773
1740247043733595600,11.145595703125,2.748981475830078,0.8068377375602722,-0.8192168474197388
1740247043743577600,11.15557763671875,2.947988510131836,0.9663996696472168,-0.685961902141571
1740247043753558500,11.16555859375,3.125852346420288,1.0841100215911865,-0.5470288395881653
1740247043763539500,11.17553955078125,3.2890100479125977,1.1602513790130615,-0.39674878120422363
1740247043773521700,11.185521728515624,3.450500011444092,1.1882466077804565,-0.23297767341136932
1740247043783502600,11.195502685546876,3.6051831245422363,1.1796566247940063,-0.06235506013035774
1740247043793484800,11.20548486328125,3.7529964447021484,1.1336592435836792,0.11362212896347046
1740247043803465700,11.2154658203125,3.9128336906433105,1.0782761573791504,0.2916770875453949
1740247043813446400,11.2254462890625,4.060486793518066,1.0238416194915771,0.4617854058742523
1740247043823428600,11.2354287109375,4.199035167694092,0.9756219387054443,0.6192967295646667
1740247043833409500,11.245409423828125,4.329946041107178,0.9350411295890808,0.756498396396637
1740247043843391700,11.255391845703125,4.453375339508057,0.9062105417251587,0.8655349016189575
1740247043853372700,11.26537255859375,4.537726402282715,0.8808326125144958,0.9340522885322571
1740247043863353900,11.275353759765625,4.591575622558594,0.8686501979827881,0.9579906463623047
1740247043873335600,11.28533544921875,4.6396026611328125,0.8912906646728516,0.9508627653121948
1740247043883316500,11.29531640625,4.684711456298828,0.9423045516014099,0.8986533284187317
1740247043893297700,11.305297607421876,4.7189531326293945,0.9972229599952698,0.8170620203018188
1740247043903279600,11.315279541015625,4.742072582244873,1.0582998991012573,0.7295033931732178
1740247043913260800,11.3252607421875,4.732031345367432,1.0925192832946777,0.6496754884719849
1740247043923242500,11.335242431640625,4.691746234893799,1.085564374923706,0.583462655544281
1740247043933223700,11.3452236328125,4.624637126922607,1.0577969551086426,0.5160172581672668
1740247043943204600,11.35520458984375,4.532162666320801,1.0438616275787354,0.42810654640197754
1740247043953186600,11.3651865234375,4.4272990226745605,1.074384331703186,0.31555303931236267
1740247043963167700,11.375167724609375,4.321237087249756,1.118175983428955,0.1980130970478058
1740247043973149400,11.3851494140625,4.21223783493042,1.1289526224136353,0.12482298910617828
1740247043983130600,11.395130615234375,4.107053756713867,1.0860223770141602,0.11596956849098206
1740247043993111600,11.405111572265625,4.010284423828125,0.9967533946037292,0.16585448384284973
1740247044003093800,11.41509375,3.907053232192993,0.894844651222229,0.24464090168476105
1740247044013074700,11.42507470703125,3.794569969177246,0.8018441796302795,0.31701186299324036
1740247044023056400,11.435056396484375,3.6891262531280518,0.712227463722229,0.34384453296661377
1740247044033037600,11.44503759765625,3.5856847763061523,0.6207930445671082,0.3055221140384674
1740247044043018500,11.4550185546875,3.483469247817993,0.5042946934700012,0.22051988542079926
1740247044053000700,11.465000732421874,3.3471786975860596,0.35543689131736755,0.10395923256874084
1740247044062981600,11.474981689453125,3.1343581676483154,0.15415330231189728,-0.021429315209388733
1740247044072963800,11.4849638671875,2.8434503078460693,-0.09273067116737366,-0.14236980676651
1740247044082944500,11.494944580078124,2.476804733276367,-0.30327725410461426,-0.2576468586921692
1740247044092925400,11.504925537109376,2.02583384513855,-0.4307556450366974,-0.36204513907432556
1740247044102908200,11.514908203125,1.517614722251892,-0.4957415461540222,-0.4378461539745331
1740247044112889000,11.52488916015625,1.0167105197906494,-0.5875208377838135,-0.47342735528945923
1740247044122871000,11.53487109375,0.5603709816932678,-0.7531305551528931,-0.47685644030570984
1740247044132852000,11.54485205078125,0.1429276466369629,-0.9597753286361694,-0.45969346165657043
1740247044142833000,11.5548330078125,-0.21626222133636475,-1.1237027645111084,-0.45636504888534546
1740247044152815000,11.564815185546875,-0.5349504351615906,-1.2199124097824097,-0.4845820665359497
1740247044162796000,11.574796142578125,-0.8502529859542847,-1.2557371854782104,-0.543745219707489
1740247044172777200,11.584777099609376,-1.1862679719924927,-1.2544080018997192,-0.601533830165863
1740247044182759200,11.59475927734375,-1.5592705011367798,-1.2392170429229736,-0.653772234916687
1740247044192739800,11.60473974609375,-1.9613127708435059,-1.212587594985962,-0.6721141934394836
1740247044202722000,11.61472216796875,-2.3749654293060303,-1.1922053098678589,-0.6618394255638123
1740247044212703000,11.624702880859376,-2.775470018386841,-1.1653231382369995,-0.6224479079246521
1740247044222684200,11.63468408203125,-3.1441783905029297,-1.1092615127563477,-0.5450993180274963
1740247044232666000,11.644666015625,-3.4508402347564697,-1.013879418373108,-0.432903528213501
1740247044242647300,11.654647216796874,-3.679395914077759,-0.892230212688446,-0.29965466260910034
1740247044252629000,11.66462890625,-3.830472469329834,-0.7528661489486694,-0.16504304111003876
1740247044262610200,11.674610107421875,-3.9171950817108154,-0.6156097650527954,-0.04189874231815338
1740247044272591000,11.684591064453125,-3.9588921070098877,-0.4883332848548889,0.06504681706428528
1740247044282573000,11.694572998046874,-3.9889020919799805,-0.38786420226097107,0.1392451524734497
1740247044292554200,11.70455419921875,-4.029632568359375,-0.3095810115337372,0.17429299652576447
1740247044302536000,11.714535888671875,-4.084197521209717,-0.275032639503479,0.1698758751153946
1740247044312517000,11.72451708984375,-4.143723011016846,-0.32114526629447937,0.12998387217521667
1740247044322498000,11.734498046875,-4.194316387176514,-0.46548834443092346,0.0734817162156105
1740247044332480300,11.744480224609376,-4.233468055725098,-0.6568070650100708,-0.019959283992648125
1740247044342461200,11.754461181640625,-4.262475490570068,-0.8431063294410706,-0.155161052942276
1740247044352443000,11.76444287109375,-4.284882545471191,-0.968921422958374,-0.3308563828468323
1740247044362424000,11.774424072265624,-4.319913864135742,-1.0059398412704468,-0.5353008508682251
1740247044372405000,11.784405029296876,-4.386832237243652,-0.9750941395759583,-0.7369590401649475
1740247044382387200,11.79438720703125,-4.487254619598389,-0.8962422013282776,-0.8937236070632935
1740247044392368000,11.8043681640625,-4.592166423797607,-0.7962926626205444,-0.9584857225418091
1740247044402350000,11.81435009765625,-4.662601947784424,-0.7192410230636597,-0.9001835584640503
1740247044412331000,11.8243310546875,-4.706043720245361,-0.6838633418083191,-0.7684597969055176
1740247044422312000,11.83431201171875,-4.725259304046631,-0.6659906506538391,-0.650822639465332
1740247044432294100,11.844294189453125,-4.719606876373291,-0.6321327686309814,-0.6026490330696106
1740247044442275000,11.854275146484374,-4.686752796173096,-0.549297571182251,-0.6425825953483582
1740247044452257300,11.86425732421875,-4.614515781402588,-0.3828270137310028,-0.775945246219635
1740247044462238000,11.874238037109375,-4.537642478942871,-0.15463991463184357,-0.9403110146522522
1740247044472219000,11.884218994140625,-4.474891185760498,0.047910142689943314,-1.0504354238510132
1740247044482201000,11.894201171875,-4.41469144821167,0.1629379242658615,-1.055532455444336
1740247044492182000,11.90418212890625,-4.336332321166992,0.18843209743499756,-0.9654510021209717
1740247044502164200,11.914164306640625,-4.210833549499512,0.1797747015953064,-0.8039768934249878
1740247044512145200,11.924145263671875,-4.025369167327881,0.182341530919075,-0.586786687374115
1740247044522126000,11.9341259765625,-3.7732913494110107,0.1892939805984497,-0.33542129397392273
1740247044532108000,11.94410791015625,-3.4247684478759766,0.19499558210372925,-0.054078392684459686
1740247044542089000,11.9540888671875,-2.95424485206604,0.18671129643917084,0.252982497215271
1740247044552071200,11.9640712890625,-2.381721019744873,0.1262136995792389,0.5661425590515137
1740247044562052000,11.974052001953124,-1.745426893234253,0.0019367579370737076,0.8519817590713501
1740247044572033300,11.984033203125,-1.1289161443710327,-0.16401803493499756,1.05661940574646
1740247044582015000,11.994014892578125,-0.6049349308013916,-0.30375543236732483,1.1397370100021362
1740247044591996200,12.00399609375,-0.23862159252166748,-0.36082160472869873,1.0755999088287354
1740247044601977000,12.01397705078125,-0.003832251764833927,-0.34328603744506836,0.8840228319168091
1740247044611959000,12.023958984375,0.12702631950378418,-0.30648159980773926,0.6092222332954407
1740247044621940200,12.033940185546875,0.1916058361530304,-0.29888254404067993,0.3234512209892273
1740247044631922000,12.043921875,0.20201154053211212,-0.3199809491634369,0.08603236079216003
1740247044641903000,12.053903076171874,0.18376381695270538,-0.35414236783981323,-0.07143263518810272
1740247044651884000,12.063884033203125,0.17492924630641937,-0.37438616156578064,-0.15457697212696075
1740247044661866200,12.0738662109375,0.1973743736743927,-0.35239481925964355,-0.17231948673725128
1740247044671847200,12.08384716796875,0.2784334719181061,-0.25996989011764526,-0.12830239534378052
1740247044681828900,12.093828857421874,0.44603604078292847,-0.0744980201125145,-0.05483988672494888
1740247044691810000,12.10381005859375,0.7033984661102295,0.21458671987056732,0.019596943631768227
1740247044701791000,12.113791015625,1.0364867448806763,0.5664368867874146,0.08747798949480057
1740247044711773200,12.123773193359375,1.4252684116363525,0.9128962755203247,0.17038705945014954
1740247044721754000,12.133754150390626,1.832309603691101,1.1945823431015015,0.28183767199516296
1740247044731736000,12.143736083984376,2.207798957824707,1.3748948574066162,0.4255443513393402
1740247044741717000,12.153717041015625,2.5335798263549805,1.449331521987915,0.5713194012641907
1740247044751698000,12.163697998046874,2.789599895477295,1.4634586572647095,0.6919611692428589
1740247044761680100,12.17368017578125,2.987388849258423,1.4630376100540161,0.7661773562431335
1740247044771661000,12.1836611328125,3.12479567527771,1.4719637632369995,0.7652547359466553
1740247044781643300,12.193643310546875,3.2148303985595703,1.494040846824646,0.697425365447998
1740247044791624200,12.203624267578125,3.2912747859954834,1.527214765548706,0.5769926309585571
1740247044801604900,12.21360498046875,3.3874752521514893,1.5584161281585693,0.4248638451099396
1740247044811587000,12.223587158203125,3.517631769180298,1.5639570951461792,0.25577500462532043
1740247044821568000,12.233568115234375,3.681408405303955,1.5346428155899048,0.0822620540857315
1740247044831550200,12.24355029296875,3.8563899993896484,1.4512866735458374,-0.09981145709753036
1740247044841531100,12.25353125,4.021029949188232,1.3039525747299194,-0.27283036708831787
1740247044851512300,12.26351220703125,4.172914981842041,1.120598554611206,-0.45280706882476807
1740247044861494000,12.273493896484375,4.3117547035217285,0.9241077899932861,-0.6342312097549438
1740247044871474000,12.283473876953124,4.421651840209961,0.730984628200531,-0.7928822040557861
1740247044881456000,12.2934560546875,4.494502544403076,0.5448935627937317,-0.9018954634666443
1740247044891437000,12.30343701171875,4.528929233551025,0.3709911108016968,-0.9647617340087891
1740247044901418000,12.31341796875,4.5458831787109375,0.2274315506219864,-0.9942530989646912
1740247044911400200,12.323400146484374,4.561717510223389,0.12483324855566025,-0.9941038489341736
1740247044921381000,12.333381103515626,4.575829982757568,0.05786992236971855,-0.9617820978164673
1740247044931363000,12.343363037109375,4.5785932540893555,0.012784421443939209,-0.906355619430542
1740247044941344000,12.353343994140625,4.571187496185303,-0.026275096461176872,-0.8306533694267273
1740247044951325200,12.3633251953125,4.552748203277588,-0.0639302209019661,-0.7473075985908508
1740247044961307100,12.37330712890625,4.52098274230957,-0.0739050880074501,-0.680496335029602
1740247044971288000,12.3832880859375,4.472478866577148,-0.05303822457790375,-0.6411639451980591
1740247044981270000,12.39327001953125,4.404778957366943,-0.013580565340816975,-0.6096521019935608
1740247044991251000,12.4032509765625,4.323249816894531,0.0121539868414402,-0.5622264742851257
1740247045001232100,12.413232177734375,4.225566864013672,0.02032882533967495,-0.4832022488117218
1740247045011214000,12.423214111328125,4.115808963775635,0.013654215261340141,-0.37276992201805115
1740247045021195300,12.4331953125,3.9946141242980957,-0.02065502293407917,-0.22177642583847046
1740247045031177000,12.443177001953124,3.8564858436584473,-0.06347724795341492,-0.0499129556119442
1740247045041158100,12.453158203125,3.6971561908721924,-0.12734171748161316,0.13293568789958954
1740247045051139000,12.46313916015625,3.52709698677063,-0.19499395787715912,0.32144108414649963
1740247045061121000,12.47312109375,3.3447623252868652,-0.268574982881546,0.5068908929824829
1740247045071102200,12.483102294921874,3.174670934677124,-0.34866970777511597,0.675644040107727
1740247045081084000,12.493083984375,3.0542962551116943,-0.44872334599494934,0.8297488689422607
1740247045091065000,12.503065185546875,3.0117850303649902,-0.562349259853363,0.9798578023910522
1740247045101045500,12.51304541015625,3.0235178470611572,-0.686905026435852,1.1288682222366333
1740247045111027700,12.52302783203125,2.9908664226531982,-0.7788194417953491,1.241648554801941
